time,seconds_elapsed,z,y,x
1771681126382150100,0.157150146484375,9.442078590393066,0.46420758962631226,0.5670989751815796
1771681126392507400,0.16750732421875,9.927821159362793,0.6939185857772827,0.37806597352027893
1771681126402864600,0.17786474609375,10.712666511535645,2.062613010406494,0.07178468257188797
1771681126423579000,0.198578857421875,9.614361763000488,1.222732424736023,0.2560320198535919
1771681126433936100,0.20893603515625,10.839486122131348,1.8592232465744019,0.3924229145050049
1771681126444293400,0.21929345703125,9.10229778289795,0.3278166949748993,0.4331009089946747
1771681126454650600,0.229650634765625,9.779465675354004,1.4859428405761719,0.16510476171970367
1771681126465007600,0.240007568359375,10.782058715820312,2.117648124694824,0.4091726839542389
1771681126475364900,0.25036474609375,9.279366493225098,0.47617170214653015,0.37088751792907715
1771681126485722000,0.26072216796875,9.221938133239746,1.1198409795761108,0.3397808074951172
1771681126496079400,0.271079345703125,10.463813781738281,2.1104695796966553,0.009571290574967861
1771681126506436400,0.281436279296875,9.509077072143555,0.7561319470405579,0.07417750358581543
1771681126516793600,0.291793701171875,8.956335067749023,0.885344386100769,0.40677985548973083
1771681126527150800,0.30215087890625,10.832307815551758,2.1583259105682373,0.3086741268634796
1771681126537508000,0.312508056640625,9.133403778076172,0.8279166221618652,0.7680960893630981
1771681126547865000,0.322864990234375,9.322437286376953,0.8470591902732849,0.24885354936122894
1771681126558222300,0.333222412109375,10.50209903717041,2.0003998279571533,0.4905286431312561
1771681126568579600,0.34357958984375,9.09990406036377,1.5098711252212524,0.7226324677467346
1771681126578936800,0.353936767578125,9.198010444641113,-0.20817556977272034,0.8279166221618652
1771681126589294000,0.364294189453125,10.518848419189453,2.179861545562744,0.31106695532798767
1771681126599651000,0.374651123046875,9.710074424743652,1.093519926071167,0.5072783827781677
1771681126610008300,0.38500830078125,9.147761344909668,0.46899324655532837,0.5910272002220154
1771681126620365600,0.395365478515625,9.913464546203613,1.6390835046768188,0.5431707501411438
1771681126630722800,0.405722900390625,9.750752449035645,1.3830515146255493,0.8350951075553894
1771681126641079800,0.416079833984375,8.772088050842285,0.1579262912273407,0.6652047038078308
1771681126651437000,0.42643701171875,10.746166229248047,1.5960127115249634,0.10767702013254166
1771681126661794300,0.436794189453125,10.387243270874023,1.7635103464126587,0.40677985548973083
1771681126672151600,0.447151611328125,9.119047164916992,-0.3684946894645691,1.1054840087890625
1771681126682508500,0.457508544921875,10.214960098266602,1.3878371715545654,0.4498506486415863
1771681126692865800,0.46786572265625,10.351350784301758,1.8185452222824097,0.6436693072319031
1771681126703223000,0.47822314453125,9.377471923828125,0.17228323221206665,0.29431718587875366
1771681126713580300,0.488580322265625,10.05703353881836,1.0432707071304321,0.5575276613235474
1771681126723937500,0.4989375,10.652846336364746,1.3591232299804688,0.4570291340351105
1771681126734294500,0.50929443359375,9.870393753051758,1.0911271572113037,0.2727817893028259
1771681126744651800,0.51965185546875,10.124032974243164,0.9475577473640442,0.698704183101654
1771681126755009000,0.530009033203125,10.15035343170166,1.703689694404602,0.6317051649093628
1771681126765366300,0.5403662109375,9.681360244750977,0.8566305041313171,0.8757730722427368
1771681126775723300,0.55072314453125,10.892128944396973,1.8711873292922974,0.3900300860404968
1771681126786080500,0.56108056640625,9.183652877807617,0.973878800868988,0.5862415432929993
1771681126796437800,0.571437744140625,9.848857879638672,1.4691931009292603,0.8805587291717529
1771681126806795000,0.581794921875,10.585846900939941,2.1535403728485107,0.5599204897880554
1771681126817152300,0.59215234375,9.028120040893555,0.6747759580612183,0.3206382393836975
1771681126827509200,0.60250927734375,9.76989459991455,1.9669002294540405,0.21774685382843018
1771681126837866500,0.612866455078125,10.329814910888672,2.306680917739868,0.35892340540885925
1771681126848223700,0.6232236328125,8.518448829650879,0.5120640397071838,0.5455635786056519
1771681126858581000,0.6335810546875,9.851250648498535,1.1748759746551514,0.363709032535553
1771681126868938000,0.64393798828125,9.985248565673828,2.778067111968994,0.6843472719192505
1771681126879295200,0.654295166015625,9.590433120727539,1.093519926071167,0.8015955686569214
1771681126889652500,0.664652587890625,9.626325607299805,1.3543375730514526,0.4737788736820221
1771681126900009700,0.675009765625,9.757930755615234,2.227717876434326,1.2442678213119507
1771681126910366700,0.68536669921875,9.741181373596191,1.7180466651916504,0.6364908218383789
1771681126920724000,0.695723876953125,9.7938232421875,1.3615161180496216,0.12681959569454193
1771681126931081200,0.706081298828125,9.518648147583008,1.6462619304656982,0.672383189201355
1771681126941438500,0.7164384765625,9.767501831054688,1.191625714302063,0.4618147611618042
1771681126951795500,0.72679541015625,10.210174560546875,2.651247501373291,0.11006984114646912
1771681126962152700,0.737152587890625,8.415556907653809,0.4043870270252228,0.6125625967979431
1771681126972510000,0.747510009765625,10.73420238494873,2.0673987865448,0.2584248483181
1771681126982867200,0.7578671875,9.006584167480469,1.3304094076156616,0.6029912829399109
1771681126993224200,0.76822412109375,9.982855796813965,1.2083754539489746,0.07896314561367035
1771681127003581400,0.77858154296875,9.858428955078125,2.0003998279571533,0.6005984544754028
1771681127013938700,0.788938720703125,9.848857879638672,1.0671988725662231,1.196411371231079
1771681127024296000,0.7992958984375,9.157332420349121,1.9956140518188477,0.4450650215148926
1771681127034653200,0.809653076171875,10.705488204956055,1.4500504732131958,0.2632105052471161
1771681127045010400,0.820010498046875,8.606983184814453,1.0169496536254883,0.7776673436164856
1771681127055367400,0.830367431640625,10.315458297729492,1.552941918373108,0.48574298620224
1771681127065724700,0.840724609375,10.04985523223877,1.5074782371520996,0.4043870270252228
1771681127076082000,0.85108203125,8.693124771118164,0.6317051649093628,0.5718846321105957
1771681127086439200,0.861439208984375,11.46401309967041,1.6031911373138428,0.24646073579788208
1771681127096796200,0.871796142578125,9.564111709594727,1.698904037475586,0.519242525100708
1771681127107153400,0.8821533203125,9.745966911315918,0.7226324677467346,0.22492532432079315
1771681127117510700,0.8925107421875,10.566704750061035,1.8448662757873535,-0.062213387340307236
1771681127127868000,0.902867919921875,9.166903495788574,1.3280165195465088,0.3924229145050049
1771681127138225000,0.913224853515625,10.61695384979248,1.1748759746551514,0.24646073579788208
1771681127148582100,0.92358203125,9.298508644104004,1.4476577043533325,0.23449662327766418
1771681127158939400,0.933939453125,10.86580753326416,1.3878371715545654,-0.13878370821475983
1771681127169296600,0.944296630859375,10.813165664672852,1.6342978477478027,0.2871387302875519
1771681127179653600,0.954653564453125,9.516255378723145,1.28255295753479,0.41874396800994873
1771681127190011000,0.965010986328125,10.279565811157227,1.7994025945663452,0.19621145725250244
1771681127200368000,0.9753681640625,9.09272575378418,1.5720844268798828,0.5910272002220154
1771681127210725400,0.985725341796875,10.162318229675293,1.3495519161224365,0.2512463629245758
1771681127221082400,0.996082275390625,9.772287368774414,2.062613010406494,0.20338992774486542
1771681127231439600,1.006439697265625,9.253045082092285,1.454836130142212,0.04785645380616188
1771681127241796900,1.016796875,10.571490287780762,2.825923442840576,0.5024927258491516
1771681127252154000,1.027154052734375,8.628518104553223,1.3902299404144287,0.9308080077171326
1771681127262511400,1.037511474609375,10.045069694519043,1.7060825824737549,0.04307080805301666
1771681127272868400,1.047868408203125,9.836894035339355,2.256431818008423,0.4163511395454407
1771681127283225600,1.0582255859375,9.44447135925293,1.521835207939148,0.3852444589138031
1771681127293582800,1.068582763671875,10.241280555725098,2.416750907897949,0.09571290761232376
1771681127303940000,1.078940185546875,8.559126853942871,1.6031911373138428,0.38285163044929504
1771681127314297300,1.08929736328125,10.753344535827637,2.6297121047973633,0.30149564146995544
1771681127324654300,1.099654296875,8.824729919433594,1.7682958841323853,0.9092726111412048
1771681127335011600,1.110011474609375,9.836894035339355,2.045863389968872,0.1052841991186142
1771681127345368800,1.120368896484375,10.02592658996582,2.5387847423553467,0.009571290574967861
1771681127355726000,1.13072607421875,8.508877754211426,1.2705888748168945,0.6747759580612183
1771681127366083000,1.1410830078125,11.289337158203125,2.7900311946868896,0.031106693670153618
1771681127376440300,1.1514404296875,7.992027759552002,1.5242279767990112,0.6508477330207825
1771681127386797600,1.161797607421875,10.250852584838867,1.8783657550811768,0.576670229434967
1771681127397154800,1.17215478515625,9.212367057800293,2.581855535507202,1.0360921621322632
1771681127407511800,1.18251171875,9.45164966583252,1.5601203441619873,0.14356936514377594
1771681127417869000,1.192869140625,9.516255378723145,1.9070796966552734,0.6580262184143066
1771681127428226300,1.203226318359375,9.379864692687988,2.280359983444214,0.6460621356964111
1771681127438583600,1.21358349609375,10.906485557556152,1.8496519327163696,0.5862415432929993
1771681127448940500,1.2239404296875,7.613961696624756,1.5409778356552124,0.7920243144035339
1771681127459297800,1.2342978515625,11.528619766235352,2.4047868251800537,0.7824530005455017
1771681127469655000,1.244655029296875,8.551948547363281,1.794616937637329,1.1126625537872314
1771681127480012300,1.25501220703125,10.00439167022705,1.1150553226470947,0.34695929288864136
1771681127490369500,1.26536962890625,9.954142570495605,2.754138946533203,0.2967100143432617
1771681127500726800,1.275726806640625,9.482755661010742,1.0145567655563354,-0.019142581149935722
1771681127511083800,1.286083740234375,10.686346054077148,1.526620864868164,-0.24885354936122894
1771681127521441000,1.29644091796875,8.630910873413086,1.947757601737976,0.605384111404419
1771681127531798300,1.30679833984375,10.894521713256836,2.1774685382843018,0.7226324677467346
1771681127542155500,1.317155517578125,7.999206066131592,1.7539390325546265,1.0241280794143677
1771681127552512500,1.327512451171875,10.482955932617188,1.6965112686157227,0.4450650215148926
1771681127562869800,1.337869873046875,9.487542152404785,1.3615161180496216,0.8398807644844055
1771681127573227000,1.34822705078125,10.001998901367188,1.8855443000793457,-0.09571290761232376
1771681127583584300,1.358584228515625,10.746166229248047,1.8065811395645142,0.05024927482008934
1771681127593941200,1.368941162109375,10.382457733154297,1.892722725868225,-0.03349951654672623
1771681127604298500,1.379298583984375,10.590633392333984,0.5431707501411438,0.48095735907554626
1771681127614655700,1.38965576171875,10.255638122558594,2.0243279933929443,0.44745782017707825
1771681127625013000,1.400012939453125,10.380064964294434,1.7539390325546265,1.428515076637268
1771681127635370200,1.410370361328125,10.6025972366333,2.2468605041503906,0.27756741642951965
1771681127645727200,1.420727294921875,10.01156997680664,1.3232308626174927,0.4211367964744568
1771681127656084500,1.43108447265625,9.844072341918945,2.3808584213256836,0.05024927482008934
1771681127666441700,1.441441650390625,10.49252700805664,1.8855443000793457,0.39481574296951294
1771681127676799000,1.451799072265625,9.590433120727539,1.9310078620910645,0.29431718587875366
1771681127687156000,1.462156005859375,11.138589859008789,2.218146562576294,0.48813581466674805
1771681127697513200,1.47251318359375,10.037891387939453,1.2131611108779907,0.41156548261642456
1771681127707870500,1.482870361328125,10.494919776916504,2.9359934329986572,-0.0526420995593071
1771681127718227700,1.493227783203125,9.011369705200195,1.9262222051620483,0.638883650302887
1771681127728585000,1.5035849609375,9.083154678344727,2.210968017578125,0.729810893535614
1771681127738942000,1.51394189453125,8.449056625366211,2.3952155113220215,1.1174482107162476
1771681127749299200,1.52429931640625,9.480362892150879,2.1846470832824707,0.8087740540504456
1771681127759656400,1.534656494140625,8.343772888183594,1.7156537771224976,1.2993026971817017
1771681127770013700,1.545013671875,10.095318794250488,2.524427890777588,0.4211367964744568
1771681127780371000,1.555370849609375,9.54496955871582,2.139183521270752,0.39960137009620667
1771681127790728000,1.56572802734375,9.949356079101562,1.5409778356552124,0.7226324677467346
1771681127801085200,1.576085205078125,9.30329418182373,2.210968017578125,0.4905286431312561
1771681127811442400,1.5864423828125,9.394221305847168,2.6536402702331543,0.6508477330207825
1771681127821799700,1.596799560546875,8.956335067749023,1.6007983684539795,0.7465606927871704
1771681127832156700,1.60715673828125,8.788837432861328,2.0338993072509766,0.2871387302875519
1771681127842514000,1.617513916015625,9.53061294555664,2.9527430534362793,0.5527420043945312
1771681127852871200,1.62787109375,9.784252166748047,1.5122638940811157,0.4905286431312561
1771681127863228400,1.638228515625,9.549755096435547,1.94297194480896,0.47617170214653015
1771681127873585700,1.648585693359375,10.078569412231445,2.1439690589904785,0.7369893789291382
1771681127883942700,1.658942626953125,10.743773460388184,1.5936198234558105,0.7848458290100098
1771681127894300000,1.6692998046875,9.28893756866455,1.7515461444854736,0.397208571434021
1771681127904657200,1.6796572265625,10.39920711517334,2.342573404312134,0.15314064919948578
1771681127915014400,1.690014404296875,8.874979019165039,1.9262222051620483,0.1339980661869049
1771681127925371400,1.700371337890625,9.968499183654785,2.4526431560516357,0.17706887423992157
1771681127935728600,1.710728759765625,8.226524353027344,1.3088740110397339,0.43549370765686035
1771681127946086000,1.7210859375,10.475777626037598,2.6153552532196045,0.02392822690308094
1771681127956443100,1.731443115234375,9.052047729492188,1.4117653369903564,0.23210379481315613
1771681127966800400,1.74180029296875,10.612168312072754,2.5052852630615234,-0.0023928226437419653
1771681127977157400,1.752157470703125,10.344172477722168,1.3854442834854126,0.2679961323738098
1771681127987514600,1.7625146484375,10.226923942565918,2.7182464599609375,0.07178468257188797
1771681127997871900,1.772871826171875,9.78664493560791,1.3639088869094849,0.7417750358581543
1771681128008229000,1.78322900390625,9.8871431350708,2.56510591506958,0.5623133182525635
1771681128018586400,1.79358642578125,9.499505996704102,1.8496519327163696,0.3445664644241333
1771681128028943400,1.803943359375,10.095318794250488,2.2325034141540527,0.4450650215148926
1771681128039300600,1.814300537109375,9.34875774383545,1.4787644147872925,0.11964113265275955
1771681128049657900,1.824657958984375,9.600004196166992,2.5603201389312744,1.0528420209884644
1771681128060015000,1.83501513671875,10.339386940002441,1.7491533756256104,0.3326023519039154
1771681128070372400,1.845372314453125,8.898907661437988,1.7802600860595703,0.1986042857170105
1771681128080729300,1.855729248046875,10.901700019836426,2.344966173171997,0.15553347766399384
1771681128091086600,1.866086669921875,8.786444664001465,1.4117653369903564,0.31106695532798767
1771681128101443800,1.87644384765625,9.391828536987305,2.311466693878174,-0.3158525824546814
1771681128111801000,1.886801025390625,9.025727272033691,1.1174482107162476,0.4498506486415863
1771681128122158000,1.897157958984375,8.796015739440918,2.289931297302246,-0.22971096634864807
1771681128132515300,1.907515380859375,9.20997428894043,0.9523434042930603,0.23688943684101105
1771681128142872600,1.91787255859375,9.34157943725586,2.3234307765960693,0.38763725757598877
1771681128153229800,1.928229736328125,9.32004451751709,0.32303106784820557,1.0648061037063599
1771681128163587000,1.938587158203125,9.42054271697998,1.1126625537872314,0.4378865361213684
1771681128173944000,1.948944091796875,10.00439167022705,0.7154539823532104,-0.007178467698395252
1771681128184301300,1.95930126953125,9.671789169311523,2.1032910346984863,0.04785645380616188
1771681128194658600,1.969658447265625,9.590433120727539,-0.5216353535652161,0.5862415432929993
1771681128205015800,1.980015869140625,9.695717811584473,1.00259268283844,0.0526420995593071
1771681128215373000,1.990373046875,9.923035621643066,1.4572290182113647,0.5790630578994751
1771681128225730000,2.00072998046875,9.757930755615234,0.4331009089946747,0.6101697683334351
1771681128236087300,2.01108740234375,8.96829891204834,0.4426721930503845,0.6843472719192505
1771681128246444500,2.021444580078125,10.231709480285645,0.9284151792526245,-0.05742774158716202
1771681128256801800,2.0318017578125,9.923035621643066,0.32542386651039124,0.4426721930503845
1771681128267158800,2.04215869140625,9.554540634155273,-0.7489534616470337,0.5647061467170715
1771681128277516000,2.05251611328125,9.90149974822998,0.10049854964017868,1.057627558708191
1771681128287873300,2.062873291015625,10.04267692565918,1.0815558433532715,1.007378339767456
1771681128298230500,2.07323046875,9.671789169311523,-0.5527420043945312,0.8709874153137207
1771681128308587800,2.083587890625,9.681360244750977,0.38763725757598877,0.42352959513664246
1771681128318944800,2.09394482421875,10.116853713989258,0.6819544434547424,0.30628129839897156
1771681128329302000,2.104302001953125,10.023533821105957,0.3206382393836975,0.6580262184143066
1771681128339659300,2.1146591796875,10.085747718811035,-0.12921242415905,0.29431718587875366
1771681128350016500,2.1250166015625,10.85145092010498,0.6795616149902344,0.29431718587875366
1771681128360373800,2.135373779296875,9.856036186218262,-0.349352091550827,0.5742774605751038
1771681128370730800,2.145730712890625,9.688538551330566,-0.4211367964744568,1.1389836072921753
1771681128381088000,2.156087890625,10.863414764404297,0.973878800868988,0.33499518036842346
1771681128391445200,2.1664453125,10.50209903717041,-0.5024927258491516,0.5072783827781677
1771681128401802500,2.176802490234375,10.63370418548584,0.3756731450557709,0.059820566326379776
1771681128412159700,2.18715966796875,9.978070259094238,-0.14835500717163086,1.007378339767456
1771681128422517000,2.19751708984375,10.389636039733887,0.6819544434547424,0.6915257573127747
1771681128432874000,2.2078740234375,9.573683738708496,-0.4570291340351105,0.9978070259094238
1771681128443231200,2.218231201171875,10.581061363220215,0.24885354936122894,-0.15553347766399384
1771681128453588500,2.22858837890625,10.645668029785156,0.8398807644844055,0.12921242415905
1771681128463945700,2.23894580078125,10.401599884033203,-0.40677985548973083,0.4019941985607147
1771681128474303000,2.249302978515625,9.973284721374512,0.1818545162677765,0.19142581522464752
1771681128484660000,2.259659912109375,11.284551620483398,0.6795616149902344,0.4833501875400543
1771681128495017200,2.270017333984375,9.040083885192871,-0.37088751792907715,0.5168496966362
1771681128505374500,2.28037451171875,9.7938232421875,0.49292147159576416,0.2679961323738098
1771681128515731700,2.290731689453125,9.987641334533691,0.7489534616470337,-0.004785645287483931
1771681128526088700,2.301088623046875,9.138189315795898,0.13639089465141296,0.11724831163883209
1771681128536446000,2.311446044921875,10.009177207946777,0.35413774847984314,0.007178467698395252
1771681128546803200,2.32180322265625,9.468399047851562,0.8303094506263733,0.23449662327766418
1771681128557160400,2.332160400390625,9.92542839050293,0.11964113265275955,0.4450650215148926
1771681128567517700,2.342517578125,9.614361763000488,-0.07896314561367035,0.6819544434547424
1771681128577874700,2.352874755859375,10.463813781738281,1.301695466041565,-0.04785645380616188
1771681128588232000,2.36323193359375,9.722038269042969,-0.34695929288864136,0.29431718587875366
1771681128598589200,2.373589111328125,10.045069694519043,0.8087740540504456,0.3086741268634796
1771681128608946400,2.383946533203125,9.293723106384277,-0.09571290761232376,0.3756731450557709
1771681128619303700,2.3943037109375,9.602396965026855,0.9475577473640442,0.6221339106559753
1771681128629660700,2.40466064453125,9.19561767578125,-0.2632105052471161,0.9643075466156006
1771681128640018000,2.415017822265625,10.202995300292969,0.576670229434967,0.34217363595962524
1771681128650375200,2.425375244140625,9.681360244750977,0.6005984544754028,0.41156548261642456
1771681128660732400,2.435732421875,10.53081226348877,-0.4211367964744568,0.11006984114646912
1771681128671089700,2.446089599609375,10.100104331970215,0.8255237936973572,0.5934200286865234
1771681128681446700,2.45644677734375,10.095318794250488,-0.08135596662759781,0.6556333899497986
1771681128691804000,2.466803955078125,9.667003631591797,0.7800601720809937,1.0671988725662231
1771681128702161200,2.4771611328125,9.671789169311523,-0.4666004180908203,0.7920243144035339
1771681128712518400,2.487518310546875,10.293923377990723,1.397408366203308,-0.059820566326379776
1771681128722875600,2.497875732421875,9.4061861038208,0.3206382393836975,0.5455635786056519
1771681128733232600,2.508232666015625,10.473384857177734,0.4163511395454407,0.46899324655532837
1771681128743590000,2.51858984375,9.186046600341797,0.4833501875400543,0.550349235534668
1771681128753947100,2.528947021484375,11.155339241027832,0.4977070987224579,0.14117653667926788
1771681128764304400,2.539304443359375,9.231510162353516,-0.064606212079525,0.11964113265275955
1771681128774661600,2.54966162109375,10.305887222290039,0.21774685382843018,0.47617170214653015
1771681128785018600,2.5600185546875,9.753145217895508,0.7226324677467346,0.727418065071106
1771681128795375900,2.5703759765625,9.286544799804688,0.32542386651039124,0.45942193269729614
1771681128805733000,2.580733154296875,9.829715728759766,-0.10049854964017868,0.5312066078186035
1771681128816090400,2.59109033203125,10.372885704040527,0.6556333899497986,-0.016749758273363113
1771681128826447600,2.601447509765625,9.987641334533691,0.5096712112426758,0.5527420043945312
1771681128836804600,2.6118046875,9.841679573059082,0.07657032459974289,0.1746760457754135
1771681128847161900,2.622161865234375,9.710074424743652,0.6843472719192505,0.7800601720809937
1771681128857519000,2.63251904296875,9.487542152404785,0.33499518036842346,0.8159525394439697
1771681128867876400,2.64287646484375,10.411170959472656,0.06699903309345245,0.2225325107574463
1771681128878233600,2.653233642578125,9.846465110778809,0.15074782073497772,-0.08853443711996078
1771681128888590800,2.6635908203125,10.626524925231934,-0.15314064919948578,0.07178468257188797
1771681128898947800,2.67394775390625,9.9469633102417,0.849452018737793,0.08853443711996078
1771681128909305000,2.68430517578125,9.535398483276367,-0.2225325107574463,0.7322037220001221
1771681128919662300,2.694662353515625,9.588040351867676,0.4785645306110382,0.1698904037475586
1771681128930019600,2.70501953125,10.078569412231445,0.8111668825149536,0.11964113265275955
1771681128940376800,2.715376953125,10.272387504577637,-0.6628118753433228,0.1698904037475586
1771681128950733800,2.72573388671875,9.607182502746582,1.129412293434143,0.24646073579788208
1771681128961091000,2.736091064453125,10.810772895812988,0.2560320198535919,0.9355936646461487
1771681128971448300,2.7464482421875,8.329415321350098,-0.275174617767334,0.5168496966362
1771681128981805600,2.7568056640625,10.339386940002441,0.2847459018230438,0.5335994362831116
1771681128992162800,2.767162841796875,10.207781791687012,0.7992027401924133,0.02871387079358101
1771681129002520000,2.77752001953125,9.087940216064453,0.38763725757598877,0.6460621356964111
1771681129012877000,2.787876953125,9.820143699645996,0.10049854964017868,0.3397808074951172
1771681129023234300,2.798234375,9.06401252746582,0.5694918036460876,1.0767701864242554
1771681129033591600,2.808591552734375,10.097711563110352,0.4043870270252228,0.1866401731967926
1771681129043948800,2.81894873046875,9.57607650756836,0.4019941985607147,0.5623133182525635
1771681129054306000,2.82930615234375,9.492327690124512,0.31345975399017334,0.35413774847984314
1771681129064663000,2.8396630859375,10.193424224853516,0.4977070987224579,0.6125625967979431
1771681129075020300,2.850020263671875,9.53061294555664,0.6508477330207825,0.397208571434021
1771681129085377500,2.86037744140625,9.961320877075195,0.31345975399017334,0.638883650302887
1771681129095734800,2.87073486328125,9.061619758605957,0.04546362906694412,0.9116654396057129
1771681129106092000,2.881092041015625,9.908679008483887,1.0911271572113037,0.6532405614852905
1771681129116449300,2.89144921875,9.870393753051758,-0.22971096634864807,0.5455635786056519
1771681129126806300,2.90180615234375,9.473184585571289,0.3852444589138031,0.672383189201355
1771681129137163500,2.91216357421875,10.569097518920898,0.45224347710609436,0.5670989751815796
1771681129147520800,2.922520751953125,9.734002113342285,0.3206382393836975,0.13639089465141296
1771681129157878000,2.9328779296875,9.956535339355469,0.03349951654672623,0.6293123364448547
1771681129168235300,2.9432353515625,9.820143699645996,0.7585247755050659,0.0933200865983963
1771681129178592300,2.95359228515625,9.095118522644043,0.3900300860404968,0.33020952343940735
1771681129188949500,2.963949462890625,9.643074989318848,-0.1339980661869049,0.34695929288864136
1771681129199306800,2.974306640625,9.635896682739258,0.7896314859390259,0.0023928226437419653
1771681129209664000,2.9846640625,9.712467193603516,0.31345975399017334,0.5910272002220154
1771681129220021200,2.995021240234375,9.81535816192627,-0.062213387340307236,0.8159525394439697
1771681129230378200,3.005378173828125,9.930213928222656,0.3326023519039154,0.34217363595962524
1771681129240735500,3.015735595703125,10.533205032348633,0.6771687865257263,0.28953152894973755
1771681129251092700,3.0260927734375,10.37767219543457,0.4163511395454407,0.5575276613235474
1771681129261450000,3.036449951171875,10.179067611694336,-0.2847459018230438,0.26560330390930176
1771681129271807200,3.04680712890625,10.301101684570312,0.8207381963729858,0.5838487148284912
1771681129282164500,3.05716455078125,9.664610862731934,0.09810572862625122,0.7872386574745178
1771681129292521500,3.067521484375,10.26042366027832,0.39481574296951294,0.2632105052471161
1771681129302878700,3.077878662109375,9.58325481414795,0.7585247755050659,0.6891329288482666
1771681129313236000,3.088236083984375,10.265209197998047,-0.3158525824546814,0.03349951654672623
1771681129323593200,3.09859326171875,9.81535816192627,0.8733802437782288,0.09810572862625122
1771681129333950500,3.108950439453125,10.320243835449219,-0.17228323221206665,0.040677983313798904
1771681129344307500,3.119307373046875,9.9469633102417,0.8446664214134216,0.27038896083831787
1771681129354664700,3.129664794921875,9.437292098999023,0.04307080805301666,0.5718846321105957
1771681129365022000,3.14002197265625,10.317851066589355,0.4833501875400543,0.2392822653055191
1771681129375379200,3.150379150390625,9.147761344909668,0.32542386651039124,-0.07417750358581543
1771681129385736400,3.160736328125,10.473384857177734,0.16510476171970367,0.11724831163883209
1771681129396093700,3.17109375,9.267401695251465,1.0528420209884644,0.02153540402650833
1771681129406450700,3.18145068359375,10.372885704040527,-0.02392822690308094,0.3158525824546814
1771681129416808000,3.191807861328125,9.135796546936035,0.0023928226437419653,0.33738797903060913
1771681129427165200,3.202165283203125,9.966106414794922,0.6293123364448547,0.14835500717163086
1771681129437522400,3.2125224609375,9.681360244750977,0.5288137793540955,0.33738797903060913
1771681129447879700,3.222879638671875,9.810572624206543,0.07896314561367035,0.2919243574142456
1771681129458236700,3.233236572265625,10.272387504577637,0.24406790733337402,0.14835500717163086
1771681129468594000,3.243593994140625,10.588240623474121,0.5455635786056519,0.08374879509210587
1771681129478951200,3.253951171875,9.65503978729248,-0.0023928226437419653,0.7058826684951782
1771681129489308400,3.264308349609375,10.01874828338623,0.5575276613235474,0.49292147159576416
1771681129499665700,3.274665771484375,9.942177772521973,0.49292147159576416,0.6604190468788147
1771681129510023000,3.28502294921875,9.588040351867676,0.5359922647476196,0.8207381963729858
1771681129520380000,3.2953798828125,9.781859397888184,0.7561319470405579,0.11724831163883209
1771681129530737200,3.305737060546875,10.095318794250488,0.8997012972831726,-0.07417750358581543
1771681129541094400,3.316094482421875,9.032905578613281,0.08374879509210587,0.12442677468061447
1771681129551451600,3.32645166015625,9.30329418182373,0.6580262184143066,0.17946170270442963
1771681129561809000,3.336808837890625,10.080962181091309,0.7728816866874695,0.48095735907554626
1771681129572166100,3.347166259765625,9.805787086486816,0.4785645306110382,0.20817556977272034
1771681129582523100,3.357523193359375,9.365508079528809,0.040677983313798904,0.0933200865983963
1771681129592880400,3.36788037109375,10.849058151245117,0.8255237936973572,0.30149564146995544
1771681129603237600,3.378237548828125,9.32004451751709,0.727418065071106,0.5575276613235474
1771681129613595000,3.388594970703125,9.805787086486816,-0.12442677468061447,0.6556333899497986
1771681129623952100,3.3989521484375,9.308079719543457,0.23210379481315613,0.7178468108177185
1771681129634309400,3.409309326171875,10.250852584838867,0.6556333899497986,-0.16510476171970367
1771681129644666400,3.419666259765625,9.990034103393555,0.5934200286865234,0.12442677468061447
1771681129655023600,3.430023681640625,10.06421184539795,-0.16271193325519562,0.5551348328590393
1771681129665380900,3.440380859375,10.030712127685547,0.3278166949748993,0.9044869542121887
1771681129675738000,3.450738037109375,10.195816993713379,0.11964113265275955,0.973878800868988
1771681129686095400,3.461095458984375,10.506884574890137,0.42831525206565857,0.05503492057323456
1771681129696452400,3.471452392578125,10.552348136901855,0.17706887423992157,0.14117653667926788
1771681129706809600,3.4818095703125,10.214960098266602,0.03349951654672623,0.11724831163883209
1771681129717166800,3.492166748046875,9.370293617248535,0.397208571434021,0.4977070987224579
1771681129727524000,3.502524169921875,10.358529090881348,0.9954141974449158,0.6819544434547424
1771681129737881300,3.51288134765625,9.262616157531738,-0.3038884699344635,0.37806597352027893
1771681129748238600,3.523238525390625,9.741181373596191,0.6939185857772827,0.16271193325519562
1771681129758595600,3.533595703125,10.322636604309082,0.3924229145050049,0.16031911969184875
1771681129768952800,3.543952880859375,9.774680137634277,0.0526420995593071,-0.21296121180057526
1771681129779310000,3.55431005859375,10.301101684570312,0.18424734473228455,0.4019941985607147
1771681129789667300,3.564667236328125,9.705288887023926,0.15074782073497772,0.08374879509210587
1771681129800024600,3.575024658203125,9.779465675354004,0.18903298676013947,0.4043870270252228
1771681129810381800,3.5853818359375,10.327422142028809,0.5838487148284912,0.05742774158716202
1771681129820738800,3.59573876953125,9.324830055236816,0.605384111404419,0.4331009089946747
1771681129831096000,3.606095947265625,9.08554744720459,-0.0933200865983963,0.5168496966362
1771681129841453300,3.616453369140625,9.753145217895508,0.9619147181510925,0.5096712112426758
1771681129851810600,3.626810546875,8.973084449768066,0.275174617767334,0.5599204897880554
1771681129862167800,3.637167724609375,9.607182502746582,-0.5072783827781677,0.16271193325519562
1771681129872525000,3.647525146484375,9.08554744720459,0.2392822653055191,-0.03349951654672623
1771681129882882000,3.657882080078125,10.73420238494873,-0.08135596662759781,0.30628129839897156
1771681129893239300,3.6682392578125,9.573683738708496,-0.47617170214653015,0.44027936458587646
1771681129903596500,3.678596435546875,9.760323524475098,-0.02632104977965355,0.7872386574745178
1771681129913953800,3.688953857421875,9.430113792419434,-0.22492532432079315,0.7441678643226624
1771681129924311000,3.69931103515625,9.073583602905273,0.31824541091918945,0.6652047038078308
1771681129934668300,3.709668212890625,10.116853713989258,-0.31106695532798767,0.3278166949748993
1771681129945025300,3.720025390625,9.595218658447266,0.07417750358581543,0.25363919138908386
1771681129955382500,3.730382568359375,10.052248001098633,-0.5790630578994751,0.27756741642951965
1771681129965739800,3.74073974609375,9.982855796813965,0.380458801984787,0.2584248483181
1771681129976097000,3.751096923828125,10.241280555725098,0.02632104977965355,0.36610186100006104
1771681129986454300,3.761454345703125,10.078569412231445,-0.12442677468061447,0.3517449200153351
1771681129996811500,3.7718115234375,10.746166229248047,-0.05024927482008934,0.3206382393836975
1771681130007168500,3.78216845703125,9.600004196166992,0.16271193325519562,0.2632105052471161
1771681130017525800,3.79252587890625,10.39920711517334,0.35413774847984314,0.035892341285943985
1771681130027883000,3.802883056640625,9.226723670959473,-0.02871387079358101,0.380458801984787
1771681130038240300,3.813240234375,10.05703353881836,0.23210379481315613,0.22013968229293823
1771681130048597500,3.823597412109375,10.068997383117676,0.6604190468788147,0.6340979933738708
1771681130058954800,3.833954833984375,10.470992088317871,-0.2847459018230438,0.6556333899497986
1771681130069311700,3.844311767578125,10.066604614257812,0.31106695532798767,0.23449662327766418
1771681130079669000,3.8546689453125,10.820343971252441,0.5000999569892883,0.4953143000602722
1771681130090026200,3.865026123046875,9.774680137634277,-0.16271193325519562,0.5479564070701599
1771681130100383500,3.875383544921875,10.470992088317871,-0.04307080805301666,0.33499518036842346
1771681130110740700,3.88574072265625,10.138389587402344,0.8757730722427368,0.3852444589138031
1771681130121098000,3.896097900390625,9.382257461547852,-0.31345975399017334,0.04546362906694412
1771681130131455000,3.906455078125,10.262816429138184,0.4307080805301666,-0.275174617767334
1771681130141812200,3.916812255859375,10.358529090881348,1.0552347898483276,-0.14356936514377594
1771681130152169500,3.92716943359375,9.095118522644043,-0.2967100143432617,0.2153540402650833
1771681130162526700,3.937526611328125,10.068997383117676,1.0839486122131348,0.6532405614852905
1771681130172884000,3.947884033203125,9.69093132019043,1.7371892929077148,0.5168496966362
1771681130183241200,3.9582412109375,10.511670112609863,3.5054850578308105,0.39960137009620667
1771681130193598200,3.96859814453125,9.396614074707031,0.1459621787071228,0.21296121180057526
1771681130203955500,3.97895556640625,10.956734657287598,2.2396819591522217,-1.0791629552841187
1771681130214312700,3.989312744140625,9.688538551330566,1.4979069232940674,-0.12921242415905
1771681130224670000,3.999669921875,10.669595718383789,2.0027925968170166,0.2273181527853012
1771681130235027200,4.010027099609375,9.659825325012207,2.830709218978882,0.5862415432929993
1771681130245384400,4.020384521484375,10.774880409240723,2.9001009464263916,1.3591232299804688
1771681130255741400,4.030741455078125,8.090133666992188,0.8590233325958252,1.1509476900100708
1771681130266098700,4.0410986328125,10.315458297729492,2.0554347038269043,-0.040677983313798904
1771681130276456000,4.0514560546875,9.69093132019043,3.452843189239502,-0.2727817893028259
1771681130286813200,4.061813232421875,8.748159408569336,0.0526420995593071,0.3756731450557709
1771681130297170400,4.07217041015625,8.324629783630371,0.41156548261642456,0.6819544434547424
1771681130307527700,4.082527587890625,9.994820594787598,3.0795626640319824,1.1413763761520386
1771681130317885000,4.092885009765625,9.659825325012207,1.4644074440002441,0.8709874153137207
1771681130328242000,4.103241943359375,8.606983184814453,-0.380458801984787,-0.1746760457754135
1771681130338599200,4.11359912109375,9.798608779907227,1.246660590171814,0.20099709928035736
1771681130348956400,4.123956298828125,9.470791816711426,2.612962245941162,0.8614161610603333
1771681130359313700,4.134313720703125,9.631111145019531,0.7226324677467346,0.49292147159576416
1771681130369671000,4.1446708984375,8.453842163085938,-0.08374879509210587,1.031306505203247
1771681130380028200,4.155028076171875,9.65503978729248,1.0432707071304321,1.0863415002822876
1771681130390385400,4.165385498046875,10.045069694519043,2.3234307765960693,0.6149554252624512
1771681130400742400,4.175742431640625,8.975478172302246,0.48813581466674805,0.8614161610603333
1771681130411099600,4.186099609375,10.664810180664062,-0.14835500717163086,0.973878800868988
1771681130421457000,4.196456787109375,10.078569412231445,2.007578134536743,0.07178468257188797
1771681130431814100,4.206814208984375,10.712666511535645,1.3663017749786377,1.1437692642211914
1771681130442171400,4.21717138671875,9.391828536987305,0.6652047038078308,1.5744773149490356
1771681130452528600,4.227528564453125,10.17428207397461,2.8929226398468018,0.9379864931106567
1771681130462885600,4.2378857421875,8.918049812316895,0.3852444589138031,0.5096712112426758
1771681130473243000,4.248242919921875,9.198010444641113,0.8374879360198975,-0.9284151792526245
1771681130483600100,4.25860009765625,10.906485557556152,3.2063822746276855,0.30149564146995544
1771681130493957400,4.268957275390625,10.545169830322266,2.6847469806671143,1.215553879737854
1771681130504314600,4.279314697265625,8.212167739868164,-0.397208571434021,-0.05742774158716202
1771681130514671900,4.289671875,11.404192924499512,1.6271194219589233,0.2847459018230438
1771681130525029000,4.300029052734375,11.045269012451172,2.0243279933929443,0.2105683982372284
1771681130535386000,4.31038623046875,11.016555786132812,-0.33499518036842346,0.6843472719192505
1771681130545743400,4.320743408203125,10.566704750061035,1.0097711086273193,1.490728497505188
1771681130556100600,4.3311005859375,11.791830062866211,2.909672260284424,1.5912270545959473
1771681130566457900,4.341457763671875,9.042476654052734,0.13639089465141296,0.8374879360198975
1771681130576815000,4.351815185546875,9.437292098999023,0.729810893535614,-0.1052841991186142
1771681130587172400,4.36217236328125,9.80100154876709,3.5341989994049072,0.09092725813388824
1771681130597529600,4.372529541015625,7.460821151733398,1.8999011516571045,0.14117653667926788
1771681130607886600,4.382886474609375,7.149754047393799,0.01196411345154047,-0.605384111404419
1771681130618243800,4.393243896484375,9.91825008392334,2.675175666809082,-0.9978070259094238
1771681130628601000,4.40360107421875,9.745966911315918,2.5986053943634033,-0.9930213689804077
1771681130638958300,4.413958251953125,9.485149383544922,0.17706887423992157,-1.1222338676452637
1771681130649315600,4.424315673828125,9.860821723937988,0.4977070987224579,-0.8183453679084778
1771681130659672600,4.434672607421875,10.00439167022705,2.139183521270752,-0.17706887423992157
1771681130670029800,4.44502978515625,9.324830055236816,0.5144568681716919,-0.2727817893028259
1771681130680387000,4.455386962890625,8.563912391662598,1.397408366203308,-0.15553347766399384
1771681130690744300,4.465744384765625,8.511270523071289,2.557927370071411,0.5359922647476196
1771681130701101600,4.4761015625,7.070790767669678,1.2275179624557495,0.49292147159576416
1771681130711458800,4.486458740234375,8.327022552490234,0.5312066078186035,-0.13639089465141296
1771681130721816000,4.496816162109375,11.186446189880371,2.902493953704834,0.20099709928035736
1771681130732173000,4.507173095703125,9.956535339355469,0.8638089895248413,-0.014356935396790504
1771681130742530300,4.5175302734375,10.303494453430176,-0.26081767678260803,-0.4307080805301666
1771681130752887600,4.527887451171875,12.641282081604004,2.8450660705566406,0.550349235534668
1771681130763244800,4.538244873046875,9.975677490234375,1.0648061037063599,0.8015955686569214
1771681130773602000,4.54860205078125,9.41336441040039,-0.4977070987224579,0.7417750358581543
1771681130783959300,4.558959228515625,10.279565811157227,2.5363919734954834,0.607776939868927
1771681130794316500,4.569316650390625,8.925228118896484,2.203789710998535,0.9379864931106567
1771681130804673800,4.579673828125,8.4562349319458,0.6245267391204834,1.1940184831619263
1771681130815030800,4.59003076171875,9.623932838439941,1.648654818534851,0.519242525100708
1771681130825388000,4.600387939453125,10.540383338928223,2.282752752304077,0.9595218896865845
1771681130835745300,4.610745361328125,10.04267692565918,0.6556333899497986,0.8757730722427368
1771681130846102500,4.6211025390625,12.088540077209473,1.6390835046768188,0.5718846321105957
1771681130856459800,4.631459716796875,10.712666511535645,0.9954141974449158,0.9403793215751648
1771681130866817000,4.641817138671875,10.348958015441895,0.22971096634864807,0.33738797903060913
1771681130877174300,4.65217431640625,10.825129508972168,2.770888566970825,-0.1986042857170105
1771681130887531300,4.66253125,8.86780071258545,1.7443677186965942,0.42831525206565857
1771681130897888500,4.672888427734375,8.559126853942871,-0.09810572862625122,0.6580262184143066
1771681130908245800,4.683245849609375,9.851250648498535,2.854637384414673,0.6604190468788147
1771681130918603000,4.69360302734375,10.236495018005371,2.4358935356140137,0.9954141974449158
1771681130928960300,4.703960205078125,9.375079154968262,-0.2560320198535919,0.7513462901115417
1771681130939317500,4.7143173828125,11.636296272277832,2.5148565769195557,0.672383189201355
1771681130949674800,4.7246748046875,9.970891952514648,1.275374412536621,1.8305093050003052
1771681130960031700,4.73503173828125,10.241280555725098,1.2059825658798218,0.3445664644241333
1771681130970389000,4.745388916015625,11.44247817993164,2.5076780319213867,0.6604190468788147
1771681130980746200,4.755746337890625,8.894122123718262,2.746960401535034,-0.34217363595962524
1771681130991103500,4.766103515625,9.499505996704102,-0.9116654396057129,0.3206382393836975
1771681131001460700,4.776460693359375,9.812965393066406,2.8833513259887695,0.3158525824546814
1771681131011818000,4.78681787109375,9.633503913879395,2.486142635345459,0.014356935396790504
1771681131022175200,4.79717529296875,9.133403778076172,0.6317051649093628,0.5551348328590393
1771681131032532200,4.8075322265625,9.789037704467773,2.1343977451324463,0.7058826684951782
1771681131042889500,4.817889404296875,9.844072341918945,1.31365966796875,1.0456634759902954
1771681131053246700,4.828246826171875,10.463813781738281,1.797009825706482,0.6604190468788147
1771681131063604000,4.83860400390625,10.090533256530762,2.2229323387145996,0.6843472719192505
1771681131073961200,4.848961181640625,9.485149383544922,1.155733346939087,1.1461620330810547
1771681131084318500,4.859318359375,10.463813781738281,2.1367905139923096,0.4450650215148926
1771681131094675700,4.86967578125,10.971092224121094,3.105883836746216,0.5982056856155396
1771681131105033000,4.880032958984375,8.00638484954834,0.9810572862625122,-0.33020952343940735
1771681131115390000,4.890389892578125,8.920442581176758,0.24406790733337402,-0.30149564146995544
1771681131125747200,4.900747314453125,9.908679008483887,2.9383862018585205,0.5144568681716919
1771681131136104400,4.9111044921875,9.104690551757812,1.246660590171814,-0.035892341285943985
1771681131146461700,4.921461669921875,9.482755661010742,1.222732424736023,-0.5000999569892883
1771681131156819000,4.93181884765625,10.820343971252441,2.5076780319213867,-0.08853443711996078
1771681131167176200,4.94217626953125,8.350951194763184,0.7250252366065979,-0.13639089465141296
1771681131177533400,4.952533447265625,10.643275260925293,2.2301106452941895,0.27756741642951965
1771681131187890400,4.962890380859375,10.432706832885742,2.909672260284424,-0.064606212079525
1771681131198247700,4.97324755859375,8.142775535583496,-0.20578274130821228,0.040677983313798904
1771681131208605000,4.98360498046875,11.408978462219238,2.495713949203491,-0.1746760457754135
1771681131218962200,4.993962158203125,9.628718376159668,2.746960401535034,0.23210379481315613
1771681131229319400,5.0043193359375,8.858229637145996,0.3445664644241333,0.040677983313798904
1771681131239676700,5.0146767578125,10.078569412231445,0.5383850932121277,-0.6699903607368469
1771681131250034000,5.025033935546875,10.145567893981934,2.5531418323516846,0.6029912829399109
1771681131260391000,5.035390869140625,9.200403213500977,1.057627558708191,-0.2991028428077698
1771681131270748200,5.045748046875,10.116853713989258,2.2947168350219727,0.380458801984787
1771681131281105400,5.05610546875,9.387042999267578,1.430907964706421,0.8757730722427368
1771681131291462700,5.066462646484375,10.590633392333984,1.9070796966552734,0.519242525100708
1771681131301820000,5.07681982421875,9.547362327575684,2.2325034141540527,0.8255237936973572
1771681131312177200,5.08717724609375,9.760323524475098,0.17946170270442963,0.4331009089946747
1771681131322534400,5.097534423828125,10.396814346313477,2.933600664138794,0.035892341285943985
1771681131332891600,5.1078916015625,9.533005714416504,2.5459632873535156,-0.3278166949748993
1771681131343248600,5.11824853515625,9.119047164916992,0.6843472719192505,0.0526420995593071
1771681131353606000,5.12860595703125,11.140982627868652,3.3092737197875977,0.4307080805301666
1771681131363963100,5.138963134765625,8.72901725769043,1.734796404838562,0.6293123364448547
1771681131374320400,5.1493203125,9.992427825927734,1.6319050788879395,0.727418065071106
1771681131384677600,5.159677734375,10.169496536254883,2.878565549850464,1.34476637840271
1771681131395035000,5.170034912109375,9.516255378723145,0.6843472719192505,1.3160524368286133
1771681131405392100,5.18039208984375,10.667202949523926,2.359323024749756,0.35892340540885925
1771681131415749400,5.190749267578125,9.159725189208984,2.7517459392547607,0.4905286431312561
1771681131426106600,5.201106689453125,9.080761909484863,0.12442677468061447,0.576670229434967
1771681131436463600,5.211463623046875,10.901700019836426,3.115455150604248,0.4618147611618042
1771681131446820900,5.22182080078125,8.48734188079834,1.4261223077774048,0.5048855543136597
1771681131457178000,5.23217822265625,10.372885704040527,0.8159525394439697,-0.02871387079358101
1771681131467535400,5.242535400390625,10.183853149414062,3.046063184738159,1.1198409795761108
1771681131477892600,5.252892578125,9.454042434692383,1.093519926071167,1.0911271572113037
1771681131488249900,5.263249755859375,9.844072341918945,1.8544375896453857,0.3613162338733673
1771681131498607000,5.273607177734375,9.08554744720459,2.6943182945251465,1.100698471069336
1771681131508964000,5.283964111328125,10.01156997680664,0.35413774847984314,0.8446664214134216
1771681131519321300,5.2943212890625,10.638489723205566,3.053241729736328,0.4307080805301666
1771681131529678600,5.3046787109375,8.331808090209961,1.3591232299804688,0.5790630578994751
1771681131540035800,5.315035888671875,10.38485050201416,1.9166508913040161,-0.007178467698395252
1771681131550393000,5.32539306640625,9.992427825927734,3.263810157775879,0.14356936514377594
1771681131560750300,5.335750244140625,8.965906143188477,0.0933200865983963,0.4259224236011505
1771681131571107600,5.346107666015625,11.437692642211914,3.2446675300598145,-0.12442677468061447
1771681131581464800,5.35646484375,8.037490844726562,2.720639228820801,0.12681959569454193
1771681131591822000,5.366822021484375,10.736595153808594,0.349352091550827,1.0671988725662231
1771681131602179300,5.377179443359375,9.698110580444336,3.1202406883239746,0.9595218896865845
1771681131612536300,5.387536376953125,9.53779125213623,0.8662018179893494,0.7226324677467346
1771681131622893600,5.3978935546875,10.437492370605469,1.8855443000793457,0.5407779216766357
1771681131633250800,5.408250732421875,9.30329418182373,2.3306093215942383,0.6628118753433228
1771681131643608000,5.418608154296875,10.425528526306152,0.42831525206565857,-0.5072783827781677
1771681131653965300,5.42896533203125,9.442078590393066,2.9479575157165527,-0.33020952343940735
1771681131664322600,5.439322509765625,7.8317084312438965,1.0217353105545044,0.38285163044929504
1771681131674679800,5.4496796875,10.581061363220215,1.8855443000793457,-0.16031911969184875
1771681131685036800,5.460036865234375,9.439684867858887,2.0410776138305664,0.27756741642951965
1771681131695394000,5.47039404296875,10.394421577453613,0.4426721930503845,0.1866401731967926
1771681131705751300,5.480751220703125,10.463813781738281,3.1968109607696533,0.5838487148284912
1771681131716108500,5.491108642578125,8.078168869018555,1.057627558708191,1.3471591472625732
1771681131726465800,5.5014658203125,9.954142570495605,1.2418749332427979,0.6029912829399109
1771681131736823000,5.511822998046875,9.4660062789917,3.1178479194641113,0.4378865361213684
1771681131747180300,5.52218017578125,9.336793899536133,-0.007178467698395252,0.04785645380616188
1771681131757537500,5.53253759765625,10.353743553161621,3.146561861038208,-0.14835500717163086
1771681131767894800,5.542894775390625,8.188239097595215,1.2346965074539185,0.038285162299871445
1771681131778252000,5.553251953125,10.090533256530762,2.117648124694824,-0.14356936514377594
1771681131788609000,5.563609130859375,9.712467193603516,2.0027925968170166,1.1485549211502075
1771681131798966300,5.57396630859375,10.51645565032959,0.7920243144035339,0.7345965504646301
1771681131809323500,5.584323486328125,10.791629791259766,3.19441819190979,0.6005984544754028
1771681131819680800,5.5946806640625,9.1716890335083,0.8087740540504456,0.6771687865257263
1771681131830038000,5.6050380859375,10.762916564941406,1.825723648071289,0.04785645380616188
1771681131840395300,5.615395263671875,8.621339797973633,2.7876384258270264,0.4450650215148926
1771681131850752500,5.62575244140625,10.236495018005371,0.6460621356964111,-0.4091726839542389
1771681131861109800,5.63610986328125,10.073782920837402,3.115455150604248,0.20817556977272034
1771681131871466800,5.646466796875,8.171489715576172,0.5982056856155396,0.14356936514377594
1771681131881824000,5.656823974609375,11.571690559387207,2.194218397140503,-0.39481574296951294
1771681131892181200,5.66718115234375,8.894122123718262,2.651247501373291,0.607776939868927
1771681131902538500,5.67753857421875,11.818151473999023,-0.11485548317432404,0.5312066078186035
1771681131912895700,5.687895751953125,10.25324535369873,3.022135019302368,0.363709032535553
1771681131923253000,5.6982529296875,9.114261627197266,-0.05742774158716202,0.9619147181510925
1771681131933610200,5.7086103515625,11.540583610534668,3.0029923915863037,0.06939185410737991
1771681131943967500,5.718967529296875,7.704888820648193,1.2418749332427979,1.4476577043533325
1771681131954324700,5.72932470703125,10.6624174118042,0.5934200286865234,-0.7106683254241943
1771681131964682000,5.739681884765625,8.37727165222168,3.0795626640319824,0.062213387340307236
1771681131975039200,5.750039306640625,8.506484031677246,0.21774685382843018,0.08614161610603333
1771681131985396200,5.760396240234375,10.545169830322266,2.579462766647339,-0.21774685382843018
1771681131995753500,5.77075341796875,7.680960655212402,1.2610175609588623,1.3040883541107178
1771681132006110700,5.78111083984375,12.002398490905762,2.1918256282806396,1.0360921621322632
1771681132016468000,5.791468017578125,8.453842163085938,1.8592232465744019,1.7491533756256104
1771681132026825200,5.8018251953125,10.470992088317871,1.8089739084243774,1.6151553392410278
1771681132037182500,5.812182373046875,9.126225471496582,2.1822543144226074,2.282752752304077
1771681132047539700,5.822539794921875,8.516056060791016,2.1128623485565186,-2.455035924911499
1771681132057897000,5.83289697265625,9.068798065185547,1.643869161605835,2.5603201389312744
1771681132068254200,5.843254150390625,8.183453559875488,1.155733346939087,1.0001999139785767
1771681132078611200,5.853611083984375,11.138589859008789,1.7922241687774658,-0.41156548261642456
1771681132088968400,5.863968505859375,9.408578872680664,1.825723648071289,-0.6915257573127747
1771681132099325700,5.87432568359375,10.75813102722168,1.4500504732131958,-1.1988041400909424
1771681132109683000,5.884682861328125,10.29870891571045,2.9934210777282715,0.729810893535614
1771681132120040200,5.895040283203125,9.037691116333008,0.07417750358581543,0.916451096534729
1771681132130397400,5.9053974609375,10.590633392333984,2.2707886695861816,-0.031106693670153618
1771681132140754700,5.915754638671875,8.58784008026123,2.3186452388763428,0.24646073579788208
1771681132151112000,5.92611181640625,11.408978462219238,1.2681959867477417,-0.5312066078186035
1771681132161469200,5.93646923828125,8.819944381713867,1.9525432586669922,0.17706887423992157
1771681132171826200,5.946826171875,10.51645565032959,1.6295121908187866,-0.016749758273363113
1771681132182183400,5.957183349609375,9.272188186645508,2.2396819591522217,0.3086741268634796
1771681132192540700,5.967540771484375,8.688339233398438,-0.1339980661869049,0.641276478767395
1771681132202898000,5.97789794921875,11.303693771362305,3.2853455543518066,0.48813581466674805
1771681132213255200,5.988255126953125,9.104690551757812,0.763310432434082,0.9762716293334961
1771681132223612400,5.9986123046875,11.44965648651123,2.146361827850342,0.06699903309345245
1771681132233969700,6.0089697265625,8.233702659606934,1.820937991142273,1.074377417564392
1771681132244327000,6.019326904296875,10.963912963867188,1.643869161605835,-0.5790630578994751
1771681132254684200,6.02968408203125,7.927421569824219,1.8448662757873535,-0.41874396800994873
1771681132265041400,6.04004150390625,10.521241188049316,1.3950155973434448,-0.4043870270252228
1771681132275398700,6.050398681640625,9.635896682739258,2.8187451362609863,-0.397208571434021
1771681132285755600,6.060755615234375,9.872786521911621,0.4570291340351105,0.11485548317432404
1771681132296113000,6.07111279296875,10.918449401855469,3.067598581314087,0.5455635786056519
1771681132306470100,6.08147021484375,8.700303077697754,1.179661512374878,1.373480200767517
1771681132316827400,6.091827392578125,10.928021430969238,2.227717876434326,0.2679961323738098
1771681132327184600,6.1021845703125,8.635697364807129,1.2131611108779907,0.8997012972831726
1771681132337542000,6.1125419921875,11.519047737121582,1.6319050788879395,-0.16271193325519562
1771681132347899100,6.122899169921875,9.236295700073242,2.6057839393615723,-0.06699903309345245
1771681132358256400,6.13325634765625,10.614561080932617,0.5910272002220154,-0.007178467698395252
1771681132368613600,6.143613525390625,9.45882797241211,2.0817556381225586,1.1222338676452637
1771681132378971000,6.153970947265625,10.219745635986328,1.576870083808899,0.6604190468788147
1771681132389328100,6.164328125,10.279565811157227,1.4691931009292603,0.6843472719192505
1771681132399685000,6.17468505859375,8.958727836608887,0.5718846321105957,1.0887342691421509
1771681132410042400,6.18504248046875,11.20798110961914,2.227717876434326,0.09810572862625122
1771681132420399600,6.195399658203125,8.559126853942871,1.5337992906570435,0.3756731450557709
1771681132430756900,6.2057568359375,11.399407386779785,0.8350951075553894,-0.11964113265275955
1771681132441114000,6.216114013671875,8.82951545715332,1.576870083808899,0.3086741268634796
1771681132451471400,6.226471435546875,11.997612953186035,2.03629207611084,-0.23210379481315613
1771681132461828600,6.23682861328125,8.973084449768066,1.6941183805465698,0.6340979933738708
1771681132472185900,6.247185791015625,10.722238540649414,1.1150553226470947,0.44745782017707825
1771681132482543000,6.257543212890625,9.43489933013916,2.043470621109009,0.8901300430297852
1771681132492900400,6.267900390625,10.047462463378906,1.3280165195465088,0.7417750358581543
1771681132503257600,6.278257568359375,9.45164966583252,2.691925525665283,0.9547362327575684
1771681132513614600,6.288614501953125,9.073583602905273,0.9571290612220764,-0.2584248483181
1771681132523971800,6.298971923828125,9.7938232421875,1.7802600860595703,-0.638883650302887
1771681132534329000,6.3093291015625,9.19561767578125,2.1439690589904785,0.2560320198535919
1771681132544686300,6.319686279296875,11.078768730163574,2.256431818008423,-0.5910272002220154
1771681132555043600,6.330043701171875,8.422736167907715,0.7345965504646301,0.42831525206565857
1771681132565400800,6.34040087890625,10.841879844665527,2.1439690589904785,0.727418065071106
1771681132575758000,6.350758056640625,8.757730484008789,1.4021940231323242,1.4835500717163086
1771681132586115300,6.361115234375,10.420742988586426,1.34476637840271,0.5240281820297241
1771681132596483800,6.37148388671875,8.094919204711914,1.5194423198699951,1.2346965074539185
1771681132606829800,6.381829833984375,10.949556350708008,1.4476577043533325,-0.09571290761232376
1771681132617207600,6.39220751953125,9.040083885192871,1.6055840253829956,-0.44027936458587646
1771681132627544000,6.4025439453125,9.975677490234375,0.9068797826766968,0.07178468257188797
1771681132637931300,6.41293115234375,9.736394882202148,2.5148565769195557,0.48095735907554626
1771681132648258600,6.423258544921875,9.281759262084961,1.1820544004440308,0.7752745151519775
1771681132658624300,6.433624267578125,9.722038269042969,1.923829436302185,0.6604190468788147
1771681132668973000,6.44397314453125,9.674181938171387,0.9786644577980042,0.638883650302887
1771681132679348000,6.454347900390625,11.152946472167969,2.210968017578125,-0.004785645287483931
1771681132689687600,6.4646875,8.80798053741455,1.098305583000183,-0.07417750358581543
1771681132700044800,6.475044921875,10.107282638549805,2.201396942138672,0.349352091550827
1771681132710418200,6.485418212890625,8.051848411560059,1.7228323221206665,0.6269195079803467
1771681132720764700,6.4957646484375,10.415956497192383,2.249253273010254,0.016749758273363113
1771681132731142000,6.506141845703125,9.293723106384277,1.2801600694656372,0.8542376756668091
1771681132741488400,6.51648828125,11.722437858581543,1.8400806188583374,0.3326023519039154
1771681132751830800,6.526830810546875,9.379864692687988,1.8496519327163696,0.5958128571510315
1771681132762188000,6.53718798828125,10.566704750061035,1.7491533756256104,0.5623133182525635
1771681132772545300,6.547545166015625,8.779266357421875,1.0648061037063599,0.5335994362831116
1771681132782902500,6.557902587890625,10.001998901367188,2.0793628692626953,-0.24406790733337402
1771681132793259800,6.568259765625,8.80798053741455,1.1198409795761108,0.2967100143432617
1771681132803617000,6.578616943359375,10.473384857177734,2.6009981632232666,-0.3924229145050049
1771681132813974300,6.588974365234375,8.949156761169434,1.1270195245742798,0.22492532432079315
1771681132824331500,6.59933154296875,10.887343406677246,1.9884356260299683,0.4713860750198364
1771681132834688800,6.609688720703125,8.97787094116211,1.6582261323928833,0.9571290612220764
1771681132845046000,6.6200458984375,11.406585693359375,1.8233308792114258,0.17228323221206665
1771681132855403300,6.6304033203125,8.561519622802734,0.698704183101654,0.6675975322723389
1771681132865760500,6.640760498046875,11.184053421020508,1.9381862878799438,-0.07657032459974289
1771681132876117800,6.65111767578125,8.898907661437988,1.31365966796875,0.22492532432079315
1771681132886474800,6.661474853515625,11.145768165588379,2.4406790733337402,0.05024927482008934
1771681132896832000,6.67183203125,8.949156761169434,1.6079767942428589,0.7800601720809937
1771681132907189200,6.682189208984375,11.095519065856934,2.170290231704712,-0.17228323221206665
1771681132917546500,6.69254638671875,8.930013656616211,1.098305583000183,1.1389836072921753
1771681132927903700,6.70290380859375,10.920842170715332,1.8951154947280884,0.605384111404419
1771681132938261000,6.713260986328125,8.693124771118164,1.7922241687774658,0.5288137793540955
1771681132948618200,6.7236181640625,10.53799057006836,1.3639088869094849,0.22492532432079315
1771681132958975500,6.7339755859375,8.666803359985352,1.7180466651916504,0.3038884699344635
1771681132969332700,6.744332763671875,10.961520195007324,2.517249345779419,-0.33738797903060913
1771681132979690000,6.75468994140625,8.817551612854004,1.7563318014144897,0.9643075466156006
1771681132990047200,6.765047119140625,10.279565811157227,1.0456634759902954,0.9786644577980042
1771681133000404500,6.775404541015625,9.399007797241211,1.679761528968811,0.698704183101654
1771681133010761700,6.78576171875,10.449456214904785,2.1104695796966553,-0.6939185857772827
1771681133021119000,6.796118896484375,8.930013656616211,0.48813581466674805,0.02392822690308094
1771681133031476000,6.80647607421875,10.262816429138184,2.3808584213256836,-0.27756741642951965
1771681133041833200,6.816833251953125,9.903892517089844,1.674975872039795,0.7226324677467346
1771681133052190500,6.8271904296875,10.222138404846191,1.852044701576233,0.19621145725250244
1771681133062547700,6.837547607421875,8.34855842590332,0.8949156403541565,0.7824530005455017
1771681133072905000,6.847905029296875,11.906685829162598,3.0652058124542236,0.5431707501411438
1771681133083262200,6.85826220703125,8.63330364227295,1.2658032178878784,1.275374412536621
1771681133093619500,6.868619384765625,11.84447193145752,1.8065811395645142,0.6891329288482666
1771681133103976700,6.878976806640625,8.748159408569336,0.8685946464538574,0.7465606927871704
1771681133114334000,6.889333984375,11.196017265319824,2.682354211807251,0.1746760457754135
1771681133124691200,6.899691162109375,8.310273170471191,1.373480200767517,0.3852444589138031
1771681133135048400,6.91004833984375,11.32522964477539,2.964707374572754,0.26081767678260803
1771681133145405400,6.920405517578125,7.747959613800049,1.1629117727279663,1.0001999139785767
1771681133155762700,6.9307626953125,11.289337158203125,2.1990039348602295,0.3326023519039154
1771681133166120000,6.941119873046875,7.913064479827881,0.8231309652328491,1.007378339767456
1771681133176477200,6.951477294921875,11.538190841674805,2.562713146209717,0.14356936514377594
1771681133186834400,6.96183447265625,8.973084449768066,0.5862415432929993,0.2871387302875519
1771681133197191700,6.972191650390625,10.724631309509277,1.9692929983139038,-0.059820566326379776
1771681133207549000,6.982548828125,9.372686386108398,1.6151553392410278,0.4019941985607147
1771681133217906200,6.99290625,10.305887222290039,2.9694929122924805,-0.07417750358581543
1771681133228263400,7.003263427734375,7.9728851318359375,0.7082754969596863,0.7345965504646301
1771681133238620700,7.01362060546875,11.191231727600098,2.6081767082214355,0.016749758273363113
1771681133248978000,7.02397802734375,8.343772888183594,1.459621787071228,0.6628118753433228
1771681133259335200,7.034335205078125,11.547761917114258,1.5002998113632202,-0.19621145725250244
1771681133269692400,7.0446923828125,8.72901725769043,1.0839486122131348,-0.014356935396790504
1771681133280049700,7.055049560546875,10.813165664672852,2.7110681533813477,-0.5120640397071838
1771681133290407000,7.065406982421875,9.870393753051758,2.0171494483947754,-0.4570291340351105
1771681133300764200,7.07576416015625,9.501898765563965,2.1990039348602295,-0.5647061467170715
1771681133311121400,7.086121337890625,10.059426307678223,1.832902193069458,1.6103696823120117
1771681133321478400,7.096478515625,9.176474571228027,2.179861545562744,1.007378339767456
1771681133331835600,7.106835693359375,10.258030891418457,1.3639088869094849,0.4570291340351105
1771681133342193000,7.11719287109375,8.872586250305176,0.9690931439399719,0.5359922647476196
1771681133352550100,7.127550048828125,11.437692642211914,2.912065267562866,-0.3326023519039154
1771681133362907400,7.137907470703125,9.291330337524414,1.6079767942428589,-0.04546362906694412
1771681133373264600,7.1482646484375,10.770094871520996,2.7349963188171387,0.4259224236011505
1771681133383622000,7.158621826171875,8.271987915039062,1.069591760635376,0.4259224236011505
1771681133393979100,7.168979248046875,10.248459815979004,2.5914268493652344,0.2919243574142456
1771681133404336400,7.17933642578125,8.061419486999512,0.7034898400306702,1.1270195245742798
1771681133414693600,7.189693603515625,9.748359680175781,2.139183521270752,0.31345975399017334
1771681133425051000,7.20005078125,8.784051895141602,1.2370892763137817,-0.32542386651039124
1771681133435408100,7.210408203125,11.01416301727295,1.9884356260299683,-0.6795616149902344
1771681133445765400,7.220765380859375,10.339386940002441,1.6869399547576904,-0.5120640397071838
1771681133456122400,7.231122314453125,10.346565246582031,2.1990039348602295,0.6149554252624512
1771681133466479600,7.241479736328125,9.987641334533691,1.8640087842941284,0.6771687865257263
1771681133476836900,7.2518369140625,9.032905578613281,1.4428720474243164,0.30628129839897156
1771681133487194000,7.262194091796875,10.191031455993652,1.4069796800613403,0.038285162299871445
1771681133497551400,7.27255126953125,9.183652877807617,2.1535403728485107,-0.4450650215148926
1771681133507908600,7.28290869140625,10.322636604309082,2.155933141708374,-0.10049854964017868
1771681133518265900,7.293265869140625,8.420342445373535,1.8448662757873535,0.5742774605751038
1771681133528623000,7.303623046875,10.234102249145508,2.8450660705566406,0.14835500717163086
1771681133538980400,7.31398046875,9.681360244750977,1.0001999139785767,0.7250252366065979
1771681133549337600,7.324337646484375,10.595418930053711,1.8376877307891846,0.2632105052471161
1771681133559694800,7.33469482421875,9.22433090209961,0.48813581466674805,0.6005984544754028
1771681133570052000,7.345052001953125,9.08554744720459,1.7874385118484497,0.5240281820297241
1771681133580409300,7.355409423828125,8.015955924987793,0.397208571434021,1.093519926071167
1771681133590766600,7.3657666015625,8.61894702911377,2.029113531112671,-0.23210379481315613
1771681133601123800,7.376123779296875,8.606983184814453,0.5814558863639832,0.5982056856155396
1771681133611481000,7.386481201171875,9.257830619812012,1.0169496536254883,-0.17706887423992157
1771681133621838300,7.39683837890625,9.621540069580078,0.5072783827781677,0.4977070987224579
1771681133632195600,7.407195556640625,9.908679008483887,0.13160525262355804,0.8925228714942932
1771681133642552600,7.417552490234375,9.67657470703125,0.9212366938591003,1.545763373374939
1771681133652909800,7.427909912109375,9.829715728759766,0.5264210104942322,0.9906286001205444
1771681133663267000,7.43826708984375,9.722038269042969,0.05024927482008934,0.6699903607368469
1771681133673624300,7.448624267578125,9.449256896972656,-0.916451096534729,0.1986042857170105
1771681133683981600,7.458981689453125,9.884750366210938,1.0001999139785767,-0.3900300860404968
1771681133694338800,7.4693388671875,10.236495018005371,0.009571290574967861,-0.23449662327766418
1771681133704696000,7.479696044921875,9.463613510131836,-0.5288137793540955,-0.02871387079358101
1771681133715053300,7.49005322265625,10.066604614257812,-0.519242525100708,0.380458801984787
1771681133725410600,7.50041064453125,10.15035343170166,0.9547362327575684,0.7345965504646301
1771681133735767800,7.510767822265625,9.956535339355469,-0.05024927482008934,0.6939185857772827
1771681133746125000,7.521125,9.109476089477539,-0.28235307335853577,0.8279166221618652
1771681133756482300,7.531482421875,10.202995300292969,-0.15074782073497772,0.05503492057323456
1771681133766839600,7.541839599609375,10.559526443481445,0.059820566326379776,-0.42352959513664246
1771681133777196800,7.55219677734375,10.037891387939453,-0.380458801984787,-0.016749758273363113
1771681133787554000,7.562553955078125,10.107282638549805,0.07657032459974289,0.363709032535553
1771681133797911300,7.572911376953125,9.951749801635742,0.794417142868042,0.5790630578994751
1771681133808268500,7.5832685546875,10.581061363220215,-0.2632105052471161,0.1818545162677765
1771681133818625800,7.593625732421875,10.358529090881348,-0.1052841991186142,-0.33499518036842346
1771681133828982800,7.603982666015625,11.145768165588379,1.0097711086273193,-0.035892341285943985
1771681133839340000,7.614340087890625,10.487741470336914,-0.6939185857772827,0.4618147611618042
1771681133849697300,7.624697265625,9.865608215332031,0.22492532432079315,1.0600204467773438
1771681133860054500,7.635054443359375,10.72702407836914,-0.10289137065410614,0.9954141974449158
1771681133870411800,7.645411865234375,10.985448837280273,0.16031911969184875,0.7034898400306702
1771681133880769000,7.65576904296875,10.04267692565918,-0.5168496966362,0.4977070987224579
1771681133891126300,7.666126220703125,11.60279655456543,0.02392822690308094,0.36610186100006104
1771681133901483500,7.6764833984375,9.76989459991455,-0.05742774158716202,0.4977070987224579
1771681133911840800,7.6868408203125,10.494919776916504,-0.08853443711996078,0.009571290574967861
1771681133922198000,7.697197998046875,10.088140487670898,-0.06939185410737991,0.5048855543136597
1771681133932555300,7.70755517578125,10.341779708862305,0.8949156403541565,-0.44027936458587646
1771681133942912500,7.71791259765625,10.504491806030273,-0.2967100143432617,-0.3397808074951172
1771681133953269800,7.728269775390625,9.822537422180176,-0.12442677468061447,0.1579262912273407
1771681133963627000,7.738626953125,10.791629791259766,0.7704889178276062,0.6436693072319031
1771681133973984300,7.748984375,9.600004196166992,0.363709032535553,0.5024927258491516
1771681133984341500,7.759341552734375,9.542576789855957,1.0432707071304321,0.6317051649093628
1771681133994698800,7.76969873046875,8.85344409942627,-0.7106683254241943,0.26560330390930176
1771681134005056000,7.780055908203125,10.521241188049316,0.6317051649093628,0.32542386651039124
1771681134015413000,7.7904130859375,9.317651748657227,0.42831525206565857,0.882951557636261
1771681134025770200,7.800770263671875,10.724631309509277,1.0863415002822876,0.6484549641609192
1771681134036127500,7.81112744140625,7.872386455535889,-0.5024927258491516,0.5910272002220154
1771681134046484700,7.821484619140625,10.1216402053833,0.6317051649093628,0.014356935396790504
1771681134056842000,7.831842041015625,8.791230201721191,0.9116654396057129,0.11485548317432404
1771681134067199200,7.84219921875,9.839286804199219,-0.15314064919948578,0.6484549641609192
1771681134077556500,7.852556396484375,8.97787094116211,0.42352959513664246,0.5264210104942322
1771681134087913700,7.862913818359375,10.212567329406738,1.0648061037063599,0.8039883971214294
1771681134098271000,7.87327099609375,9.671789169311523,0.4785645306110382,0.8039883971214294
1771681134108628200,7.883628173828125,9.621540069580078,-0.23449662327766418,0.576670229434967
1771681134118985500,7.8939853515625,10.51645565032959,0.885344386100769,0.23688943684101105
1771681134129342700,7.9043427734375,10.272387504577637,0.5527420043945312,-0.16031911969184875
1771681134139700000,7.914699951171875,10.068997383117676,-0.3445664644241333,0.4450650215148926
1771681134150057200,7.92505712890625,10.152746200561523,0.885344386100769,0.12681959569454193
1771681134160414500,7.93541455078125,9.21715259552002,0.004785645287483931,1.196411371231079
1771681134170771700,7.945771728515625,9.506684303283691,0.5288137793540955,0.885344386100769
1771681134181129000,7.95612890625,9.370293617248535,0.035892341285943985,0.275174617767334
1771681134191486200,7.966486328125,10.351350784301758,0.9020941257476807,-0.2512463629245758
1771681134201843200,7.97684326171875,9.93260669708252,0.1052841991186142,0.2847459018230438
1771681134212200400,7.987200439453125,9.305686950683594,0.27038896083831787,0.7393822073936462
1771681134222557700,7.9975576171875,9.56889820098877,0.5958128571510315,0.44745782017707825
1771681134232915000,8.0079150390625,9.743574142456055,0.41156548261642456,0.3445664644241333
1771681134243272200,8.018272216796875,9.477970123291016,1.0336993932724,-0.10289137065410614
1771681134253629400,8.02862939453125,9.69093132019043,0.04546362906694412,-0.14356936514377594
1771681134263986700,8.038986572265625,8.72183895111084,-0.2105683982372284,0.9523434042930603
1771681134274344000,8.049343994140624,9.791430473327637,1.7994025945663452,0.13878370821475983
1771681134284701200,8.059701171875,9.542576789855957,-0.2225325107574463,0.17228323221206665
1771681134295058400,8.070058349609376,9.193224906921387,-0.3517449200153351,0.06699903309345245
1771681134305415700,8.080415771484375,9.772287368774414,0.7058826684951782,0.5718846321105957
1771681134315773000,8.09077294921875,11.229516983032227,0.6532405614852905,0.10289137065410614
1771681134326130200,8.101130126953125,9.109476089477539,-0.18424734473228455,0.5024927258491516
1771681134336487400,8.1114873046875,10.511670112609863,0.09571290761232376,0.3756731450557709
1771681134346844700,8.1218447265625,10.631311416625977,0.33738797903060913,0.5096712112426758
1771681134357202000,8.132201904296876,9.856036186218262,0.12203395366668701,0.035892341285943985
1771681134367559200,8.14255908203125,10.047462463378906,-0.2991028428077698,0.4426721930503845
1771681134377916400,8.15291650390625,9.540184020996094,0.5623133182525635,0.9427721500396729
1771681134388273700,8.163273681640625,9.382257461547852,-0.17706887423992157,0.4378865361213684
1771681134398630700,8.173630615234375,10.231709480285645,0.10767702013254166,-0.13160525262355804
1771681134408988000,8.18398779296875,10.87298583984375,0.39481574296951294,-0.2584248483181
1771681134419345200,8.19434521484375,10.296316146850586,-0.12681959569454193,0.9212366938591003
1771681134429702400,8.204702392578126,10.009177207946777,0.7130611538887024,0.6029912829399109
1771681134440059600,8.2150595703125,9.44447135925293,-0.1698904037475586,0.849452018737793
1771681134450417000,8.2254169921875,9.379864692687988,1.0767701864242554,-0.3900300860404968
1771681134460774100,8.235774169921875,10.578668594360352,0.3684946894645691,0.038285162299871445
1771681134471131400,8.24613134765625,10.040284156799316,0.0526420995593071,0.09571290761232376
1771681134481488600,8.256488525390624,9.556933403015137,-0.031106693670153618,0.9451649188995361
1771681134491846000,8.266845947265624,10.810772895812988,1.4476577043533325,0.8398807644844055
1771681134502203100,8.277203125,9.152546882629395,-0.6939185857772827,1.0360921621322632
1771681134512560400,8.287560302734375,9.896714210510254,-0.4426721930503845,0.5335994362831116
1771681134522917600,8.297917724609375,10.200602531433105,1.4620146751403809,0.13160525262355804
1771681134533275000,8.30827490234375,10.116853713989258,0.35892340540885925,0.47617170214653015
1771681134543632100,8.318632080078125,10.159924507141113,-0.2991028428077698,0.6556333899497986
1771681134553989400,8.3289892578125,9.980463027954102,0.22971096634864807,0.5240281820297241
1771681134564346600,8.3393466796875,11.12183952331543,0.06939185410737991,0.22013968229293823
1771681134574703900,8.349703857421876,9.681360244750977,-0.11724831163883209,0.6963114142417908
1771681134585061000,8.36006103515625,11.289337158203125,0.698704183101654,-0.31824541091918945
1771681134595418400,8.37041845703125,9.714859962463379,-0.37088751792907715,0.031106693670153618
1771681134605775600,8.380775634765625,9.57607650756836,0.45942193269729614,0.15074782073497772
1771681134616132900,8.3911328125,9.640682220458984,0.40677985548973083,0.5814558863639832
1771681134626490000,8.401489990234374,9.640682220458984,0.5910272002220154,0.2512463629245758
1771681134636847400,8.411847412109376,9.482755661010742,-0.9188438653945923,0.48095735907554626
1771681134647204400,8.422204345703125,10.159924507141113,1.526620864868164,-0.4163511395454407
1771681134657561600,8.4325615234375,10.162318229675293,0.6532405614852905,0.05503492057323456
1771681134667918800,8.4429189453125,9.482755661010742,0.16749759018421173,-0.24646073579788208
1771681134678276000,8.453276123046875,9.743574142456055,0.7489534616470337,0.7896314859390259
1771681134688633300,8.46363330078125,10.037891387939453,0.17946170270442963,0.5694918036460876
1771681134698990600,8.473990478515624,8.372486114501953,0.10767702013254166,0.09810572862625122
1771681134709347800,8.484347900390626,9.757930755615234,0.8303094506263733,-0.1818545162677765
1771681134719705000,8.494705078125,9.34157943725586,0.42352959513664246,0.8279166221618652
1771681134730062300,8.505062255859375,9.585647583007812,0.11246266216039658,-0.11964113265275955
1771681134740419600,8.515419677734375,9.298508644104004,0.1459621787071228,0.22013968229293823
1771681134750776800,8.52577685546875,10.279565811157227,0.9906286001205444,0.8733802437782288
1771681134761134000,8.536134033203124,9.990034103393555,0.2967100143432617,0.5359922647476196
1771681134771491300,8.5464912109375,10.219745635986328,-0.5000999569892883,-0.059820566326379776
1771681134781848600,8.5568486328125,10.037891387939453,0.5359922647476196,0.5862415432929993
1771681134792205800,8.567205810546875,10.526026725769043,1.0001999139785767,0.5838487148284912
1771681134802563000,8.57756298828125,9.597611427307129,-0.18424734473228455,0.5264210104942322
1771681134812920300,8.58792041015625,9.468399047851562,-0.45942193269729614,-0.2847459018230438
1771681134823277600,8.598277587890625,10.370492935180664,1.7611174583435059,0.5479564070701599
1771681134833634800,8.608634765625,9.834501266479492,0,0.46420758962631226
1771681134843991800,8.61899169921875,9.119047164916992,-0.8207381963729858,0.5335994362831116
1771681134854349300,8.629349365234376,11.167303085327148,0.7561319470405579,0.4043870270252228
1771681134864706300,8.639706298828125,10.784451484680176,0.33020952343940735,0.605384111404419
1771681134875063600,8.6500634765625,10.152746200561523,-0.37806597352027893,0.3732803463935852
1771681134885420800,8.6604208984375,10.473384857177734,0.8997012972831726,0.1698904037475586
1771681134895778000,8.670778076171874,10.009177207946777,0.8422735929489136,0.3852444589138031
1771681134906135300,8.68113525390625,8.60459041595459,0.004785645287483931,0.3206382393836975
1771681134916492500,8.691492431640626,9.20279598236084,0.30628129839897156,0.28953152894973755
1771681134926849800,8.701849853515625,9.750752449035645,0.5623133182525635,0.41156548261642456
1771681134937207000,8.71220703125,9.059226989746094,0.22492532432079315,0.349352091550827
1771681134947564300,8.722564208984375,10.332208633422852,0.02632104977965355,0.4259224236011505
1771681134957921500,8.732921630859375,9.80100154876709,0.9188438653945923,0.21296121180057526
1771681134968278800,8.74327880859375,9.779465675354004,-0.28953152894973755,0.6197410821914673
1771681134978636000,8.753635986328124,9.389435768127441,0.04307080805301666,0.7800601720809937
1771681134988993300,8.7639931640625,10.415956497192383,0.5886343717575073,0.23688943684101105
1771681134999350500,8.7743505859375,9.779465675354004,0.35892340540885925,0.17228323221206665
1771681135009707800,8.784707763671875,9.542576789855957,0.16510476171970367,0.20338992774486542
1771681135020065000,8.79506494140625,9.832108497619629,0.16271193325519562,0.20338992774486542
1771681135030422300,8.80542236328125,9.879964828491211,0.17228323221206665,0.24885354936122894
1771681135040779500,8.815779541015624,9.667003631591797,-0.21774685382843018,0.45942193269729614
1771681135051136800,8.82613671875,10.277173042297363,0.851844847202301,-0.08853443711996078
1771681135061494000,8.836493896484376,10.329814910888672,0.3565305769443512,0.7728816866874695
1771681135071851300,8.846851318359375,9.446864128112793,-0.8063812255859375,0.3900300860404968
1771681135082208300,8.857208251953125,9.580862045288086,0.9308080077171326,1.179661512374878
1771681135092565500,8.8675654296875,10.849058151245117,0.30149564146995544,-0.007178467698395252
1771681135102922800,8.8779228515625,9.817750930786133,0.08614161610603333,0.11006984114646912
1771681135113280000,8.888280029296874,10.29870891571045,0.5647061467170715,0.031106693670153618
1771681135123637200,8.89863720703125,10.652846336364746,0.5264210104942322,0.3517449200153351
1771681135133994500,8.908994384765625,9.379864692687988,0.44027936458587646,0.20338992774486542
1771681135144351700,8.919351806640625,10.226923942565918,-0.48813581466674805,0.4713860750198364
1771681135154709000,8.929708984375,8.334200859069824,0.3086741268634796,0.7178468108177185
1771681135165066200,8.940066162109375,10.317851066589355,0.4307080805301666,1.155733346939087
1771681135175423500,8.950423583984374,9.006584167480469,-0.3278166949748993,0.5000999569892883
1771681135185780700,8.96078076171875,10.796415328979492,0.11964113265275955,0.3565305769443512
1771681135196138000,8.971137939453126,10.650453567504883,0.34217363595962524,0.09092725813388824
1771681135206495200,8.9814951171875,9.628718376159668,0.2105683982372284,0.36610186100006104
1771681135216852500,8.9918525390625,10.109675407409668,0.4259224236011505,0.11246266216039658
1771681135227209700,9.002209716796875,9.332008361816406,0.28235307335853577,0.275174617767334
1771681135237567000,9.01256689453125,10.12881851196289,0.5814558863639832,0.4091726839542389
1771681135247924200,9.02292431640625,9.389435768127441,0.01196411345154047,0.2727817893028259
1771681135258281500,9.033281494140626,10.805987358093262,0.2512463629245758,0.19142581522464752
1771681135268638700,9.043638671875,10.066604614257812,0.22971096634864807,-0.1866401731967926
1771681135278996000,9.053995849609375,10.657631874084473,0.16749759018421173,0.22013968229293823
1771681135289353200,9.064353271484375,9.915857315063477,-0.27756741642951965,0.6699903607368469
1771681135299710500,9.07471044921875,10.336994171142578,0.3517449200153351,-0.1746760457754135
1771681135310067700,9.085067626953125,9.080761909484863,0.9284151792526245,0.17706887423992157
1771681135320425000,9.095425048828124,9.753145217895508,0.2273181527853012,0.21774685382843018
1771681135330782200,9.1057822265625,8.863015174865723,0.12442677468061447,0.46899324655532837
1771681135341139500,9.116139404296876,10.554740905761719,0.2967100143432617,0.20578274130821228
1771681135351496700,9.12649658203125,10.313065528869629,0.9260223507881165,0.3445664644241333
1771681135361854000,9.13685400390625,9.863214492797852,-0.16031911969184875,0.27038896083831787
1771681135372211200,9.147211181640625,9.437292098999023,0.062213387340307236,0.9188438653945923
1771681135382568400,9.157568359375,10.095318794250488,0.5144568681716919,0.7154539823532104
1771681135392925400,9.167925537109374,10.179067611694336,-0.17706887423992157,0.49292147159576416
1771681135403282700,9.17828271484375,9.822537422180176,1.2131611108779907,0.20578274130821228
1771681135413640000,9.188639892578125,9.549755096435547,-1.0480563640594482,1.5002998113632202
1771681135423997200,9.1989970703125,9.7938232421875,1.2705888748168945,-0.1746760457754135
1771681135434354400,9.2093544921875,8.93958568572998,0.363709032535553,0.7872386574745178
1771681135444711700,9.219711669921875,10.363314628601074,0.3326023519039154,0.28235307335853577
1771681135455069000,9.23006884765625,9.265008926391602,0.3158525824546814,0.5240281820297241
1771681135465426200,9.24042626953125,11.045269012451172,0.4307080805301666,0.23449662327766418
1771681135475783400,9.250783447265626,9.255437850952148,0.31106695532798767,0.5886343717575073
1771681135486140700,9.261140625,10.246066093444824,-0.10289137065410614,0.18424734473228455
1771681135496498000,9.271497802734375,9.166903495788574,0.8063812255859375,0.46899324655532837
1771681135506855200,9.281855224609375,9.875179290771484,-0.1459621787071228,0.040677983313798904
1771681135517212400,9.29221240234375,8.96112060546875,-0.38763725757598877,-0.14117653667926788
1771681135527569700,9.302569580078124,10.061819076538086,0.9020941257476807,-0.007178467698395252
1771681135537927000,9.312927001953126,10.030712127685547,-0.4307080805301666,0.13878370821475983
1771681135548284200,9.3232841796875,9.128618240356445,-0.43549370765686035,0.11724831163883209
1771681135558641400,9.333641357421875,9.81535816192627,0.1818545162677765,1.062413215637207
1771681135568998700,9.34399853515625,10.29153060913086,0.031106693670153618,0.8590233325958252
1771681135579356000,9.35435595703125,9.796216011047363,-0.46899324655532837,0.9619147181510925
1771681135589713200,9.364713134765625,10.217352867126465,-0.24406790733337402,0.05024927482008934
1771681135600070400,9.3750703125,10.456634521484375,-0.04546362906694412,0.08374879509210587
1771681135610427600,9.385427734375,9.123832702636719,-0.18903298676013947,0.41874396800994873
1771681135620785000,9.395784912109375,10.53081226348877,0.03349951654672623,0.5312066078186035
1771681135631142100,9.40614208984375,8.93958568572998,-0.7082754969596863,0.7178468108177185
1771681135641499400,9.41649951171875,10.164710998535156,-0.4211367964744568,0.9236295223236084
1771681135651856400,9.4268564453125,9.65503978729248,-0.31824541091918945,0.16031911969184875
1771681135662213600,9.437213623046874,10.456634521484375,-0.1818545162677765,0.3565305769443512
1771681135672571000,9.44757080078125,8.80798053741455,-1.3663017749786377,1.2083754539489746
1771681135682928000,9.45792822265625,10.695917129516602,0.1052841991186142,1.7228323221206665
1771681135693285400,9.468285400390625,9.09990406036377,-0.6819544434547424,0.7489534616470337
1771681135703642600,9.478642578125,9.463613510131836,-0.14835500717163086,0.5455635786056519
1771681135714000000,9.488999755859375,9.781859397888184,-1.2897313833236694,0.14835500717163086
1771681135724357000,9.499357177734375,9.949356079101562,-0.21296121180057526,0.6293123364448547
1771681135734714400,9.50971435546875,9.956535339355469,-1.8855443000793457,0.8662018179893494
1771681135745071600,9.520071533203126,9.69093132019043,0.13639089465141296,0.6317051649093628
1771681135755428900,9.530428955078126,10.590633392333984,-1.4476577043533325,0.6364908218383789
1771681135765786000,9.5407861328125,9.437292098999023,-1.0408778190612793,0.6484549641609192
1771681135776143400,9.551143310546875,9.07119083404541,-0.7513462901115417,0.6556333899497986
1771681135786500600,9.56150048828125,10.667202949523926,-1.0480563640594482,0.916451096534729
1771681135796857900,9.57185791015625,8.757730484008789,-1.428515076637268,1.4117653369903564
1771681135807215000,9.582215087890624,10.954341888427734,-1.332802176475525,0.9954141974449158
1771681135817572400,9.592572265625,10.179067611694336,-0.9403793215751648,0.4259224236011505
1771681135827929600,9.6029296875,10.236495018005371,-1.5194423198699951,0.6293123364448547
1771681135838286800,9.613286865234375,9.937392234802246,-1.3830515146255493,0.1339980661869049
1771681135848644000,9.62364404296875,9.80100154876709,-0.5479564070701599,0.1818545162677765
1771681135859001300,9.63400146484375,9.92542839050293,-2.0171494483947754,0.672383189201355
1771681135869358600,9.644358642578124,9.212367057800293,-1.25144624710083,1.0504491329193115
1771681135879715800,9.6547158203125,10.712666511535645,-1.0719845294952393,0.7226324677467346
1771681135890073000,9.665072998046876,9.968499183654785,-2.038684844970703,0.4139583110809326
1771681135900430300,9.675430419921875,9.966106414794922,-2.014756679534912,0.3206382393836975
1771681135910787600,9.68578759765625,11.219944953918457,-1.0528420209884644,0.5479564070701599
1771681135921144800,9.696144775390625,9.824930191040039,-2.227717876434326,0.7561319470405579
1771681135931502000,9.706502197265625,10.243673324584961,-2.0506489276885986,1.100698471069336
1771681135941859300,9.716859375,10.164710998535156,-1.6701902151107788,0.6436693072319031
1771681135952216600,9.727216552734374,9.980463027954102,-1.887937068939209,0.5599204897880554
1771681135962573600,9.737573486328126,10.222138404846191,-2.3234307765960693,-0.16031911969184875
1771681135972930800,9.747930908203125,9.748359680175781,-1.7419748306274414,0.8303094506263733
1771681135983288000,9.7582880859375,10.695917129516602,-1.6007983684539795,0.4546363055706024
1771681135993645300,9.768645263671875,9.990034103393555,-1.2083754539489746,0.27756741642951965
1771681136004002600,9.77900244140625,11.10030460357666,-1.9980069398880005,0.7154539823532104
1771681136014359800,9.78935986328125,9.891928672790527,-2.6225335597991943,0.8733802437782288
1771681136024717000,9.799717041015626,9.7938232421875,-2.4670002460479736,0.5216353535652161
1771681136035074300,9.81007421875,10.784451484680176,-2.2229323387145996,-0.13878370821475983
1771681136045431600,9.820431640625,10.037891387939453,-2.7014968395233154,0.4713860750198364
1771681136055788800,9.830788818359375,10.04985523223877,-2.5842485427856445,0.4019941985607147
1771681136066146000,9.84114599609375,9.308079719543457,-1.9645073413848877,0.16749759018421173
1771681136076503300,9.85150341796875,12.019147872924805,-2.2636101245880127,0.2512463629245758
1771681136086860500,9.861860595703124,9.286544799804688,-1.770688772201538,0.13878370821475983
1771681136097217800,9.8722177734375,10.456634521484375,-2.6727828979492188,0.9355936646461487
1771681136107575000,9.882574951171875,9.760323524475098,-1.3591232299804688,1.0289137363433838
1771681136117932300,9.892932373046875,10.28195858001709,-3.0340991020202637,0.8303094506263733
1771681136128289500,9.90328955078125,9.949356079101562,-2.0578274726867676,0.11246266216039658
1771681136138646800,9.913646728515625,10.856236457824707,-1.6773686408996582,0.13878370821475983
1771681136149004000,9.924004150390624,9.425328254699707,-2.6368906497955322,0.040677983313798904
1771681136159361300,9.934361328125,9.638289451599121,-2.5052852630615234,0.4977070987224579
1771681136169718500,9.944718505859376,9.753145217895508,-1.6821542978286743,0.6245267391204834
1771681136180075800,9.95507568359375,9.734002113342285,-2.045863389968872,0.48813581466674805
1771681136190433000,9.96543310546875,9.229117393493652,-2.6249263286590576,-0.24885354936122894
1771681136200790300,9.975790283203125,9.906285285949707,-1.8376877307891846,0.4331009089946747
1771681136211147500,9.9861474609375,10.801201820373535,-2.328216314315796,0.2679961323738098
1771681136221504800,9.9965048828125,9.58325481414795,-2.416750907897949,0.42831525206565857
1771681136231862000,10.006862060546876,10.710273742675781,-2.352144718170166,0.2512463629245758
1771681136242219300,10.01721923828125,9.674181938171387,-2.438286304473877,0.19142581522464752
1771681136252576500,10.027576416015625,9.872786521911621,-2.8905298709869385,-0.14117653667926788
1771681136262933800,10.037933837890625,9.647860527038574,-1.495514154434204,-0.12681959569454193
1771681136273290800,10.048290771484375,9.379864692687988,-2.8761727809906006,0.11964113265275955
1771681136283648000,10.05864794921875,9.198010444641113,-2.6297121047973633,0.6221339106559753
1771681136294005200,10.069005126953124,10.023533821105957,-2.65842604637146,0.7561319470405579
1771681136304362500,10.079362548828126,9.657432556152344,-2.65842604637146,0.4259224236011505
1771681136314719700,10.0897197265625,10.26042366027832,-2.6321048736572266,0.30149564146995544
1771681136325077000,10.100076904296875,10.212567329406738,-2.5986053943634033,0.349352091550827
1771681136335434200,10.110434326171875,10.849058151245117,-2.68953275680542,0.1818545162677765
1771681136345791500,10.12079150390625,9.805787086486816,-2.902493953704834,0.7537391185760498
1771681136356148700,10.131148681640624,10.133604049682617,-2.720639228820801,0.7154539823532104
1771681136366506000,10.141506103515624,9.719645500183105,-2.447857618331909,0.5264210104942322
1771681136376863200,10.15186328125,9.93978500366211,-3.139383316040039,0.519242525100708
1771681136387220500,10.162220458984375,9.248259544372559,-2.2755744457244873,-0.04785645380616188
1771681136397577700,10.17257763671875,10.06421184539795,-2.7828526496887207,0.4091726839542389
1771681136407935000,10.18293505859375,9.56889820098877,-2.9072794914245605,0.9810572862625122
1771681136418292200,10.193292236328125,10.210174560546875,-2.823530673980713,0.9044869542121887
1771681136428649500,10.2036494140625,9.554540634155273,-2.919243574142456,0.8781659007072449
1771681136439006700,10.2140068359375,10.415956497192383,-3.2374889850616455,0.5383850932121277
1771681136449364000,10.224364013671876,9.257830619812012,-2.5914268493652344,0.24646073579788208
1771681136459721200,10.23472119140625,10.64088249206543,-3.0723843574523926,0.1746760457754135
1771681136470078500,10.245078369140625,8.609375953674316,-2.579462766647339,0.8757730722427368
1771681136480435700,10.255435791015625,10.145567893981934,-2.5674986839294434,0.5575276613235474
1771681136490793000,10.26579296875,8.891729354858398,-3.2446675300598145,0.35892340540885925
1771681136501150200,10.276150146484374,9.997213363647461,-3.7328033447265625,0.7130611538887024
1771681136511507500,10.286507568359376,9.55214786529541,-3.0891339778900146,0.09810572862625122
1771681136521864700,10.29686474609375,10.554740905761719,-2.610569477081299,-0.17228323221206665
1771681136532222000,10.307221923828125,9.602396965026855,-3.4648072719573975,0.0023928226437419653
1771681136542579200,10.3175791015625,10.286744117736816,-3.1130621433258057,0.15074782073497772
1771681136552936400,10.3279365234375,10.959127426147461,-3.10109806060791,0.45224347710609436
1771681136563293700,10.338293701171875,10.372885704040527,-3.1417760848999023,0.05503492057323456
1771681136573651000,10.34865087890625,10.612168312072754,-3.2374889850616455,-0.23688943684101105
1771681136584008200,10.35900830078125,9.992427825927734,-3.153740167617798,0.05742774158716202
1771681136594365200,10.369365234375,10.102497100830078,-3.187239646911621,0.08853443711996078
1771681136604722400,10.379722412109375,9.879964828491211,-3.531806230545044,0.6005984544754028
1771681136615079700,10.39007958984375,10.059426307678223,-3.390629768371582,0.5335994362831116
1771681136625437000,10.40043701171875,9.674181938171387,-2.857030153274536,0.3086741268634796
1771681136635794200,10.410794189453124,10.102497100830078,-3.3786656856536865,0.5647061467170715
1771681136646151400,10.4211513671875,10.01156997680664,-3.3379876613616943,-0.3756731450557709
1771681136656508700,10.4315087890625,10.877771377563477,-3.3547372817993164,-0.4139583110809326
1771681136666866000,10.441865966796875,10.76530933380127,-3.2590243816375732,-0.2392822653055191
1771681136677223200,10.45222314453125,9.992427825927734,-3.7974095344543457,0.8279166221618652
1771681136687580400,10.462580322265625,9.712467193603516,-3.105883836746216,0.8422735929489136
1771681136697937700,10.472937744140625,9.999606132507324,-2.8905298709869385,0.5144568681716919
1771681136708295000,10.483294921875,9.430113792419434,-3.3619158267974854,-0.3206382393836975
1771681136718652200,10.493652099609376,10.420742988586426,-3.3020951747894287,-0.4259224236011505
1771681136729009400,10.504009521484376,9.540184020996094,-2.895315408706665,-0.07896314561367035
1771681136739366700,10.51436669921875,11.045269012451172,-3.5820555686950684,0.0023928226437419653
1771681136749724000,10.524723876953125,9.628718376159668,-3.5341989994049072,0.38763725757598877
1771681136760081200,10.5350810546875,10.841879844665527,-3.6777684688568115,0.27756741642951965
1771681136770438400,10.5454384765625,9.791430473327637,-2.555534601211548,0.3158525824546814
1771681136780795600,10.555795654296874,9.920642852783203,-3.5030922889709473,0.17228323221206665
1771681136791153000,10.56615283203125,9.523433685302734,-3.311666488647461,0.2392822653055191
1771681136801510100,10.57651025390625,9.415757179260254,-3.3092737197875977,0.36610186100006104
1771681136811867400,10.586867431640625,10.212567329406738,-2.902493953704834,0.4977070987224579
1771681136822224600,10.597224609375,9.774680137634277,-3.7016966342926025,0.5599204897880554
1771681136832582000,10.607581787109375,10.494919776916504,-2.63449764251709,0.25363919138908386
1771681136842939100,10.617939208984374,9.408578872680664,-3.0556344985961914,0.35892340540885925
1771681136853296400,10.62829638671875,9.8871431350708,-2.9288148880004883,-0.2153540402650833
1771681136863653600,10.638653564453126,10.164710998535156,-3.3332018852233887,0.09092725813388824
1771681136874011000,10.649010986328125,10.53081226348877,-3.1896326541900635,0.1746760457754135
1771681136884368100,10.6593681640625,9.80100154876709,-3.0412776470184326,1.0959128141403198
1771681136894725400,10.669725341796875,10.375279426574707,-3.0723843574523926,0.6652047038078308
1771681136905082400,10.680082275390625,8.688339233398438,-3.589233875274658,0.45942193269729614
1771681136915439600,10.690439697265624,10.703095436096191,-2.8905298709869385,0.37806597352027893
1771681136925796900,10.700796875,9.743574142456055,-2.833101987838745,-0.09810572862625122
1771681136936154000,10.711154052734376,10.939985275268555,-3.4002010822296143,0.48574298620224
1771681136946511400,10.721511474609375,10.152746200561523,-4.0319061279296875,0.1866401731967926
1771681136956868600,10.73186865234375,11.052447319030762,-2.778067111968994,0.6460621356964111
1771681136967225900,10.742225830078125,10.86580753326416,-3.713660717010498,0.4043870270252228
1771681136977583000,10.7525830078125,10.992627143859863,-3.4097721576690674,0.019142581149935722
1771681136987940400,10.7629404296875,10.411170959472656,-2.878565549850464,-0.3517449200153351
1771681136998297600,10.773297607421876,11.09073257446289,-3.4193434715270996,-0.059820566326379776
1771681137008654800,10.78365478515625,9.719645500183105,-2.7182464599609375,0.20099709928035736
1771681137019012000,10.79401220703125,10.315458297729492,-3.294916868209839,0.34695929288864136
1771681137029369300,10.804369384765625,9.336793899536133,-2.7349963188171387,0.4163511395454407
1771681137039726600,10.8147265625,10.315458297729492,-2.9001009464263916,0.30628129839897156
1771681137050083800,10.825083740234374,9.882357597351074,-2.7038896083831787,0.12442677468061447
1771681137060441000,10.835441162109374,10.403992652893066,-2.7732813358306885,-0.4331009089946747
1771681137070798300,10.84579833984375,9.590433120727539,-2.524427890777588,0.4307080805301666
1771681137081155600,10.856155517578125,10.107282638549805,-2.895315408706665,0
1771681137091512800,10.866512939453125,9.351150512695312,-2.517249345779419,1.069591760635376
1771681137101870000,10.8768701171875,10.126425743103027,-2.5698914527893066,0.47617170214653015
1771681137112227300,10.887227294921875,9.008976936340332,-2.421536445617676,0.2919243574142456
1771681137122584600,10.89758447265625,9.755537986755371,-2.3330020904541016,-0.24646073579788208
1771681137132941800,10.90794189453125,9.17886734008789,-1.94297194480896,0.20338992774486542
1771681137143299000,10.918299072265626,10.396814346313477,-2.586641311645508,-0.09571290761232376
1771681137153656300,10.92865625,9.963713645935059,-2.1607189178466797,0.3397808074951172
1771681137164013600,10.939013671875,10.593026161193848,-2.455035924911499,0.519242525100708
1771681137174370800,10.949370849609375,9.305686950683594,-2.282752752304077,0.37806597352027893
1771681137184728000,10.95972802734375,10.140782356262207,-2.5292134284973145,0.36610186100006104
1771681137195085300,10.970085205078124,9.4061861038208,-1.588834285736084,-0.20338992774486542
1771681137205442600,10.980442626953124,10.576275825500488,-2.59621262550354,0.035892341285943985
1771681137215799800,10.9907998046875,9.135796546936035,-2.0243279933929443,0.11724831163883209
1771681137226156800,11.00115673828125,10.418350219726562,-2.304288148880005,0.6867401003837585
1771681137236514000,11.01151416015625,9.238688468933105,-2.416750907897949,0.41874396800994873
1771681137246871300,11.021871337890625,10.427921295166016,-1.7515461444854736,0.2560320198535919
1771681137257228500,11.032228515625,10.183853149414062,-2.56510591506958,-0.12203395366668701
1771681137267585800,11.042585693359374,9.913464546203613,-1.7994025945663452,0.23688943684101105
1771681137277943000,11.052943115234376,10.021141052246094,-2.7014968395233154,0.29431718587875366
1771681137288300300,11.06330029296875,10.346565246582031,-1.6941183805465698,0.5623133182525635
1771681137298657500,11.073657470703125,10.250852584838867,-2.1272194385528564,0.5383850932121277
1771681137309014800,11.084014892578125,10.195816993713379,-1.6941183805465698,0.46420758962631226
1771681137319372000,11.0943720703125,10.444670677185059,-2.359323024749756,0.2105683982372284
1771681137329729300,11.104729248046874,9.863214492797852,-1.8855443000793457,0.016749758273363113
1771681137340086500,11.11508642578125,10.50209903717041,-1.8376877307891846,0.4378865361213684
1771681137350443800,11.12544384765625,9.317651748657227,-1.7874385118484497,0.3565305769443512
1771681137360801000,11.135801025390625,9.913464546203613,-2.0578274726867676,0.7896314859390259
1771681137371158300,11.146158203125,10.207781791687012,-2.084148406982422,0.7561319470405579
1771681137381515500,11.156515625,10.581061363220215,-1.5170495510101318,0.3684946894645691
1771681137391872800,11.166872802734375,10.028319358825684,-1.7874385118484497,0.10767702013254166
1771681137402230000,11.17722998046875,9.930213928222656,-1.6606189012527466,-0.31106695532798767
1771681137412587300,11.187587158203126,9.915857315063477,-1.7060825824737549,0.05024927482008934
1771681137422944500,11.197944580078126,9.647860527038574,-1.7994025945663452,0.2967100143432617
1771681137433301800,11.2083017578125,9.69093132019043,-1.435693621635437,0.4498506486415863
1771681137443659000,11.218658935546875,10.01156997680664,-2.014756679534912,0.2632105052471161
1771681137454016300,11.229016357421875,9.631111145019531,-1.4644074440002441,0.08135596662759781
1771681137464373500,11.23937353515625,10.04267692565918,-1.730010747909546,0.35892340540885925
1771681137474730800,11.249730712890624,9.968499183654785,-1.4093725681304932,0.10049854964017868
1771681137485088000,11.260087890625,9.66939640045166,-1.730010747909546,-0.05024927482008934
1771681137495445200,11.2704453125,10.396814346313477,-1.7180466651916504,0.2153540402650833
1771681137505802500,11.280802490234375,10.009177207946777,-1.521835207939148,0.38763725757598877
1771681137516159700,11.29115966796875,10.030712127685547,-2.117648124694824,0.3086741268634796
1771681137526517000,11.30151708984375,9.748359680175781,-1.2849457263946533,-0.016749758273363113
1771681137536874000,11.3118740234375,9.686145782470703,-1.5074782371520996,-0.11006984114646912
1771681137547231200,11.322231201171874,9.183652877807617,-1.8185452222824097,-0.22492532432079315
1771681137557588500,11.33258837890625,9.734002113342285,-1.5672988891601562,-0.10767702013254166
1771681137567945700,11.34294580078125,10.303494453430176,-1.7563318014144897,0.08135596662759781
1771681137578303000,11.353302978515625,9.726823806762695,-1.4380863904953003,0.059820566326379776
1771681137588660200,11.36366015625,10.380064964294434,-1.9692929983139038,-0.02392822690308094
1771681137599017500,11.374017578125,9.150154113769531,-1.6701902151107788,0.01196411345154047
1771681137609374700,11.384374755859374,10.171889305114746,-1.5720844268798828,-0.22492532432079315
1771681137619732000,11.39473193359375,9.729216575622559,-1.8855443000793457,-0.1818545162677765
1771681137630089200,11.405089111328126,10.48534870147705,-1.0839486122131348,-0.20338992774486542
1771681137640446500,11.415446533203125,9.501898765563965,-2.486142635345459,0.44027936458587646
1771681137650803700,11.4258037109375,10.451848983764648,-1.3782658576965332,0.672383189201355
1771681137661161000,11.436160888671875,9.882357597351074,-1.8305093050003052,0.349352091550827
1771681137671518200,11.446518310546875,10.329814910888672,-1.730010747909546,0.04546362906694412
1771681137681875500,11.45687548828125,10.425528526306152,-1.5433706045150757,0.1698904037475586
1771681137692232700,11.467232666015626,10.102497100830078,-2.0793628692626953,0.3517449200153351
1771681137702590000,11.47758984375,10.612168312072754,-1.4644074440002441,0.5264210104942322
1771681137712947200,11.487947265625,9.789037704467773,-2.115255117416382,0.794417142868042
1771681137723304400,11.498304443359375,10.552348136901855,-1.246660590171814,0.6747759580612183
1771681137733661700,11.50866162109375,9.796216011047363,-1.9956140518188477,0.6293123364448547
1771681137764733400,11.5397333984375,10.05703353881836,-1.5792629718780518,0.2967100143432617
1771681137775090700,11.550090576171876,9.556933403015137,-1.770688772201538,0.6819544434547424
1771681137785448000,11.560447998046875,10.430314064025879,-1.4261223077774048,0.5168496966362
1771681137795805200,11.57080517578125,9.707681655883789,-1.4069796800613403,0.7058826684951782
1771681137806162400,11.581162353515625,10.03310489654541,-1.454836130142212,0.2871387302875519
1771681137816519700,11.591519775390625,9.853643417358398,-1.0001999139785767,-0.20099709928035736
1771681137826877000,11.601876953125,9.920642852783203,-1.191625714302063,0.25363919138908386
1771681137837234200,11.612234130859376,9.671789169311523,-1.3040883541107178,0.37088751792907715
1771681137847591400,11.62259130859375,9.970891952514648,-0.9451649188995361,0.38763725757598877
1771681137857948700,11.63294873046875,10.272387504577637,-0.5575276613235474,0.2512463629245758
1771681137868306000,11.643305908203125,9.66221809387207,-1.222732424736023,0.4953143000602722
1771681137878663200,11.6536630859375,10.006784439086914,-0.9236295223236084,0.11485548317432404
1771681137889020400,11.6640205078125,9.848857879638672,-0.46899324655532837,-0.0023928226437419653
1771681137899377700,11.674377685546874,10.202995300292969,-0.2871387302875519,-0.009571290574967861
1771681137909735000,11.68473486328125,9.561718940734863,-1.2179467678070068,0.3613162338733673
1771681137920092000,11.695091796875,10.332208633422852,-0.4666004180908203,0.38763725757598877
1771681137930449200,11.70544921875,9.846465110778809,-0.37088751792907715,0.42831525206565857
1771681137940806400,11.715806396484375,10.071390151977539,-0.5862415432929993,0.11485548317432404
1771681137951163600,11.72616357421875,9.518648147583008,0.05742774158716202,0.05503492057323456
1771681137961521000,11.73652099609375,10.100104331970215,0.08374879509210587,-0.13878370821475983
1771681137971878100,11.746878173828126,9.274580955505371,-0.9906286001205444,0.19621145725250244
1771681137982235400,11.7572353515625,10.107282638549805,0.18424734473228455,0.2967100143432617
1771681137992592600,11.767592529296875,10.133604049682617,0.48813581466674805,0.3278166949748993
1771681138002950000,11.777949951171875,9.906285285949707,-0.6532405614852905,0.4163511395454407
1771681138013307100,11.78830712890625,9.58325481414795,-0.5742774605751038,0.2584248483181
1771681138023664400,11.798664306640624,10.559526443481445,0.397208571434021,-0.016749758273363113
1771681138034021600,11.809021728515624,9.597611427307129,-0.07178468257188797,-0.0023928226437419653
1771681138044379000,11.81937890625,9.973284721374512,-0.02392822690308094,0.10049854964017868
1771681138054736100,11.829736083984375,9.633503913879395,-0.05024927482008934,0.38763725757598877
1771681138065093400,11.84009326171875,10.023533821105957,-0.34217363595962524,0.6747759580612183
1771681138075450600,11.85045068359375,9.710074424743652,-0.02632104977965355,0.39960137009620667
1771681138085807900,11.860807861328125,10.26760196685791,0.2153540402650833,0.1459621787071228
1771681138096165000,11.8711650390625,9.810572624206543,0.035892341285943985,0.08614161610603333
1771681138106522400,11.8815224609375,9.860821723937988,-0.3684946894645691,0.27038896083831787
1771681138116879600,11.891879638671876,9.899106979370117,0.2799602448940277,0.3326023519039154
1771681138127236900,11.90223681640625,10.119247436523438,0.23449662327766418,0.6029912829399109
1771681138137594000,11.912593994140625,9.827322959899902,0.0023928226437419653,0.5096712112426758
1771681138147951400,11.922951416015625,9.506684303283691,0.2799602448940277,0.31106695532798767
1771681138158308600,11.93330859375,9.841679573059082,0.08614161610603333,0.23449662327766418
1771681138168665900,11.943665771484374,9.332008361816406,0.37088751792907715,-0.019142581149935722
1771681138179023000,11.954023193359374,9.992427825927734,0.44027936458587646,0.10767702013254166
1771681138189380400,11.96438037109375,9.817750930786133,0.10289137065410614,0.3613162338733673
1771681138199737600,11.974737548828125,9.760323524475098,-0.17228323221206665,0.6005984544754028
1771681138210094800,11.9850947265625,9.90149974822998,0.4091726839542389,0.6149554252624512
1771681138220452000,11.9954521484375,9.903892517089844,0.29431718587875366,0.30628129839897156
1771681138230809300,12.005809326171875,9.351150512695312,0.22013968229293823,-0.02153540402650833
1771681138241166600,12.01616650390625,9.590433120727539,0.12442677468061447,0.06939185410737991
1771681138251523800,12.02652392578125,9.722038269042969,0.2991028428077698,0.14356936514377594
1771681138261881000,12.036881103515626,9.65503978729248,0.09810572862625122,0.46899324655532837
1771681138272238300,12.04723828125,9.994820594787598,0.34695929288864136,0.4737788736820221
1771681138282595600,12.057595703125,9.712467193603516,-0.18903298676013947,0.32542386651039124
1771681138292952600,12.06795263671875,9.346364974975586,0.014356935396790504,0.37088751792907715
1771681138303309800,12.078309814453124,9.956535339355469,0.20099709928035736,0.05503492057323456
1771681138313667000,12.0886669921875,9.824930191040039,0.15553347766399384,-0.07417750358581543
1771681138324024300,12.0990244140625,9.681360244750977,-0.16031911969184875,0.17706887423992157
1771681138334381600,12.109381591796875,9.346364974975586,-0.19621145725250244,0.3517449200153351
1771681138344738800,12.11973876953125,10.408778190612793,0.3756731450557709,0.4378865361213684
1771681138355096000,12.130095947265625,9.80817985534668,-0.19621145725250244,0.3038884699344635
1771681138365453300,12.140453369140625,9.879964828491211,-0.02632104977965355,0.035892341285943985
1771681138375810600,12.150810546875,9.9469633102417,0.14117653667926788,0.04307080805301666
1771681138386167800,12.161167724609374,9.975677490234375,-0.2392822653055191,-0.0526420995593071
1771681138396525000,12.171525146484376,9.736394882202148,-0.2847459018230438,0.36610186100006104
1771681138406882300,12.18188232421875,10.365707397460938,0.380458801984787,0.4618147611618042
1771681138417239600,12.192239501953125,10.191031455993652,-0.3732803463935852,0.30628129839897156
1771681138427596800,12.2025966796875,10.028319358825684,-0.3397808074951172,0.35413774847984314
1771681138437954000,12.2129541015625,10.341779708862305,-0.0933200865983963,0.16749759018421173
1771681138448311300,12.223311279296874,10.25324535369873,0.23210379481315613,-0.0023928226437419653
1771681138458668500,12.23366845703125,9.822537422180176,-0.6484549641609192,0.02153540402650833
1771681138469025800,12.24402587890625,10.009177207946777,0.016749758273363113,0.22013968229293823
1771681138479383000,12.254383056640625,10.224531173706055,-0.2392822653055191,0.6221339106559753
1771681138489740300,12.264740234375,9.865608215332031,-0.4498506486415863,0.49292147159576416
1771681138500097500,12.27509765625,10.116853713989258,0.12442677468061447,0.2679961323738098
1771681138510454800,12.285454833984375,10.329814910888672,-0.14835500717163086,-0.05024927482008934
1771681138520812000,12.29581201171875,9.810572624206543,-0.12921242415905,0.11964113265275955
1771681138531169300,12.306169189453126,10.353743553161621,-0.3038884699344635,0.2967100143432617
1771681138541526500,12.316526611328126,9.970891952514648,0.20817556977272034,0.5599204897880554
1771681138551883800,12.3268837890625,10.047462463378906,-0.20578274130821228,0.6125625967979431
1771681138562241000,12.337240966796875,9.987641334533691,-0.11724831163883209,0.36610186100006104
1771681138572598300,12.347598388671875,9.724431037902832,-0.09571290761232376,0.39960137009620667
1771681138582955500,12.35795556640625,9.856036186218262,0.035892341285943985,0.16031911969184875
1771681138593312800,12.368312744140624,9.686145782470703,0.040677983313798904,0.031106693670153618
1771681138603670000,12.378669921875,9.623932838439941,-0.1818545162677765,0.24885354936122894
1771681138614027300,12.38902734375,9.710074424743652,-0.10767702013254166,0.5264210104942322
1771681138624384500,12.399384521484375,9.951749801635742,-0.2153540402650833,0.5694918036460876
1771681138634741800,12.40974169921875,9.93260669708252,0.016749758273363113,0.31824541091918945
1771681138645099000,12.42009912109375,9.760323524475098,-0.0933200865983963,-0.11485548317432404
1771681138655456300,12.430456298828124,9.942177772521973,-0.01196411345154047,0.05024927482008934
1771681138665813500,12.4408134765625,9.678967475891113,-0.30149564146995544,-0.014356935396790504
1771681138676170500,12.45117041015625,9.765109062194824,0.08614161610603333,0.26081767678260803
1771681138686528000,12.461528076171875,9.796216011047363,-0.2967100143432617,0.5359922647476196
1771681138696885200,12.47188525390625,9.779465675354004,0.04307080805301666,0.3684946894645691
1771681138707242500,12.482242431640625,10.15753173828125,-0.23449662327766418,0.26560330390930176
1771681138717599700,12.492599853515625,9.489934921264648,-0.37806597352027893,0.04307080805301666
1771681138727957000,12.50295703125,10.248459815979004,0.3565305769443512,-0.07657032459974289
1771681138738314000,12.51331396484375,9.860821723937988,-0.14356936514377594,-0.040677983313798904
1771681138748671200,12.523671142578126,9.975677490234375,-0.7704889178276062,0.2153540402650833
1771681138759028500,12.534028564453125,9.913464546203613,0.11724831163883209,0.5527420043945312
1771681138769385700,12.5443857421875,10.389636039733887,0.035892341285943985,0.5000999569892883
1771681138779743000,12.554742919921875,9.53061294555664,-0.3158525824546814,0.22971096634864807
1771681138790100200,12.565100341796875,10.193424224853516,-0.19381862878799438,-0.11006984114646912
1771681138800457500,12.57545751953125,9.714859962463379,0.2967100143432617,0.05024927482008934
1771681138810814700,12.585814697265626,10.06421184539795,-0.6628118753433228,0.3086741268634796
1771681138821172000,12.596171875,9.68375301361084,0.1339980661869049,0.37806597352027893
1771681138831529200,12.606529296875,10.334601402282715,0.275174617767334,0.4546363055706024
1771681138841886500,12.616886474609375,9.748359680175781,-0.007178467698395252,0.4953143000602722
1771681138852243700,12.62724365234375,10.109675407409668,0.0023928226437419653,0.35892340540885925
1771681138862601000,12.63760107421875,9.812965393066406,0.1746760457754135,0.12681959569454193
1771681138872958200,12.647958251953124,9.810572624206543,0.24646073579788208,0.11006984114646912
1771681138883315500,12.6583154296875,9.633503913879395,0.1579262912273407,0.2153540402650833
1771681138893672700,12.668672607421875,10.028319358825684,0.31345975399017334,0.5790630578994751
1771681138904030000,12.679030029296875,9.824930191040039,-0.05742774158716202,0.763310432434082
1771681138914387200,12.68938720703125,9.77707290649414,0.275174617767334,0.3756731450557709
1771681138924744400,12.699744384765625,9.930213928222656,0.5742774605751038,-0.07417750358581543
1771681138935101700,12.710101806640624,9.781859397888184,0.2967100143432617,-0.062213387340307236
1771681138945459000,12.720458984375,9.772287368774414,0.009571290574967861,0.1746760457754135
1771681138955816200,12.730816162109376,9.738788604736328,0.2679961323738098,0.3397808074951172
1771681138966173400,12.74117333984375,10.169496536254883,0.4331009089946747,0.48574298620224
1771681138976530700,12.75153076171875,9.631111145019531,0.2153540402650833,0.38285163044929504
1771681138986888000,12.761887939453125,9.844072341918945,0.2225325107574463,0.21296121180057526
1771681138997245200,12.7722451171875,9.657432556152344,0.3613162338733673,0.19142581522464752
1771681139007602400,12.7826025390625,9.81535816192627,0.19142581522464752,-0.059820566326379776
1771681139017959700,12.792959716796876,9.753145217895508,0.5694918036460876,-0.07178468257188797
1771681139028317000,12.80331689453125,10.138389587402344,0.1698904037475586,0.20817556977272034
1771681139038674200,12.813674072265625,9.652647018432617,-0.12442677468061447,0.4905286431312561
1771681139049031400,12.824031494140625,10.006784439086914,0.4546363055706024,0.4139583110809326
1771681139059388700,12.834388671875,9.980463027954102,0.576670229434967,0.24406790733337402
1771681139069746000,12.844745849609374,9.973284721374512,0.15553347766399384,-0.04785645380616188
1771681139080103200,12.855103271484374,9.494720458984375,0.23688943684101105,-0.09571290761232376
1771681139090460400,12.86546044921875,9.753145217895508,0.4091726839542389,0.1698904037475586
1771681139100817700,12.875817626953125,9.961320877075195,0.32303106784820557,0.32303106784820557
1771681139111175000,12.8861748046875,9.827322959899902,0.12681959569454193,0.34695929288864136
1771681139121532200,12.8965322265625,9.942177772521973,0.48574298620224,0.34217363595962524
1771681139131889400,12.906889404296875,9.882357597351074,0.2225325107574463,0.3852444589138031
1771681139142246700,12.91724658203125,10.06421184539795,0.2560320198535919,0.0526420995593071
1771681139152604000,12.92760400390625,9.851250648498535,0.5312066078186035,-0.16031911969184875
1771681139162961200,12.937961181640626,9.81535816192627,0.28953152894973755,0.09810572862625122
1771681139173318400,12.948318359375,9.860821723937988,0.3517449200153351,0.27756741642951965
1771681139183675600,12.958675537109375,9.7005033493042,0.34695929288864136,0.5694918036460876
1771681139194033000,12.969032958984375,9.956535339355469,0.30628129839897156,0.4977070987224579
1771681139204390100,12.97939013671875,9.820143699645996,0.4977070987224579,0.21296121180057526
1771681139214747400,12.989747314453124,10.00439167022705,0.45224347710609436,-0.016749758273363113
1771681139225104600,13.000104736328124,9.556933403015137,0.5335994362831116,-0.11724831163883209
1771681139235462000,13.0104619140625,9.872786521911621,0.06939185410737991,0.15074782073497772
1771681139245819100,13.020819091796875,10.054640769958496,0.6197410821914673,0.2273181527853012
1771681139256176400,13.03117626953125,10.16710376739502,0.42352959513664246,0.4331009089946747
1771681139266533600,13.04153369140625,9.796216011047363,0.48813581466674805,0.43549370765686035
1771681139276891000,13.051890869140625,9.80817985534668,0.4091726839542389,0.1698904037475586
1771681139287248100,13.062248046875,9.631111145019531,0.33499518036842346,-0.06939185410737991
1771681139297605400,13.07260546875,9.674181938171387,0.5024927258491516,-0.1818545162677765
1771681139307962400,13.08296240234375,9.707681655883789,0.6173482537269592,-0.038285162299871445
1771681139318319600,13.093319580078125,9.753145217895508,0.27756741642951965,0.16749759018421173
1771681139328676900,13.1036767578125,9.817750930786133,0.18903298676013947,0.3326023519039154
1771681139339034400,13.114034423828125,10.119247436523438,0.4713860750198364,0.22971096634864807
1771681139349391600,13.1243916015625,9.863214492797852,0.5216353535652161,0.059820566326379776
1771681139359748900,13.134748779296874,9.805787086486816,0.48574298620224,-0.11724831163883209
1771681139370105900,13.14510595703125,9.930213928222656,0.1986042857170105,-0.11006984114646912
1771681139380463000,13.155463134765625,9.633503913879395,0.4331009089946747,0.0526420995593071
1771681139390820400,13.1658203125,10.29153060913086,0.6221339106559753,0.35892340540885925
1771681139401177600,13.176177490234375,9.54496955871582,0.36610186100006104,0.5383850932121277
1771681139411534800,13.186534912109375,9.865608215332031,0.33499518036842346,0.3732803463935852
1771681139421892000,13.19689208984375,9.58325481414795,0.607776939868927,0.10767702013254166
1771681139432249600,13.20724951171875,9.978070259094238,0.3684946894645691,-0.004785645287483931
1771681139442606600,13.217606689453126,9.812965393066406,0.34217363595962524,-0.01196411345154047
1771681139452963800,13.2279638671875,9.963713645935059,0.5455635786056519,0.04546362906694412
1771681139463321000,13.238321044921875,9.846465110778809,0.3517449200153351,0.36610186100006104
1771681139473678300,13.24867822265625,9.927821159362793,0.397208571434021,0.6317051649093628
1771681139484035600,13.25903564453125,10.009177207946777,0.38763725757598877,0.5455635786056519
1771681139494392800,13.269392822265624,9.671789169311523,0.4785645306110382,0.33738797903060913
1771681139504750000,13.27975,9.779465675354004,0.6197410821914673,0.10289137065410614
1771681139515107300,13.290107421875,9.511469841003418,0.39481574296951294,0.062213387340307236
1771681139525464600,13.300464599609375,9.970891952514648,0.3086741268634796,0.2919243574142456
1771681139535821800,13.31082177734375,10.131211280822754,0.6747759580612183,0.641276478767395
1771681139546179000,13.321178955078125,10.068997383117676,0.23449662327766418,0.7968099117279053
1771681139556536300,13.331536376953125,10.06421184539795,0.5096712112426758,0.4618147611618042
1771681139566893600,13.3418935546875,10.06421184539795,0.33738797903060913,0.3756731450557709
