time,seconds_elapsed,z,y,x
1771681126348578600,0.12357861328125,0,0,0
1771681126369293000,0.14429296875,0.5008144378662109,0.13224834203720093,-0.4621092677116394
1771681126379650300,0.154650390625,0.20148468017578125,0.6113846302032471,0.0369890034198761
1771681126390007300,0.16500732421875,-0.5031366348266602,-0.4711126685142517,0.2247878909111023
1771681126400364500,0.175364501953125,-0.014481544494628906,-0.20130133628845215,0.029788821935653687
1771681126421079000,0.1960791015625,-0.22417831420898438,-0.6478065252304077,0.16225886344909668
1771681126431436000,0.20643603515625,-0.3608407974243164,0.22521406412124634,-0.06841632723808289
1771681126441793300,0.216793212890625,0.777857780456543,0.7757914066314697,0.06036308407783508
1771681126452150500,0.227150634765625,-0.8721132278442383,-0.6866590976715088,0.09078767895698547
1771681126462507800,0.2375078125,-0.17859935760498047,0.43110954761505127,-0.16217119991779327
1771681126472864800,0.24786474609375,0.7606382369995117,0.9811520576477051,0.0744016170501709
1771681126483222000,0.258221923828125,-0.6890239715576172,-0.6130623817443848,0.03237718343734741
1771681126493579300,0.268579345703125,-0.6965274810791016,0.027133822441101074,0.0010807514190673828
1771681126503936500,0.2789365234375,0.5113286972045898,0.9540776014328003,-0.3102648854255676
1771681126514293800,0.289293701171875,-0.4172706604003906,-0.37667280435562134,-0.23304864764213562
1771681126524650800,0.299650634765625,-0.9159440994262695,-0.2351534366607666,0.09354603290557861
1771681126535008000,0.310008056640625,0.909571647644043,0.9831314086914062,-0.006281226873397827
1771681126545365200,0.320365234375,-0.7498359680175781,-0.32975971698760986,0.42895692586898804
1771681126555722500,0.330722412109375,-0.5339584350585938,-0.2968582510948181,-0.08651210367679596
1771681126566079500,0.34107958984375,0.6163978576660156,0.8175293207168579,0.14687755703926086
1771681126576436700,0.351436767578125,-0.7516365051269531,0.31329333782196045,0.3608667552471161
1771681126586794000,0.3617939453125,-0.6262435913085938,-1.3467278480529785,0.44688522815704346
1771681126597151200,0.372151123046875,0.6668519973754883,0.9996863603591919,-0.06831410527229309
1771681126607508200,0.38250830078125,-0.1365346908569336,-0.08239352703094482,0.12194463610649109
1771681126617865500,0.392865478515625,-0.6729106903076172,-0.6809483170509338,0.19734057784080505
1771681126628222700,0.40322265625,0.08946800231933594,0.47199714183807373,0.14342588186264038
1771681126638580000,0.413580078125,-0.0708303451538086,0.21004319190979004,0.4186573922634125
1771681126648937200,0.423937255859375,-1.0145673751831055,-0.9807981252670288,0.24052727222442627
1771681126659294200,0.434294189453125,0.9285345077514648,0.44310879707336426,-0.30775484442710876
1771681126669651500,0.4446513671875,0.5517120361328125,0.5927531719207764,-0.009465306997299194
1771681126680008700,0.4550087890625,-0.6948146820068359,-1.4920923709869385,0.6679084300994873
1771681126690366000,0.465365966796875,0.3893556594848633,0.2562676668167114,0.01120901107788086
1771681126700723000,0.475722900390625,0.5106630325317383,0.6682207584381104,0.19831663370132446
1771681126711080200,0.486080078125,-0.4503288269042969,-0.9508348107337952,-0.14736026525497437
1771681126721437400,0.4964375,0.22313690185546875,-0.07862424850463867,0.11287909746170044
1771681126731794700,0.506794677734375,0.7974166870117188,0.23114514350891113,0.011231869459152222
1771681126742152000,0.51715185546875,0.014644622802734375,-0.036541104316711426,-0.16841855645179749
1771681126752509000,0.527509033203125,0.26158618927001953,-0.17612463235855103,0.2522066831588745
1771681126762866200,0.5378662109375,0.28089427947998047,0.5657804012298584,0.1807088553905487
1771681126773223400,0.548223388671875,-0.1837005615234375,-0.275033175945282,0.41756007075309753
1771681126783580700,0.55858056640625,1.0031557083129883,0.7224280834197998,-0.06627419590950012
1771681126793937700,0.568937744140625,-0.689366340637207,-0.17086941003799438,0.12854483723640442
1771681126804295000,0.579294921875,-0.023586273193359375,0.3162415027618408,0.4151249825954437
1771681126814652200,0.589652099609375,0.6978549957275391,0.978934645652771,0.09301456809043884
1771681126825009400,0.600009521484375,-0.8414745330810547,-0.4901384711265564,-0.1429402232170105
1771681126835366400,0.610366455078125,-0.097412109375,0.7833547592163086,-0.2403653860092163
1771681126845723600,0.6207236328125,0.4532938003540039,1.099085807800293,-0.09908270835876465
1771681126856081000,0.631080810546875,-1.3307504653930664,-0.6829953789710999,0.08596739172935486
1771681126866438100,0.641438232421875,0.0023250579833984375,-0.02206730842590332,-0.09478485584259033
1771681126876795100,0.651795166015625,0.13387203216552734,1.549959659576416,0.21983003616333008
1771681126887152400,0.66215234375,-0.2558860778808594,-0.13329577445983887,0.33117711544036865
1771681126897509600,0.672509521484375,-0.21574115753173828,0.12372362613677979,0.003282994031906128
1771681126907867000,0.682866943359375,-0.0824899673461914,0.977977991104126,0.7599020004272461
1771681126918224100,0.69322412109375,-0.0974273681640625,0.45919179916381836,0.15052396059036255
1771681126928581000,0.7035810546875,-0.043972015380859375,0.10034656524658203,-0.35208243131637573
1771681126938938400,0.7139384765625,-0.31362438201904297,0.3778257369995117,0.19137519598007202
1771681126949295600,0.724295654296875,-0.06369400024414062,-0.07612097263336182,-0.016821861267089844
1771681126959652900,0.73465283203125,0.3726310729980469,1.3608580827713013,-0.36291489005088806
1771681126970009900,0.745009765625,-1.3987922668457031,-0.8717296123504639,0.14045462012290955
1771681126980367000,0.7553671875,0.9050159454345703,0.7785155773162842,-0.21020135283470154
1771681126990724400,0.765724365234375,-0.8097314834594727,0.04196739196777344,0.13311579823493958
1771681127001081600,0.77608154296875,0.16388225555419922,-0.07895374298095703,-0.38327038288116455
1771681127011438600,0.7864384765625,0.03865337371826172,0.7030630111694336,0.13770988583564758
1771681127021795800,0.7967958984375,0.028429031372070312,-0.22549593448638916,0.7236746549606323
1771681127032153000,0.807153076171875,-0.6534385681152344,0.6932574510574341,-0.02452799677848816
1771681127042510300,0.81751025390625,0.8812761306762695,0.14726793766021729,-0.2022702693939209
1771681127052867600,0.82786767578125,-1.199819564819336,-0.2807961702346802,0.3100806176662445
1771681127063224600,0.838224609375,0.5010824203491211,0.2526237964630127,0.021359354257583618
1771681127073581800,0.848581787109375,0.23190689086914062,0.20610690116882324,-0.058975398540496826
1771681127083939000,0.85893896484375,-1.1094608306884766,-0.6596635580062866,0.11056023836135864
1771681127094296300,0.86929638671875,1.638498306274414,0.308496356010437,-0.2109490931034088
1771681127104653300,0.8796533203125,-0.25806713104248047,0.40000712871551514,0.061648041009902954
1771681127115010600,0.890010498046875,-0.07536602020263672,-0.5684219598770142,-0.22634901106357574
1771681127125367800,0.900367919921875,0.73553466796875,0.5469348430633545,-0.5072696208953857
1771681127135725000,0.91072509765625,-0.6558341979980469,0.030171632766723633,-0.049005746841430664
1771681127146082300,0.921082275390625,0.7840261459350586,-0.12159085273742676,-0.19173499941825867
1771681127156439300,0.931439208984375,-0.5277233123779297,0.14944982528686523,-0.2000872790813446
1771681127166796500,0.941796630859375,1.0265913009643555,0.08801150321960449,-0.5649385452270508
1771681127177153800,0.95215380859375,0.9620189666748047,0.3300955295562744,-0.13869592547416687
1771681127187511000,0.962510986328125,-0.3307380676269531,-0.022246360778808594,-0.0059479475021362305
1771681127197868000,0.972867919921875,0.42754268646240234,0.4876580238342285,-0.22694098949432373
1771681127208225300,0.983225341796875,-0.7501249313354492,0.25636863708496094,0.16548699140548706
1771681127218582500,0.99358251953125,0.3159008026123047,0.032007694244384766,-0.17224690318107605
1771681127228939800,1.003939697265625,-0.07305622100830078,0.7355817556381226,-0.21986259520053864
1771681127239296800,1.014296875,-0.5853080749511719,0.12483787536621094,-0.37063756585121155
1771681127249654000,1.024654052734375,0.7250518798828125,1.4779642820358276,0.0803457498550415
1771681127260011300,1.03501123046875,-1.2040596008300781,0.040771484375,0.5020928382873535
1771681127270368500,1.045368408203125,0.21042537689208984,0.35089218616485596,-0.38255494832992554
1771681127280725800,1.055725830078125,0.0025186538696289062,0.8900575637817383,-0.011836826801300049
1771681127291082800,1.066082763671875,-0.3854084014892578,0.1520678997039795,-0.042950838804244995
1771681127301440000,1.07643994140625,0.40735626220703125,1.0340147018432617,-0.33212387561798096
1771681127311797200,1.08679736328125,-1.2609128952026367,0.21604764461517334,-0.04526129364967346
1771681127322154500,1.097154541015625,0.9238386154174805,1.2276030778884888,-0.1273559033870697
1771681127332511500,1.107511474609375,-0.993992805480957,0.36080312728881836,0.47330817580223083
1771681127342868700,1.11786865234375,0.01830005645751953,0.6296124458312988,-0.3273664116859436
1771681127353226000,1.12822607421875,0.20558834075927734,1.109760046005249,-0.4228452742099762
1771681127363583200,1.138583251953125,-1.2979450225830078,-0.15906143188476562,0.2411855161190033
1771681127373940500,1.1489404296875,1.4681015014648438,1.3450427055358887,-0.4020301103591919
1771681127384297500,1.15929736328125,-1.810847282409668,0.07709789276123047,0.21440264582633972
1771681127394654700,1.16965478515625,0.44394493103027344,0.42492198944091797,0.13768121600151062
1771681127405012000,1.180011962890625,-0.588505744934082,1.1164730787277222,0.5887317657470703
1771681127415369200,1.190369140625,-0.3457174301147461,0.0929727554321289,-0.30131274461746216
1771681127425726200,1.200726318359375,-0.27810096740722656,0.43439435958862305,0.2082861065864563
1771681127436083500,1.21108349609375,-0.41055965423583984,0.7993274927139282,0.1963498294353485
1771681127446440700,1.221440673828125,1.105830192565918,0.36486244201660156,0.13196241855621338
1771681127456798000,1.2317978515625,-2.1664605140686035,0.055051445960998535,0.33696573972702026
1771681127467155200,1.2421552734375,1.7322025299072266,0.9103002548217773,0.3238706588745117
1771681127477512200,1.25251220703125,-1.2333011627197266,0.298181414604187,0.6486942768096924
1771681127487869400,1.262869384765625,0.21711158752441406,-0.3779575824737549,-0.11473926901817322
1771681127498226700,1.273226806640625,0.16529560089111328,1.2508257627487183,-0.1649715006351471
1771681127508584000,1.283583984375,-0.30361175537109375,-0.48333632946014404,-0.4752396047115326
1771681127518941000,1.29394091796875,0.892059326171875,0.029686927795410156,-0.7022058367729187
1771681127529298200,1.304298095703125,-1.153447151184082,0.44787275791168213,0.15155845880508423
1771681127539655400,1.314655517578125,1.1003990173339844,0.6738126277923584,0.26384836435317993
1771681127550012700,1.3250126953125,-1.7798151969909668,0.24941504001617432,0.56150221824646
1771681127560369700,1.33536962890625,0.6976308822631836,0.19242119789123535,-0.016956627368927002
1771681127570727000,1.345726806640625,-0.29548072814941406,-0.13975763320922852,0.3736519515514374
1771681127581084200,1.356084228515625,0.21687698364257812,0.3826218843460083,-0.5565011501312256
1771681127591441400,1.36644140625,0.9529848098754883,0.30239927768707275,-0.4087306559085846
1771681127601798700,1.376798583984375,0.5842809677124023,0.38668036460876465,-0.48926761746406555
1771681127612155600,1.38715576171875,0.7860584259033203,-0.954693615436554,0.02290099859237671
1771681127622513000,1.397512939453125,0.4474973678588867,0.522148847579956,-0.011835366487503052
1771681127632870100,1.4078701171875,0.5674467086791992,0.24905240535736084,0.9616506099700928
1771681127643227400,1.418227294921875,0.7837724685668945,0.7358227968215942,-0.1882895827293396
1771681127653584600,1.428584716796875,0.19148540496826172,-0.18824303150177002,-0.04360732436180115
1771681127663941600,1.438941650390625,0.02400493621826172,0.8610527515411377,-0.4105762243270874
1771681127674299000,1.449298828125,0.6675043106079102,0.36106371879577637,-0.06490862369537354
1771681127684656000,1.45965625,-0.23244667053222656,0.4006369113922119,-0.16219797730445862
1771681127695013400,1.470013427734375,1.3060903549194336,0.680079460144043,0.03044942021369934
1771681127705370400,1.480370361328125,0.204315185546875,-0.32586944103240967,-0.044519275426864624
1771681127715727600,1.4907275390625,0.656977653503418,1.3832752704620361,-0.507211446762085
1771681127726084900,1.5010849609375,-0.81988525390625,0.36710095405578613,0.18407610058784485
1771681127736442000,1.511442138671875,-0.7419624328613281,0.6440756320953369,0.2701800465583801
1771681127746799400,1.52179931640625,-1.3654708862304688,0.818798303604126,0.6546372175216675
1771681127757156400,1.53215625,-0.3312559127807617,0.6013261079788208,0.34189432859420776
1771681127767513600,1.542513671875,-1.456852912902832,0.12834417819976807,0.8292007446289062
1771681127777870800,1.552870849609375,0.29300689697265625,0.9278305768966675,-0.04902917146682739
1771681127788228000,1.56322802734375,-0.25517749786376953,0.5362904071807861,-0.06863990426063538
1771681127798585000,1.573585205078125,0.14849472045898438,-0.06335973739624023,0.251851350069046
1771681127808942300,1.5839423828125,-0.49370670318603516,0.5998622179031372,0.020709872245788574
1771681127819299600,1.594299560546875,-0.39977169036865234,1.0342872142791748,0.1790790557861328
1771681127829656800,1.60465673828125,-0.8317470550537109,-0.0193178653717041,0.2739742696285248
1771681127840013800,1.615013916015625,-0.9923152923583984,0.41052985191345215,-0.18357080221176147
1771681127850371000,1.62537109375,-0.24895668029785156,1.320419430732727,0.083676278591156
1771681127860728300,1.635728271484375,0.004406929016113281,-0.11804759502410889,0.022231876850128174
1771681127871085600,1.64608544921875,-0.2286672592163086,0.31052613258361816,0.010662436485290527
1771681127881442800,1.65644287109375,0.29786014556884766,0.5091131925582886,0.2718224823474884
1771681127891800000,1.666800048828125,0.9564352035522461,-0.040309786796569824,0.3196614682674408
1771681127902157000,1.677156982421875,-0.49521541595458984,0.11705899238586426,-0.06590244174003601
1771681127912514300,1.687514404296875,0.6108827590942383,0.703783392906189,-0.30653393268585205
1771681127922871600,1.69787158203125,-0.9075422286987305,0.2862730026245117,-0.3225603699684143
1771681127933228800,1.708228759765625,0.1846599578857422,0.8079538345336914,-0.2772514820098877
1771681127943585800,1.718585693359375,-1.5474977493286133,-0.3326253890991211,-0.017461806535720825
1771681127953943000,1.728943115234375,0.69708251953125,0.9687027931213379,-0.42646872997283936
1771681127964300300,1.73930029296875,-0.7221603393554688,-0.23266136646270752,-0.21651095151901245
1771681127974657500,1.749657470703125,0.8325357437133789,0.8563294410705566,-0.4488881230354309
1771681127985014800,1.760014892578125,0.5609521865844727,-0.2616696357727051,-0.17726179957389832
1771681127995371800,1.770371826171875,0.4409303665161133,1.0647457838058472,-0.372254341840744
1771681128005729000,1.78072900390625,0.0006437301635742188,-0.2881596088409424,0.2973444163799286
1771681128016086300,1.791086181640625,0.10061931610107422,0.9070264101028442,0.11630594730377197
1771681128026443500,1.801443603515625,-0.2852153778076172,0.18971490859985352,-0.09920662641525269
1771681128036800500,1.811800537109375,0.3087005615234375,0.5690526962280273,0.0014200210571289062
1771681128047157800,1.82215771484375,-0.4350881576538086,-0.18449580669403076,-0.3211669325828552
1771681128057515000,1.832514892578125,-0.18274307250976562,0.8913259506225586,0.6097750663757324
1771681128067872300,1.842872314453125,0.5533571243286133,0.07960641384124756,-0.11063221096992493
1771681128078229500,1.8532294921875,-0.8817739486694336,0.10929584503173828,-0.2418179214000702
1771681128088586500,1.86358642578125,1.1143951416015625,0.6700584888458252,-0.2835804522037506
1771681128098943700,1.87394384765625,-0.9949674606323242,-0.26167023181915283,-0.12712806463241577
1771681128109301000,1.884301025390625,-0.38736534118652344,0.6347274780273438,-0.7499450445175171
1771681128119658200,1.894658203125,-0.749211311340332,-0.5551680326461792,0.015121996402740479
1771681128130015200,1.90501513671875,-0.973505973815918,0.6155376434326172,-0.662054717540741
1771681128140372500,1.91537255859375,-0.5565223693847656,-0.7166476249694824,-0.19486616551876068
1771681128150729700,1.925729736328125,-0.42276477813720703,0.6527512073516846,-0.045506447553634644
1771681128161087000,1.9360869140625,-0.4420347213745117,-1.3385493755340576,0.6283164024353027
1771681128171444200,1.9464443359375,-0.3399057388305664,-0.5434805154800415,-0.0007803738117218018
1771681128181801500,1.956801513671875,0.24226093292236328,-0.9330123662948608,-0.44542697072029114
1771681128192158500,1.967158447265625,-0.09026336669921875,0.4556981325149536,-0.3915042579174042
1771681128202515700,1.977515625,-0.17129135131835938,-2.1527016162872314,0.14320087432861328
1771681128212873000,1.987873046875,-0.0662984848022461,-0.6199814081192017,-0.3922410011291504
1771681128223230200,1.998230224609375,0.15920543670654297,-0.15831637382507324,0.13155224919319153
1771681128233587500,2.00858740234375,-0.006930351257324219,-1.1689256429672241,0.1595829427242279
1771681128243944400,2.0189443359375,-0.7934255599975586,-1.145693302154541,0.2322283387184143
1771681128254301700,2.0293017578125,0.46625518798828125,-0.6488906145095825,-0.5073390007019043
1771681128264659000,2.039658935546875,0.1554431915283203,-1.237044334411621,-0.00755193829536438
1771681128275016200,2.05001611328125,-0.21308612823486328,-2.2917957305908203,0.11419767141342163
1771681128285373400,2.06037353515625,0.13208675384521484,-1.4279676675796509,0.6042486429214478
1771681128295730400,2.07073046875,0.2706451416015625,-0.4371051788330078,0.5513148307800293
1771681128306087700,2.081087646484375,-0.10079097747802734,-2.05373477935791,0.41329512000083923
1771681128316445000,2.09144482421875,-0.0916452407836914,-1.1017963886260986,-0.03345578908920288
1771681128326802200,2.10180224609375,0.34110450744628906,-0.797171413898468,-0.14939936995506287
1771681128337159200,2.1121591796875,0.2457122802734375,-1.1474130153656006,0.20177173614501953
1771681128347516400,2.122516357421875,0.30558204650878906,-1.584566593170166,-0.15922939777374268
1771681128357873700,2.132873779296875,1.0651206970214844,-0.7675257921218872,-0.15767288208007812
1771681128368231000,2.14323095703125,0.0686788558959961,-1.7831679582595825,0.12308302521705627
1771681128378588200,2.153588134765625,-0.09883594512939453,-1.842421531677246,0.685676097869873
1771681128388945200,2.163945068359375,1.070103645324707,-0.44185179471969604,-0.11717936396598816
1771681128399302400,2.174302490234375,0.7047576904296875,-1.905416488647461,0.055073171854019165
1771681128409659600,2.18465966796875,0.8318519592285156,-1.0199408531188965,-0.39002498984336853
1771681128420017000,2.195016845703125,0.17505455017089844,-1.5348566770553589,0.5565857887268066
1771681128430374100,2.2053740234375,0.5834751129150391,-0.6995132565498352,0.24003785848617554
1771681128440731100,2.215731201171875,-0.23155975341796875,-1.8285081386566162,0.5457214117050171
1771681128451088400,2.22608837890625,0.7719478607177734,-1.1171808242797852,-0.6029700040817261
1771681128461445600,2.236445556640625,0.8322963714599609,-0.5229664444923401,-0.3146912455558777
1771681128471803000,2.246802978515625,0.5853214263916016,-1.7614020109176636,-0.03942382335662842
1771681128482160000,2.25716015625,0.15628814697265625,-1.168029546737671,-0.246854767203331
1771681128492517000,2.26751708984375,1.4604978561401367,-0.6676002740859985,0.04642939567565918
1771681128502874400,2.277874267578125,-0.7800979614257812,-1.7107067108154297,0.07953301072120667
1771681128513231600,2.288231689453125,-0.02613067626953125,-0.8441132307052612,-0.16698157787322998
1771681128523588900,2.2985888671875,0.16705703735351562,-0.5859213471412659,-0.43943193554878235
1771681128533945900,2.30894580078125,-0.6790895462036133,-1.1936464309692383,-0.31535714864730835
1771681128544303000,2.31930322265625,0.19116497039794922,-0.9724370241165161,-0.4238300621509552
1771681128554660400,2.329660400390625,-0.3478994369506836,-0.49450379610061646,-0.19570136070251465
1771681128565017600,2.340017578125,0.1087350845336914,-1.2003687620162964,0.014681905508041382
1771681128575374800,2.350374755859375,-0.2012472152709961,-1.393664002418518,0.2505835294723511
1771681128585732000,2.360732177734375,0.6453428268432617,-0.01350545883178711,-0.47816842794418335
1771681128596089000,2.371089111328125,-0.0958719253540039,-1.6553378105163574,-0.13560983538627625
1771681128606446300,2.3814462890625,0.22625160217285156,-0.4978836178779602,-0.1219722330570221
1771681128616803600,2.391803466796875,-0.5226230621337891,-1.3963655233383179,-0.05551809072494507
1771681128627160800,2.402160888671875,-0.21290302276611328,-0.3516218066215515,0.1886744201183319
1771681128637518000,2.41251806640625,-0.6168756484985352,-1.5553505420684814,0.5280956625938416
1771681128647875300,2.422875244140625,0.3888664245605469,-0.7126273512840271,-0.09509766101837158
1771681128658232300,2.433232421875,-0.13217449188232422,-0.6856868863105774,-0.02544879913330078
1771681128668589600,2.443589599609375,0.7141838073730469,-1.7005059719085693,-0.32562047243118286
1771681128678946800,2.45394677734375,0.2823162078857422,-0.4527655243873596,0.15760767459869385
1771681128689304000,2.464303955078125,0.27637672424316406,-1.3545140027999878,0.21983742713928223
1771681128699661000,2.4746611328125,-0.15120506286621094,-0.49162185192108154,0.6291024684906006
1771681128710018300,2.485018310546875,-0.1457500457763672,-1.7314317226409912,0.35387861728668213
1771681128720375600,2.49537548828125,0.4744415283203125,0.1312580108642578,-0.4965228736400604
1771681128730732800,2.50573291015625,-0.41156864166259766,-0.9415463209152222,0.11015039682388306
1771681128741090000,2.516090087890625,0.6529560089111328,-0.8430513739585876,0.032520294189453125
1771681128751447000,2.526447021484375,-0.6316347122192383,-0.7734110355377197,0.11479318141937256
1771681128761804300,2.53680419921875,1.3320350646972656,-0.7562466859817505,-0.2939583659172058
1771681128772161500,2.54716162109375,-0.5891580581665039,-1.3138809204101562,-0.3141220211982727
1771681128782518800,2.557518798828125,0.48327064514160156,-1.027962327003479,0.04212677478790283
1771681128792876000,2.5678759765625,-0.06905460357666016,-0.5215566158294678,0.2913064956665039
1771681128803233300,2.5782333984375,-0.5333080291748047,-0.9157183170318604,0.023381739854812622
1771681128813590300,2.58859033203125,0.009921073913574219,-1.3368403911590576,0.09481391310691833
1771681128823947500,2.598947509765625,0.5508651733398438,-0.5792258381843567,-0.4503422677516937
1771681128834304800,2.6093046875,0.1649799346923828,-0.7229980230331421,0.11995440721511841
1771681128844662000,2.619662109375,0.018960952758789062,-1.1520707607269287,-0.2553974390029907
1771681128855019300,2.630019287109375,-0.11211872100830078,-0.5429378747940063,0.3496682345867157
1771681128865376300,2.640376220703125,-0.3332948684692383,-0.889315128326416,0.38629356026649475
1771681128875733500,2.6507333984375,0.587946891784668,-1.153089165687561,-0.20537574589252472
1771681128886090800,2.6610908203125,0.023128509521484375,-1.0655547380447388,-0.5123310685157776
1771681128896448000,2.671447998046875,0.8000078201293945,-1.3648828268051147,-0.34940963983535767
1771681128906805200,2.68180517578125,0.12003612518310547,-0.36156612634658813,-0.3309454321861267
1771681128917162200,2.692162353515625,-0.29032039642333984,-1.4283421039581299,0.31214308738708496
1771681128927519500,2.70251953125,-0.23653888702392578,-0.7256302833557129,-0.24984854459762573
1771681128937876700,2.712876708984375,0.2529764175415039,-0.3916417360305786,-0.298342764377594
1771681128948234000,2.72323388671875,0.44521427154541016,-1.8595656156539917,-0.24774855375289917
1771681128958591200,2.73359130859375,-0.21898269653320312,-0.06843197345733643,-0.16987940669059753
1771681128968948200,2.7439482421875,0.9808673858642578,-0.938841700553894,0.516097366809845
1771681128979305500,2.754305419921875,-1.4944095611572266,-1.4656403064727783,0.09623143076896667
1771681128989662700,2.764662841796875,0.5137224197387695,-0.903728723526001,0.11286786198616028
1771681129000020000,2.77502001953125,0.3808116912841797,-0.3884323239326477,-0.3928416669368744
1771681129010377200,2.785377197265625,-0.7360687255859375,-0.7977738380432129,0.22387093305587769
1771681129020734200,2.795734130859375,-0.0036869049072265625,-1.0817725658416748,-0.08294758200645447
1771681129031091500,2.806091552734375,-0.7568206787109375,-0.611054003238678,0.651520848274231
1771681129041448700,2.81644873046875,0.2758522033691406,-0.7734367847442627,-0.23778468370437622
1771681129051806000,2.826805908203125,-0.2447834014892578,-0.7731900215148926,0.13679978251457214
1771681129062163200,2.8371630859375,-0.3273038864135742,-0.8583309650421143,-0.07093864679336548
1771681129072520200,2.847520263671875,0.3723869323730469,-0.6715371608734131,0.18657061457633972
1771681129082877400,2.85787744140625,-0.2893695831298828,-0.51638263463974,-0.027897000312805176
1771681129093234700,2.868234619140625,0.1407184600830078,-0.849946141242981,0.21331894397735596
1771681129103592000,2.878592041015625,-0.7561979293823242,-1.1139477491378784,0.4861179292201996
1771681129113949200,2.88894921875,0.0903482437133789,-0.06711077690124512,0.22837889194488525
1771681129124306400,2.899306396484375,0.05169963836669922,-1.3821747303009033,0.12251690030097961
1771681129134663400,2.909663330078125,-0.3443870544433594,-0.7639490962028503,0.2509247958660126
1771681129145020700,2.920020751953125,0.7485666275024414,-0.6934546232223511,0.14693409204483032
1771681129155378000,2.9303779296875,-0.08631324768066406,-0.8215898275375366,-0.28153955936431885
1771681129165735200,2.940735107421875,0.1355733871459961,-1.1041096448898315,0.21254906058311462
1771681129176092400,2.951092529296875,-0.0008869171142578125,-0.3771998882293701,-0.32194483280181885
1771681129186449400,2.961449462890625,-0.7234134674072266,-0.7424227595329285,-0.08293494582176208
1771681129196806700,2.971806640625,-0.1748981475830078,-1.2613617181777954,-0.06550323963165283
1771681129207164000,2.982163818359375,-0.18151187896728516,-0.3358912467956543,-0.4080777168273926
1771681129217521200,2.992521240234375,-0.10470294952392578,-0.8082108497619629,0.1806664764881134
1771681129227878400,3.00287841796875,-0.001922607421875,-1.178642749786377,0.40420272946357727
1771681129238235600,3.013235595703125,0.11240959167480469,-0.7804086208343506,-0.06812727451324463
1771681129248592600,3.023592529296875,0.7126998901367188,-0.4333086609840393,-0.11930352449417114
1771681129258950000,3.033949951171875,0.5550575256347656,-0.6911724209785461,0.1500546634197235
1771681129269307100,3.04430712890625,0.35501861572265625,-1.3867335319519043,-0.13879719376564026
1771681129279664400,3.054664306640625,0.4689750671386719,-0.27632296085357666,0.17888018488883972
1771681129290021600,3.065021728515625,-0.16495227813720703,-0.9817076325416565,0.379873663187027
1771681129300378600,3.075378662109375,0.4235506057739258,-0.673222005367279,-0.13962534070014954
1771681129310736000,3.08573583984375,-0.24962139129638672,-0.3038167953491211,0.2857484221458435
1771681129321093000,3.096093017578125,0.42496681213378906,-1.3546767234802246,-0.3612380921840668
1771681129331450400,3.106450439453125,-0.02461719512939453,-0.16251415014266968,-0.2884482145309448
1771681129341807600,3.1168076171875,0.47214317321777344,-1.187737226486206,-0.337815523147583
1771681129352164900,3.127164794921875,0.0984649658203125,-0.17008888721466064,-0.10649481415748596
1771681129362521900,3.13752197265625,-0.40991783142089844,-0.9681804180145264,0.19699323177337646
1771681129372879000,3.147879150390625,0.4690237045288086,-0.5261691808700562,-0.13466574251651764
1771681129383236400,3.158236328125,-0.6988229751586914,-0.6810979843139648,-0.4446794390678406
1771681129393593600,3.168593505859375,0.6247158050537109,-0.8389476537704468,-0.2524046301841736
1771681129403950800,3.178950927734375,-0.5793838500976562,0.049283623695373535,-0.34660235047340393
1771681129414307800,3.189307861328125,0.524296760559082,-1.0234856605529785,-0.052720338106155396
1771681129424665000,3.1996650390625,-0.7103948593139648,-0.9936495423316956,-0.03169146180152893
1771681129435022300,3.210022216796875,0.11947059631347656,-0.36477571725845337,-0.22078338265419006
1771681129445379600,3.220379638671875,-0.16477012634277344,-0.46299564838409424,-0.03237953782081604
1771681129455736800,3.23073681640625,-0.035470008850097656,-0.9091503024101257,-0.07856151461601257
1771681129466094000,3.241093994140625,0.41917896270751953,-0.7311082482337952,-0.218240886926651
1771681129476451000,3.251451171875,0.7226858139038086,-0.42130720615386963,-0.2786678373813629
1771681129486808300,3.261808349609375,-0.2070903778076172,-0.9525743126869202,0.33861207962036133
1771681129497165600,3.27216552734375,0.1539163589477539,-0.385567843914032,0.12465521693229675
1771681129507522800,3.282522705078125,0.07594490051269531,-0.4417678117752075,0.2879708409309387
1771681129517880000,3.292880126953125,-0.2736530303955078,-0.3916371464729309,0.4423597455024719
1771681129528237300,3.3032373046875,-0.07862281799316406,-0.16797882318496704,-0.2552984356880188
1771681129538594300,3.31359423828125,0.23080730438232422,-0.02296757698059082,-0.43879812955856323
1771681129548951600,3.32395166015625,-0.8178329467773438,-0.8242009878158569,-0.23573249578475952
1771681129559308800,3.334308837890625,-0.5383663177490234,-0.24544233083724976,-0.17718856036663055
1771681129569666000,3.344666015625,0.23525333404541016,-0.127546489238739,0.121697336435318
1771681129580023300,3.355023193359375,-0.039257049560546875,-0.41433098912239075,-0.14978915452957153
1771681129590380300,3.36538037109375,-0.47153663635253906,-0.8380003571510315,-0.26048123836517334
1771681129600737500,3.375737548828125,0.9952239990234375,-0.052502453327178955,-0.053020328283309937
1771681129611094800,3.3860947265625,-0.5248994827270508,-0.1478484869003296,0.19915920495986938
1771681129621452000,3.3964521484375,-0.03849029541015625,-0.9832130670547485,0.2923988699913025
1771681129631809300,3.406809326171875,-0.5272645950317383,-0.6163595914840698,0.3491036295890808
1771681129642166500,3.41716650390625,0.4085426330566406,-0.18931132555007935,-0.524604320526123
1771681129652523500,3.4275234375,0.14522552490234375,-0.2472098469734192,-0.23038482666015625
1771681129662880800,3.437880859375,0.21572589874267578,-0.9867398738861084,0.1978112757205963
1771681129673238000,3.448238037109375,0.17914390563964844,-0.48813363909721375,0.5397560596466064
1771681129683595300,3.45859521484375,0.3384685516357422,-0.6850188374519348,0.6008312702178955
1771681129693952500,3.468952392578125,0.6386966705322266,-0.3708137571811676,-0.3107571601867676
1771681129704309800,3.479309814453125,0.6727218627929688,-0.6125011444091797,-0.2181059569120407
1771681129714666800,3.489666748046875,0.32978153228759766,-0.744459331035614,-0.23683838546276093
1771681129725024000,3.50002392578125,-0.506281852722168,-0.3758258819580078,0.1437431275844574
1771681129735381200,3.51038134765625,0.47391223907470703,0.21823638677597046,0.3237481117248535
1771681129745738500,3.520738525390625,-0.6116123199462891,-1.0638501644134521,0.02068239450454712
1771681129756095700,3.531095703125,-0.13082027435302734,-0.06581348180770874,-0.18982426822185516
1771681129766453000,3.541452880859375,0.44316768646240234,-0.36210906505584717,-0.18823306262493134
1771681129776810000,3.55181005859375,-0.10297393798828125,-0.6914854049682617,-0.5513071417808533
1771681129787167200,3.562167236328125,0.41648101806640625,-0.5518431663513184,0.06275990605354309
1771681129797524500,3.5725244140625,-0.1762218475341797,-0.576943576335907,-0.2517921030521393
1771681129807881700,3.5828818359375,-0.1002044677734375,-0.5314062237739563,0.06731930375099182
1771681129818239000,3.593239013671875,0.44043540954589844,-0.13567006587982178,-0.2763414680957794
1771681129828596200,3.60359619140625,-0.5526676177978516,-0.1134689450263977,0.09674817323684692
1771681129838953200,3.613953125,-0.7786626815795898,-0.7997449040412903,0.17729008197784424
1771681129849310500,3.624310546875,-0.10914039611816406,0.25049155950546265,0.16665396094322205
1771681129859667700,3.634667724609375,-0.8744163513183594,-0.4285643398761749,0.2134896218776703
1771681129870025000,3.64502490234375,-0.2362995147705078,-1.1905324459075928,-0.1816413849592209
1771681129880382200,3.65538232421875,-0.7453575134277344,-0.43627578020095825,-0.3705695569515228
1771681129890739500,3.665739501953125,0.8881921768188477,-0.7434462904930115,-0.03052651882171631
1771681129901096400,3.676096435546875,-0.26784229278564453,-1.1185640096664429,0.10187274217605591
1771681129911453700,3.68645361328125,-0.07995986938476562,-0.6563535928726196,0.44227850437164307
1771681129921811000,3.69681103515625,-0.4034280776977539,-0.8394324779510498,0.3929310441017151
1771681129932168200,3.707168212890625,-0.7474794387817383,-0.28962022066116333,0.3110092580318451
1771681129942525400,3.717525390625,0.2906990051269531,-0.901672899723053,-0.024763554334640503
1771681129952882700,3.727882568359375,-0.2272796630859375,-0.5056339502334595,-0.0955609679222107
1771681129963239700,3.73823974609375,0.22574806213378906,-1.1377336978912354,-0.06859639286994934
1771681129973597000,3.748596923828125,0.1535968780517578,-0.17280349135398865,-0.08583801984786987
1771681129983954200,3.7589541015625,0.4050264358520508,-0.5164519548416138,0.022399961948394775
1771681129994311400,3.7693115234375,0.23815536499023438,-0.6541268825531006,0.008284687995910645
1771681130004668700,3.779668701171875,0.8905792236328125,-0.5691826939582825,-0.021948963403701782
1771681130015026000,3.79002587890625,-0.2514066696166992,-0.34931105375289917,-0.07712027430534363
1771681130025383000,3.8003828125,0.5462236404418945,-0.15682384371757507,-0.30351322889328003
1771681130035740200,3.810740234375,-0.6245555877685547,-0.5377365946769714,0.041760802268981934
1771681130046097400,3.821097412109375,0.2023324966430664,-0.27260735630989075,-0.11633867025375366
1771681130056454700,3.83145458984375,0.21068572998046875,0.15322941541671753,0.29365184903144836
1771681130066812000,3.84181201171875,0.6024808883666992,-0.7794190645217896,0.3105619549751282
1771681130077169200,3.852169189453125,0.19479656219482422,-0.18159955739974976,-0.10736265778541565
1771681130087526100,3.862526123046875,0.9327621459960938,0.006134897470474243,0.15158861875534058
1771681130097883400,3.87288330078125,-0.11099433898925781,-0.6476470828056335,0.20287242531776428
1771681130108240600,3.88324072265625,0.575627326965332,-0.5214253664016724,-0.008615881204605103
1771681130118598000,3.893597900390625,0.23903751373291016,0.3889975845813751,0.04163941740989685
1771681130128955100,3.903955078125,-0.5083951950073242,-0.7891844511032104,-0.2922324240207672
1771681130139312400,3.9143125,0.3660411834716797,-0.04667219519615173,-0.6015961170196533
1771681130149669600,3.924669677734375,0.45415687561035156,0.5664291381835938,-0.46251028776168823
1771681130160026600,3.935026611328125,-0.8069543838500977,-0.7862047553062439,-0.10223373770713806
1771681130170384000,3.9453837890625,0.16663742065429688,0.5896531343460083,0.3345712423324585
1771681130180741000,3.9557412109375,-0.21068191528320312,1.236279010772705,0.19723403453826904
1771681130191098400,3.966098388671875,0.6086130142211914,2.9929072856903076,0.07931789755821228
1771681130201455600,3.97645556640625,-0.5049142837524414,-0.3697747588157654,-0.10563243925571442
1771681130211812900,3.986812744140625,1.0527114868164062,1.7136949300765991,-1.3949916362762451
1771681130222169900,3.997169921875,-0.2146615982055664,0.964004397392273,-0.44271278381347656
1771681130232527000,4.007527099609375,0.764765739440918,1.4581154584884644,-0.08709220588207245
1771681130242884400,4.01788427734375,-0.2439708709716797,2.2730894088745117,0.27098676562309265
1771681130253241600,4.02824169921875,0.8692340850830078,2.329585552215576,1.0387468338012695
1771681130263598800,4.038598876953125,-1.8103218078613281,0.28016597032546997,0.8295919895172119
1771681130273956000,4.0489560546875,0.4144134521484375,1.4649858474731445,-0.3626115024089813
1771681130284313300,4.059313232421875,-0.20913219451904297,2.8491785526275635,-0.5958173274993896
1771681130294670300,4.06967041015625,-1.1485214233398438,-0.5552740693092346,0.05194517970085144
1771681130305027600,4.080027587890625,-1.5675058364868164,-0.20159873366355896,0.3546871542930603
1771681130315384800,4.090384765625,0.1026611328125,2.4564523696899414,0.8112193942070007
1771681130325742000,4.1007421875,-0.23149394989013672,0.8365854620933533,0.5371617078781128
1771681130336099300,4.111099365234375,-1.280848503112793,-1.0083715915679932,-0.5068466067314148
1771681130346456600,4.12145654296875,-0.08882999420166016,0.6151353120803833,-0.1318734586238861
1771681130356813600,4.1318134765625,-0.4155416488647461,1.976184368133545,0.5265265703201294
1771681130367170800,4.1421708984375,-0.25463199615478516,0.08667325973510742,0.1575927436351776
1771681130377528000,4.152528076171875,-1.4283199310302734,-0.7167088985443115,0.6946794390678406
1771681130387885300,4.16288525390625,-0.22670745849609375,0.4112812280654907,0.7488563060760498
1771681130398242600,4.17324267578125,0.16272640228271484,1.6905055046081543,0.27572521567344666
1771681130408599800,4.183599853515625,-0.9048557281494141,-0.14086532592773438,0.5229581594467163
1771681130418956800,4.193956787109375,0.7822847366333008,-0.7728817462921143,0.635085940361023
1771681130429314000,4.20431396484375,0.19530582427978516,1.382234811782837,-0.26423579454421997
1771681130439671300,4.21467138671875,0.8270015716552734,0.7417125105857849,0.809922456741333
1771681130450028500,4.225028564453125,-0.49277210235595703,0.0412028431892395,1.2415366172790527
1771681130460385800,4.2353857421875,0.2886924743652344,2.2647767066955566,0.6083792448043823
1771681130470743000,4.245742919921875,-0.9653663635253906,-0.24067282676696777,0.18409276008605957
1771681130481100000,4.25610009765625,-0.6838626861572266,0.2112330198287964,-1.2460172176361084
1771681130491457300,4.266457275390625,1.0218610763549805,2.574796438217163,-0.012332290410995483
1771681130501814500,4.276814453125,0.6587505340576172,2.0495927333831787,0.9008206129074097
1771681130512171800,4.287171875,-1.6702156066894531,-1.0292134284973145,-0.3676389753818512
1771681130522529000,4.297529052734375,1.5179767608642578,0.9923883676528931,-0.024002522230148315
1771681130532886300,4.30788623046875,1.1560640335083008,1.3871440887451172,-0.09712035953998566
1771681130543243500,4.318243408203125,1.1245460510253906,-0.9708492159843445,0.377530038356781
1771681130553600500,4.3286005859375,0.6730623245239258,0.3705627918243408,1.184279441833496
1771681130563957800,4.338957763671875,1.893446922302246,2.2635955810546875,1.2839401960372925
1771681130574315000,4.34931494140625,-0.8538055419921875,-0.5105491876602173,0.5347037315368652
1771681130584672300,4.35967236328125,-0.45778846740722656,0.0793917179107666,-0.40175870060920715
1771681130595029500,4.370029541015625,-0.0939168930053711,2.877312183380127,-0.20420022308826447
1771681130605386800,4.38038671875,-2.4282007217407227,1.2425788640975952,-0.15315578877925873
1771681130615744000,4.390743896484375,-2.7324585914611816,-0.6456510424613953,-0.8918427228927612
1771681130626101000,4.40110107421875,0.03590583801269531,2.014491081237793,-1.2841122150421143
1771681130636458200,4.411458251953125,-0.1361093521118164,1.9361305236816406,-1.280585765838623
1771681130646815500,4.4218154296875,-0.3958101272583008,-0.48679620027542114,-1.4045300483703613
1771681130657172700,4.4321728515625,-0.019929885864257812,-0.1661144196987152,-1.1025131940841675
1771681130667530000,4.442530029296875,0.12334156036376953,1.475467562675476,-0.46917736530303955
1771681130677887200,4.45288720703125,-0.5547695159912109,-0.1474282145500183,-0.5687123537063599
1771681130688244500,4.463244384765625,-1.312398910522461,0.7358690500259399,-0.45514917373657227
1771681130698601500,4.4736015625,-1.3617744445800781,1.8990168571472168,0.2246069610118866
1771681130708958700,4.483958740234375,-2.7954583168029785,0.5711410045623779,0.17940682172775269
1771681130719316000,4.49431591796875,-1.5355720520019531,-0.12223243713378906,-0.44818413257598877
1771681130729673200,4.504673095703125,1.3203039169311523,2.2499613761901855,-0.1165512204170227
1771681130740030500,4.515030517578125,0.08995532989501953,0.21362513303756714,-0.33036643266677856
1771681130750387700,4.5253876953125,0.4357748031616211,-0.9088941812515259,-0.7430291771888733
1771681130760745000,4.535744873046875,2.7666263580322266,2.193514585494995,0.2333221435546875
1771681130771102000,4.54610205078125,0.10075664520263672,0.4134039878845215,0.4813506603240967
1771681130781459200,4.556459228515625,-0.46031856536865234,-1.1472430229187012,0.419919490814209
1771681130791816400,4.56681640625,0.4049510955810547,1.8838027715682983,0.27937227487564087
1771681130802173700,4.577173583984375,-0.9470767974853516,1.5521059036254883,0.6005858182907104
1771681130812531000,4.587531005859375,-1.4124860763549805,-0.030222594738006592,0.8592756986618042
1771681130822888200,4.59788818359375,-0.244232177734375,0.9934574961662292,0.18174266815185547
1771681130833245200,4.6082451171875,0.6704797744750977,1.626260757446289,0.6168133020401001
1771681130843602400,4.6186025390625,0.1723642349243164,-0.0042476654052734375,0.5376111268997192
1771681130853959700,4.628959716796875,2.2127647399902344,0.9758875370025635,0.2324279546737671
1771681130864317000,4.63931689453125,0.8348598480224609,0.33116477727890015,0.598106861114502
1771681130874674200,4.649674072265625,0.47010135650634766,-0.435792475938797,-0.004008293151855469
1771681130885031400,4.660031494140625,0.9440937042236328,2.098268985748291,-0.5403839945793152
1771681130895388700,4.670388671875,-1.010634422302246,1.0682287216186523,0.08599016070365906
1771681130905745700,4.68074560546875,-1.3158540725708008,-0.774584949016571,0.31489887833595276
1771681130916103000,4.69110302734375,-0.023575782775878906,2.171720504760742,0.31572648882865906
1771681130926460200,4.701460205078125,0.3607521057128906,1.7488799095153809,0.6488821506500244
1771681130936817400,4.7118173828125,-0.4993705749511719,-0.9424351453781128,0.40609800815582275
1771681130947174700,4.722174560546875,1.7574501037597656,1.8233282566070557,0.3271617889404297
1771681130957532000,4.732531982421875,0.09174919128417969,0.582309365272522,1.483648419380188
1771681130967889200,4.74288916015625,0.3611154556274414,0.5109495520591736,0.0024354159832000732
1771681130978246400,4.753246337890625,1.558359146118164,1.8076735734939575,0.3197941184043884
1771681130988603400,4.763603271484375,-0.9877433776855469,2.0424652099609375,-0.6759322285652161
1771681130998960600,4.773960693359375,-0.3815479278564453,-1.613276720046997,-0.006298452615737915
1771681131009318000,4.78431787109375,-0.0680398941040039,2.1788816452026367,-0.012887716293334961
1771681131019675100,4.794675048828125,-0.24710559844970703,1.7823169231414795,-0.31780779361724854
1771681131030032400,4.805032470703125,-0.7453327178955078,-0.07334381341934204,0.2252679467201233
1771681131040389600,4.8153896484375,-0.089447021484375,1.425182580947876,0.3754989504814148
1771681131050747000,4.825746826171875,-0.034394264221191406,0.6030223369598389,0.7153576612472534
1771681131061104000,4.836104248046875,0.5839052200317383,1.0825753211975098,0.3309355676174164
1771681131071461000,4.846461181640625,0.21002483367919922,1.5050151348114014,0.35556653141975403
1771681131081818400,4.856818359375,-0.3944578170776367,0.4371950626373291,0.8169323205947876
1771681131092175600,4.867175537109375,0.5825843811035156,1.4150969982147217,0.11955463886260986
1771681131102532900,4.877532958984375,1.0869255065917969,2.382370710372925,0.26934394240379333
1771681131112890000,4.88789013671875,-1.8733396530151367,0.2573510408401489,-0.6507880091667175
1771681131123247400,4.898247314453125,-0.9569120407104492,-0.4799612760543823,-0.6161643266677856
1771681131133604400,4.908604248046875,0.03104400634765625,2.2187328338623047,0.18336671590805054
1771681131143961600,4.918961669921875,-0.771122932434082,0.529491662979126,-0.3709796369075775
1771681131154318800,4.92931884765625,-0.39192867279052734,0.5021898150444031,-0.8328622579574585
1771681131164676000,4.939676025390625,0.9434127807617188,1.783833622932434,-0.4261782765388489
1771681131175033300,4.950033447265625,-1.5219850540161133,-0.0011274218559265137,-0.47316494584083557
1771681131185390600,4.960390625,0.7686824798583984,1.496805191040039,-0.05961999297142029
1771681131195747800,4.970747802734375,0.5568733215332031,2.170456647872925,-0.40426838397979736
1771681131206105000,4.98110498046875,-1.7285594940185547,-0.9453214406967163,-0.2971625328063965
1771681131216462000,4.991462158203125,1.5340795516967773,1.7499167919158936,-0.5153351426124573
1771681131226819300,5.0018193359375,-0.24547767639160156,1.9971349239349365,-0.11294767260551453
1771681131237176600,5.012176513671875,-1.0132112503051758,-0.40902990102767944,-0.2993294298648834
1771681131247533800,5.022533935546875,0.2069540023803711,-0.2167268991470337,-1.0128170251846313
1771681131257891000,5.03289111328125,0.2732124328613281,1.7969235181808472,0.2537027597427368
1771681131268248300,5.043248291015625,-0.6700868606567383,0.2986757159233093,-0.6477334499359131
1771681131278605600,5.05360546875,0.2459850311279297,1.5305192470550537,0.028131872415542603
1771681131288962800,5.063962890625,-0.48252391815185547,0.6645914316177368,0.5205329656600952
1771681131299319800,5.07431982421875,0.7195186614990234,1.1354663372039795,0.16180101037025452
1771681131309677000,5.084677001953125,-0.3227863311767578,1.4564746618270874,0.46424803137779236
1771681131320034300,5.095034423828125,-0.10938739776611328,-0.5973267555236816,0.0720190703868866
1771681131330391600,5.1053916015625,0.5259904861450195,2.1491878032684326,-0.3251555562019348
1771681131340748800,5.115748779296875,-0.33685874938964844,1.7562522888183594,-0.6883593797683716
1771681131351106000,5.12610595703125,-0.7487697601318359,-0.1074022650718689,-0.30672094225883484
1771681131361463300,5.13646337890625,1.2701473236083984,2.509233236312866,0.07103079557418823
1771681131371820300,5.1468203125,-1.1388416290283203,0.9319279193878174,0.266743540763855
1771681131382177500,5.157177490234375,0.12447357177734375,0.8240192532539368,0.3645780682563782
1771681131392534800,5.16753466796875,0.3009824752807617,2.0645976066589355,0.9762246608734131
1771681131402892000,5.17789208984375,-0.3513031005859375,-0.13089913129806519,0.94671630859375
1771681131413249300,5.188249267578125,0.7979040145874023,1.5375251770019531,-0.011361181735992432
1771681131423606500,5.1986064453125,-0.7077407836914062,1.9253658056259155,0.11783277988433838
1771681131433963800,5.2089638671875,-0.7846708297729492,-0.70139080286026,0.20434901118278503
1771681131444321000,5.219321044921875,1.033823013305664,2.282649517059326,0.08818268775939941
1771681131454678000,5.229677978515625,-1.3771648406982422,0.5930217504501343,0.1304088830947876
1771681131465035300,5.24003515625,0.5071468353271484,-0.018352508544921875,-0.4004417657852173
1771681131475392500,5.250392578125,0.31729793548583984,2.207040786743164,0.7449847459793091
1771681131485749800,5.260749755859375,-0.4116554260253906,0.25492966175079346,0.7166935205459595
1771681131496107000,5.27110693359375,-0.02158832550048828,1.0131137371063232,-0.01220431923866272
1771681131506464300,5.28146435546875,-0.7783355712890625,1.8507810831069946,0.7245023250579834
1771681131516821500,5.291821533203125,0.1471710205078125,-0.4879387319087982,0.4706183075904846
1771681131527178800,5.3021787109375,0.7720880508422852,2.206423282623291,0.05650225281715393
1771681131537536000,5.312535888671875,-1.530980110168457,0.5129544734954834,0.20589518547058105
1771681131547893000,5.32289306640625,0.5207014083862305,1.0673494338989258,-0.3768641948699951
1771681131558250200,5.333250244140625,0.1278219223022461,2.4104692935943604,-0.22650201618671417
1771681131568607500,5.343607421875,-0.8966789245605469,-0.7569806575775146,0.05914866924285889
1771681131578964700,5.35396484375,1.5711259841918945,2.388446092605591,-0.4889678955078125
1771681131589322000,5.364322021484375,-1.8248023986816406,1.8634684085845947,-0.2376965433359146
1771681131599679200,5.37467919921875,0.8720684051513672,-0.5079402923583984,0.7055180668830872
1771681131610036500,5.385036376953125,-0.16609668731689453,2.2584657669067383,0.5961755514144897
1771681131620393700,5.395393798828125,-0.3258352279663086,0.005871593952178955,0.36137858033180237
1771681131630750700,5.405750732421875,0.5725011825561523,1.0212159156799316,0.18057465553283691
1771681131641108000,5.41610791015625,-0.5604362487792969,1.4636149406433105,0.30339786410331726
1771681131651465200,5.42646533203125,0.5603132247924805,-0.43801894783973694,-0.8612881302833557
1771681131661822500,5.436822509765625,-0.42208385467529297,2.07641863822937,-0.6823837757110596
1771681131672179700,5.4471796875,-2.0275654792785645,0.15165919065475464,0.031452834606170654
1771681131682537000,5.457536865234375,0.7199440002441406,1.0123248100280762,-0.5078061819076538
1771681131692894200,5.467894287109375,-0.4205312728881836,1.1672098636627197,-0.07112786173820496
1771681131703251500,5.47825146484375,0.5327777862548828,-0.4299625754356384,-0.15942367911338806
1771681131713608700,5.488608642578125,0.600651741027832,2.3191237449645996,0.23560792207717896
1771681131723966000,5.498966064453125,-1.7807064056396484,0.1812509298324585,0.997000515460968
1771681131734323000,5.509322998046875,0.0950765609741211,0.3636956214904785,0.25305500626564026
1771681131744680200,5.51968017578125,-0.3922004699707031,2.2362334728240967,0.08583611249923706
1771681131755037400,5.530037353515625,-0.5202226638793945,-0.8861979246139526,-0.3011920154094696
1771681131765394700,5.540394775390625,0.4954795837402344,2.262537717819214,-0.4976637661457062
1771681131775752000,5.550751953125,-1.6660804748535156,0.3519417643547058,-0.30914002656936646
1771681131786109200,5.561109130859375,0.2355785369873047,1.232072353363037,-0.48918789625167847
1771681131796466400,5.571466552734375,-0.14231491088867188,1.116449236869812,0.8009661436080933
1771681131806823400,5.581823486328125,0.659916877746582,-0.09386378526687622,0.38838404417037964
1771681131817180700,5.5921806640625,0.9327411651611328,2.3028297424316406,0.2539164125919342
1771681131827538000,5.602537841796875,-0.6856174468994141,-0.08146321773529053,0.3305966854095459
1771681131837895200,5.612895263671875,0.9034490585327148,0.9316569566726685,-0.2971010208129883
1771681131848252400,5.62325244140625,-1.2350902557373047,1.890030860900879,0.09846287965774536
1771681131858609700,5.633609619140625,0.3791179656982422,-0.25158071517944336,-0.7522537112236023
1771681131868967000,5.643966796875,0.21598434448242188,2.212094306945801,-0.13752296566963196
1771681131879324200,5.65432421875,-1.6822566986083984,-0.3033550977706909,-0.1996755450963974
1771681131889681400,5.664681396484375,1.7137832641601562,1.2883327007293701,-0.737213134765625
1771681131900038700,5.67503857421875,-0.9614782333374023,1.7426533699035645,0.26331621408462524
1771681131910395600,5.685395751953125,1.9576711654663086,-1.0218489170074463,0.18805155158042908
1771681131920753000,5.6957529296875,0.3919401168823242,2.110051393508911,0.015499472618103027
1771681131931110100,5.706110107421875,-0.7452125549316406,-0.9678080081939697,0.6150933504104614
1771681131941467400,5.71646728515625,1.6771907806396484,2.0860583782196045,-0.28129589557647705
1771681131951824600,5.72682470703125,-2.1531777381896973,0.3242952823638916,1.095778226852417
1771681131962182000,5.737181884765625,0.8024091720581055,-0.3248560428619385,-1.0578609704971313
1771681131972539100,5.7475390625,-1.479081153869629,2.1567282676696777,-0.2850636839866638
1771681131982896400,5.757896484375,-1.3467111587524414,-0.7023032307624817,-0.2570016384124756
1771681131993253600,5.768253662109375,0.6903419494628906,1.654726505279541,-0.5608468055725098
1771681132003611000,5.77861083984375,-2.1687002182006836,0.3370838761329651,0.9618798494338989
1771681132013968000,5.7889677734375,2.1474170684814453,1.2643290758132935,0.6914260983467102
1771681132024325000,5.7993251953125,-1.3976097106933594,0.9288187623023987,1.401809573173523
1771681132034682400,5.809682373046875,0.6184015274047852,0.869581937789917,1.2713384628295898
1771681132045039600,5.82003955078125,-0.7242794036865234,1.237926959991455,1.9313808679580688
1771681132055396900,5.83039697265625,-1.330927848815918,1.1605901718139648,-2.7909348011016846
1771681132065754000,5.840754150390625,-0.7759943008422852,0.6841262578964233,2.228080987930298
1771681132076111400,5.851111328125,-1.6575183868408203,0.1959490180015564,0.6749645471572876
1771681132086468600,5.861468505859375,1.2940778732299805,0.8326709866523743,-0.7328366637229919
1771681132096825900,5.871825927734375,-0.4349937438964844,0.8659712076187134,-1.0114949941635132
1771681132107182800,5.882182861328125,0.9121303558349609,0.4902527928352356,-1.514154314994812
1771681132117540000,5.8925400390625,0.4515047073364258,2.03005313873291,0.4110732078552246
1771681132127897300,5.9028974609375,-0.8076601028442383,-0.8859444856643677,0.5984481573104858
1771681132138254600,5.913254638671875,0.7434854507446289,1.3078272342681885,-0.3515836000442505
1771681132148611800,5.92361181640625,-1.2563905715942383,1.35422945022583,-0.0725356936454773
1771681132158969000,5.933968994140625,1.560847282409668,0.30328768491744995,-0.8492357134819031
1771681132169326300,5.944326416015625,-1.0257501602172852,0.9863693118095398,-0.14010055363178253
1771681132179683600,5.95468359375,0.6689538955688477,0.6625843644142151,-0.3318060040473938
1771681132190040800,5.965040771484375,-0.5739927291870117,1.2711544036865234,-0.007555186748504639
1771681132200398000,5.975398193359375,-1.1551504135131836,-1.0986201763153076,0.3270786702632904
1771681132210755300,5.98575537109375,1.4564847946166992,2.3162407875061035,0.1716117560863495
1771681132221112300,5.9961123046875,-0.7409572601318359,-0.20289570093154907,0.6599727869033813
1771681132231469600,6.006469482421875,1.6000051498413086,1.1778234243392944,-0.25076204538345337
1771681132241826800,6.016826904296875,-1.6121892929077148,0.8525629043579102,0.7564988136291504
1771681132252184000,6.02718408203125,1.1151247024536133,0.6749864220619202,-0.8951812982559204
1771681132262541300,6.037541259765625,-1.9167718887329102,0.8757309913635254,-0.7324810028076172
1771681132272898600,6.047898681640625,0.6751823425292969,0.4264051914215088,-0.7158021926879883
1771681132283255800,6.058255859375,-0.20972061157226562,1.8470990657806396,-0.709121823310852
1771681132293613000,6.068613037109375,0.026958465576171875,-0.5118528604507446,-0.19669677317142487
1771681132303970300,6.07897021484375,1.070033073425293,2.094305992126465,0.22801217436790466
1771681132314327600,6.08932763671875,-1.1453933715820312,0.207802414894104,1.0519318580627441
1771681132324684500,6.0996845703125,1.0797309875488281,1.253533124923706,-0.059262096881866455
1771681132335041800,6.110041748046875,-1.209702491760254,0.24031108617782593,0.5695174932479858
1771681132345399000,6.12039892578125,1.6695175170898438,0.6581088304519653,-0.49530690908432007
1771681132355756300,6.13075634765625,-0.6118249893188477,1.629606008529663,-0.3999462127685547
1771681132366113500,6.141113525390625,0.7644281387329102,-0.38321632146835327,-0.3392521142959595
1771681132376470800,6.151470703125,-0.39030933380126953,1.1049625873565674,0.7870453596115112
1771681132386828000,6.161828125,0.36954498291015625,0.5993512272834778,0.32614970207214355
1771681132397185300,6.172185302734375,0.4283885955810547,0.4901500940322876,0.3472422659397125
1771681132407542500,6.18254248046875,-0.8902568817138672,-0.40612685680389404,0.7508421540260315
1771681132417899800,6.192899658203125,1.3557920455932617,1.245721459388733,-0.2423095405101776
1771681132428256800,6.2032568359375,-1.2898902893066406,0.5508675575256348,0.03565257787704468
1771681132438614000,6.213614013671875,1.5466976165771484,-0.14849954843521118,-0.460808128118515
1771681132448971300,6.22397119140625,-1.0205974578857422,0.5911946296691895,-0.03178560733795166
1771681132459328500,6.23432861328125,2.1422691345214844,1.0467860698699951,-0.5716687440872192
1771681132469685800,6.244685791015625,-0.8799266815185547,0.7017040252685547,0.29345884919166565
1771681132480043000,6.25504296875,0.8672313690185547,0.12038159370422363,0.10707804560661316
1771681132490400300,6.265400146484375,-0.41883087158203125,1.0443909168243408,0.5470867156982422
1771681132500757500,6.275757568359375,0.1934375762939453,0.32595157623291016,0.39857935905456543
1771681132511114800,6.28611474609375,-0.4011192321777344,1.683699607849121,0.6084944009780884
1771681132521472000,6.296471923828125,-0.7771587371826172,-0.05252128839492798,-0.6008482575416565
1771681132531829200,6.306829345703125,-0.056496620178222656,0.766334056854248,-0.9799363017082214
1771681132542186200,6.317186279296875,-0.6530179977416992,1.1257437467575073,-0.08180022239685059
1771681132552543500,6.32754345703125,1.2272987365722656,1.2334012985229492,-0.9283543229103088
1771681132562900700,6.337900634765625,-1.4250459671020508,-0.2892945408821106,0.09216311573982239
1771681132573258000,6.348258056640625,0.9919424057006836,1.1150752305984497,0.3873392641544342
1771681132583615200,6.358615234375,-1.0893754959106445,0.3713923692703247,1.1406924724578857
1771681132593984000,6.36898388671875,0.5724849700927734,0.3113844394683838,0.17803102731704712
1771681132604329700,6.379329833984375,-1.7488689422607422,0.48391616344451904,0.8867961168289185
1771681132614707500,6.38970751953125,1.1031341552734375,0.4101163148880005,-0.44326919317245483
1771681132625044200,6.400044189453125,-0.8042612075805664,0.5660709142684937,-0.7859327793121338
1771681132635431200,6.41043115234375,0.13104629516601562,-0.13308316469192505,-0.27200832962989807
1771681132645758700,6.4207587890625,-0.10789108276367188,1.4708012342453003,0.1358841061592102
1771681132656124400,6.43112451171875,-0.561192512512207,0.13786911964416504,0.43054792284965515
1771681132666473000,6.441472900390625,-0.1205129623413086,0.8769638538360596,0.3135691285133362
1771681132676847900,6.451847900390625,-0.16801166534423828,-0.06803041696548462,0.29312387108802795
1771681132687187500,6.4621875,1.3076467514038086,1.1608065366744995,-0.35282236337661743
1771681132697544700,6.472544677734375,-1.034733772277832,0.04777514934539795,-0.42021068930625916
1771681132707918000,6.48291796875,0.2640371322631836,1.1474980115890503,0.001129239797592163
1771681132718264800,6.493264892578125,-1.786992073059082,0.6671524047851562,0.2803899943828583
1771681132728641800,6.503641845703125,0.575739860534668,1.1901804208755493,-0.32957884669303894
1771681132738988300,6.51398828125,-0.5452032089233398,0.22011780738830566,0.5100767612457275
1771681132749331000,6.5243310546875,1.878922462463379,0.7770429849624634,-0.011725544929504395
1771681132759688200,6.534688232421875,-0.4624900817871094,0.783898115158081,0.25312310457229614
1771681132770045400,6.54504541015625,0.7225837707519531,0.6811237335205078,0.2195536196231842
1771681132780402700,6.555402587890625,-1.062180519104004,-0.004161953926086426,0.19297459721565247
1771681132790760000,6.565760009765625,0.16013622283935547,1.0075589418411255,-0.5818470120429993
1771681132801117000,6.576116943359375,-1.0313911437988281,0.047802090644836426,-0.03786998987197876
1771681132811474200,6.58647412109375,0.6323776245117188,1.5254632234573364,-0.7247180938720703
1771681132821831400,6.59683154296875,-0.8897686004638672,0.05212545394897461,-0.10523267090320587
1771681132832188700,6.607188720703125,1.0458097457885742,0.9117083549499512,0.1390448808670044
1771681132842546000,6.6175458984375,-0.8615942001342773,0.5810484886169434,0.6226579546928406
1771681132852903200,6.627903076171875,1.5632352828979492,0.7450360059738159,-0.16512420773506165
1771681132863260400,6.638260498046875,-1.2786636352539062,-0.3778333067893982,0.32782983779907227
1771681132873617700,6.64861767578125,1.340531349182129,0.8599963188171387,-0.41746610403060913
1771681132883975000,6.658974853515625,-0.9423122406005859,0.23551559448242188,-0.11601363122463226
1771681132894332200,6.669332275390625,1.3013076782226562,1.3592684268951416,-0.29098594188690186
1771681132904689400,6.679689453125,-0.8931064605712891,0.5258224010467529,0.43708425760269165
1771681132915046700,6.690046630859375,1.2501897811889648,1.0852445363998413,-0.5153666734695435
1771681132925404000,6.70040380859375,-0.9130229949951172,0.013484358787536621,0.7929699420928955
1771681132935761000,6.710760986328125,1.0751752853393555,0.8080734014511108,0.25752589106559753
1771681132946118100,6.7211181640625,-1.1496810913085938,0.703654408454895,0.18031489849090576
1771681132956475400,6.731475341796875,0.6934413909912109,0.27483928203582764,-0.12368716299533844
1771681132966832600,6.74183251953125,-1.1748170852661133,0.6274688243865967,-0.04435130953788757
1771681132977190000,6.75218994140625,1.1170711517333984,1.4233688116073608,-0.6839424967765808
1771681132987547100,6.762547119140625,-1.0243949890136719,0.661318302154541,0.6163318157196045
1771681132997904400,6.772904296875,0.43647193908691406,-0.04902946949005127,0.6300289630889893
1771681133008261600,6.78326171875,-0.44295310974121094,0.5835392475128174,0.3487301170825958
1771681133018619000,6.793618896484375,0.6058998107910156,1.012572169303894,-1.0417944192886353
1771681133028976000,6.80397607421875,-0.9112625122070312,-0.6076825857162476,-0.32478126883506775
1771681133039333400,6.81433349609375,0.42052268981933594,1.2818914651870728,-0.6259405016899109
1771681133049690600,6.824690673828125,0.061417579650878906,0.5752142667770386,0.372087299823761
1771681133060048000,6.8350478515625,0.3787727355957031,0.7503687143325806,-0.15550866723060608
1771681133070405000,6.845405029296875,-1.4910688400268555,-0.20658326148986816,0.4306902587413788
1771681133080762000,6.85576220703125,2.062042236328125,1.9582005739212036,0.18857571482658386
1771681133091119400,6.866119384765625,-1.2083120346069336,0.158422589302063,0.9184284210205078
1771681133101476600,6.8764765625,1.9979934692382812,0.6965912580490112,0.3300448954105377
1771681133111833900,6.886833740234375,-1.0955352783203125,-0.24115204811096191,0.38660722970962524
1771681133122191000,6.897191162109375,1.3490314483642578,1.5678166151046753,-0.18464185297489166
1771681133132548400,6.90754833984375,-1.5328311920166016,0.257706880569458,0.02658545970916748
1771681133142905600,6.917905517578125,1.4785194396972656,1.8435437679290771,-0.09795042872428894
1771681133153262800,6.928262939453125,-2.0935072898864746,0.04130876064300537,0.6409727334976196
1771681133163620000,6.9386201171875,1.4443473815917969,1.0741814374923706,-0.027574092149734497
1771681133173977300,6.948977294921875,-1.9270901679992676,-0.30141717195510864,0.6469162702560425
1771681133184334600,6.95933447265625,1.693857192993164,1.434453010559082,-0.21778492629528046
1771681133194691800,6.96969189453125,-0.8690891265869141,-0.5407084822654724,-0.07338103652000427
1771681133205048800,6.980048828125,0.8803024291992188,0.8397504091262817,-0.4191783368587494
1771681133215406000,6.990406005859375,-0.4705057144165039,0.48410511016845703,0.044607847929000854
1771681133225763300,7.000763427734375,0.4615812301635742,1.8336799144744873,-0.43114763498306274
1771681133236120600,7.01112060546875,-1.8668441772460938,-0.4262050986289978,0.3786434233188629
1771681133246477800,7.021477783203125,1.3482341766357422,1.4697073698043823,-0.34046506881713867
1771681133256835000,7.0318349609375,-1.4955558776855469,0.3207191228866577,0.3058575391769409
1771681133267192300,7.0421923828125,1.7042303085327148,0.3603041172027588,-0.5530562400817871
1771681133277549600,7.052549560546875,-1.111699104309082,-0.05684173107147217,-0.368068665266037
1771681133287906800,7.06290673828125,0.970123291015625,1.565251350402832,-0.8629621267318726
1771681133298264000,7.07326416015625,0.02740192413330078,0.8681225776672363,-0.8059008121490479
1771681133308621300,7.083621337890625,-0.3400278091430664,1.0458364486694336,-0.9122625589370728
1771681133318978600,7.093978515625,0.21718883514404297,0.6762025356292725,1.2591443061828613
1771681133329335800,7.104335693359375,-0.6639404296875,1.019627571105957,0.6532989740371704
1771681133339693000,7.114693115234375,0.4167308807373047,0.20199859142303467,0.10211479663848877
1771681133350050300,7.12505029296875,-0.966156005859375,-0.19324719905853271,0.1798393428325653
1771681133360407600,7.135407470703125,1.5950851440429688,1.7445672750473022,-0.6881442070007324
1771681133370764800,7.145764892578125,-0.5497608184814453,0.43842804431915283,-0.40068355202674866
1771681133381122000,7.1561220703125,0.9268217086791992,1.560706377029419,0.06935566663742065
1771681133391479000,7.16647900390625,-1.567244529724121,-0.10533297061920166,0.06902799010276794
1771681133401836300,7.176836181640625,0.4083681106567383,1.4122511148452759,-0.0670110285282135
1771681133412193500,7.187193603515625,-1.774214744567871,-0.4743373394012451,0.7653886079788208
1771681133422550800,7.19755078125,-0.08697509765625,0.9590388536453247,-0.050526559352874756
1771681133432908000,7.207907958984375,-1.048752784729004,0.05776643753051758,-0.6881438493728638
1771681133443265300,7.218265380859375,1.1783943176269531,0.8076884746551514,-1.0413343906402588
1771681133453622500,7.22862255859375,0.5023441314697266,0.505286693572998,-0.8724098205566406
1771681133463979800,7.238979736328125,0.5082950592041016,1.0152264833450317,0.25136032700538635
1771681133474337000,7.2493369140625,0.14911842346191406,0.6781960725784302,0.31064102053642273
1771681133484694300,7.2596943359375,-0.8035821914672852,0.25669097900390625,-0.061586350202560425
1771681133495051500,7.270051513671875,0.3537101745605469,0.22014641761779785,-0.3298066556453705
1771681133505408800,7.28040869140625,-0.652043342590332,0.9646890163421631,-0.812179684638977
1771681133515766000,7.29076611328125,0.4856529235839844,0.9654556512832642,-0.46713271737098694
1771681133526123000,7.301123046875,-1.4130973815917969,0.653110146522522,0.20593884587287903
1771681133536480300,7.311480224609375,0.3996124267578125,1.650108814239502,-0.22116777300834656
1771681133546837500,7.32183740234375,-0.15275192260742188,-0.19377946853637695,0.35315001010894775
1771681133557194800,7.33219482421875,0.75946044921875,0.6426404714584351,-0.11161878705024719
1771681133567552000,7.342552001953125,-0.6101531982421875,-0.7042899131774902,0.22389519214630127
1771681133577909200,7.3529091796875,-0.7471456527709961,0.595067024230957,0.14426681399345398
1771681133588266500,7.3632666015625,-1.8125810623168945,-0.7902607917785645,0.7127996683120728
1771681133598623700,7.373623779296875,-1.2069883346557617,0.8431854248046875,-0.611732006072998
1771681133608981000,7.38398095703125,-1.2165803909301758,-0.5978187918663025,0.21948400139808655
1771681133619338200,7.394338134765625,-0.5648994445800781,-0.15652775764465332,-0.5560554265975952
1771681133629695500,7.404695556640625,-0.2013998031616211,-0.6584630608558655,0.11814135313034058
1771681133640052700,7.415052734375,0.08485794067382812,-1.0254157781600952,0.5101456642150879
1771681133650410000,7.425409912109375,-0.1476602554321289,-0.22864681482315063,1.1608127355575562
1771681133660767200,7.435767333984375,0.004642486572265625,-0.6148642897605896,0.6042034029960632
1771681133671124500,7.44612451171875,-0.10371017456054688,-1.0804693698883057,0.28353768587112427
1771681133681481700,7.456481689453125,-0.3764486312866211,-2.034579277038574,-0.18633949756622314
1771681133691839000,7.4668388671875,0.057956695556640625,-0.10966730117797852,-0.7720521092414856
1771681133702196000,7.477196044921875,0.4077014923095703,-1.089255928993225,-0.6138417720794678
1771681133712553200,7.48755322265625,-0.36513614654541016,-1.615954041481018,-0.40648868680000305
1771681133722910500,7.497910400390625,0.2364673614501953,-1.5956056118011475,0.0038762688636779785
1771681133733267700,7.508267822265625,0.31865501403808594,-0.11482560634613037,0.3584904968738556
1771681133743625000,7.518625,0.1237945556640625,-1.1106421947479248,0.3180312216281891
1771681133753982200,7.528982177734375,-0.7221250534057617,-1.3332648277282715,0.4511614143848419
1771681133764339500,7.53933935546875,0.36981868743896484,-1.1924768686294556,-0.32119208574295044
1771681133774696700,7.54969677734375,0.7239656448364258,-0.9735916256904602,-0.7991305589675903
1771681133785054000,7.560053955078125,0.2013072967529297,-1.404831051826477,-0.39290672540664673
1771681133795411200,7.5704111328125,0.26963043212890625,-0.940850555896759,-0.014655768871307373
1771681133805768400,7.5807685546875,0.11339759826660156,-0.21791648864746094,0.19880130887031555
1771681133816125700,7.591125732421875,0.7404985427856445,-1.2681926488876343,-0.1997535228729248
1771681133826483000,7.60148291015625,0.5164804458618164,-1.1049296855926514,-0.7166233062744141
1771681133836840200,7.611840087890625,1.3002538681030273,0.012470424175262451,-0.4173436760902405
1771681133847197400,7.622197509765625,0.6405105590820312,-1.6851222515106201,0.07818970084190369
1771681133857554700,7.6325546875,0.018317222595214844,-0.7639225721359253,0.6739124059677124
1771681133867912000,7.642911865234375,0.8774919509887695,-1.0882686376571655,0.6069542169570923
1771681133878269200,7.653269287109375,1.1331567764282227,-0.8232533931732178,0.31286659836769104
1771681133888626200,7.663626220703125,0.18999671936035156,-1.4978690147399902,0.10763493180274963
1771681133898983400,7.6739833984375,1.7459917068481445,-0.9570081233978271,-0.024415820837020874
1771681133909340700,7.684340576171875,-0.08645057678222656,-1.0386412143707275,0.10803937911987305
1771681133919698000,7.694697998046875,0.6373491287231445,-1.0706881284713745,-0.37940922379493713
1771681133930055200,7.70505517578125,0.23039817810058594,-1.0530891418457031,0.11590582132339478
1771681133940412400,7.715412353515625,0.4832925796508789,-0.09272950887680054,-0.8283947706222534
1771681133950769700,7.725769775390625,0.6448173522949219,-1.285372018814087,-0.7261784076690674
1771681133961127000,7.736126953125,-0.03651905059814453,-1.1150943040847778,-0.22899764776229858
1771681133971484200,7.746484130859375,0.9307537078857422,-0.22435158491134644,0.2551862299442291
1771681133981841400,7.75684130859375,-0.25972747802734375,-0.6337199211120605,0.11194184422492981
1771681133992198700,7.76719873046875,-0.31584930419921875,0.041422128677368164,0.23861977458000183
1771681134002556000,7.777555908203125,-1.0020294189453125,-1.7118480205535889,-0.128989577293396
1771681134012913200,7.7879130859375,0.6646347045898438,-0.3729109764099121,-0.07118856906890869
1771681134023270400,7.7982705078125,-0.5372295379638672,-0.5782850980758667,0.4844168722629547
1771681134033627600,7.808627685546875,0.8680419921875,0.07574462890625,0.24740737676620483
1771681134043985000,7.81898486328125,-1.9789490699768066,-1.5122909545898438,0.18984252214431763
1771681134054342100,7.829342041015625,0.2700462341308594,-0.3807544708251953,-0.3870086967945099
1771681134064699400,7.839699462890625,-1.0574464797973633,-0.10309207439422607,-0.28588515520095825
1771681134075056400,7.850056396484375,-0.009082794189453125,-1.1674578189849854,0.24642494320869446
1771681134085413600,7.86041357421875,-0.8681097030639648,-0.5914891958236694,0.12436789274215698
1771681134095771000,7.87077099609375,0.36583995819091797,0.047979116439819336,0.401038259267807
1771681134106128100,7.881128173828125,-0.17441463470458984,-0.5379271507263184,0.4004797637462616
1771681134116485400,7.8914853515625,-0.2240009307861328,-1.2494328022003174,0.1742354929447174
1771681134126842600,7.901842529296875,0.6693019866943359,-0.13046443462371826,-0.16369317471981049
1771681134137199900,7.912199951171875,0.42420482635498047,-0.4627952575683594,-0.5580609440803528
1771681134147557000,7.92255712890625,0.22028064727783203,-1.3575897216796875,0.04901638627052307
1771681134157914400,7.932914306640625,0.303314208984375,-0.12836790084838867,-0.2671234607696533
1771681134168271600,7.943271728515625,-0.6307430267333984,-1.006982684135437,0.8030885457992554
1771681134178628900,7.95362890625,-0.3404207229614258,-0.48189032077789307,0.4927338659763336
1771681134188986000,7.963986083984375,-0.4757213592529297,-0.9723290205001831,-0.11470925807952881
1771681134199343400,7.97434326171875,0.5039730072021484,-0.1054983139038086,-0.6379213333129883
1771681134209700600,7.98470068359375,0.08487606048583984,-0.8993830680847168,-0.09986883401870728
1771681134220057900,7.995057861328125,-0.5407371520996094,-0.7322083711624146,0.354505330324173
1771681134230415000,8.0054150390625,-0.2769460678100586,-0.40459883213043213,0.062297314405441284
1771681134240772400,8.0157724609375,-0.10207462310791016,-0.5863196849822998,-0.04170122742652893
1771681134251129600,8.026129638671875,-0.3668966293334961,0.0372735857963562,-0.48845481872558594
1771681134261486600,8.036486572265625,-0.15375137329101562,-0.9461636543273926,-0.5288938879966736
1771681134271843800,8.04684375,-1.1201972961425781,-1.1973307132720947,0.5648969411849976
1771681134282201000,8.057201171875,-0.050698280334472656,0.8131436705589294,-0.24891281127929688
1771681134292558300,8.067558349609374,-0.29911327362060547,-1.2023001909255981,-0.21581467986106873
1771681134302915600,8.07791552734375,-0.6469640731811523,-1.3260787725448608,-0.32254618406295776
1771681134313272800,8.08827294921875,-0.06795883178710938,-0.2654987573623657,0.18195658922195435
1771681134323630000,8.098630126953125,1.3855972290039062,-0.3144381642341614,-0.2884938716888428
1771681134333987300,8.1089873046875,-0.7328310012817383,-1.1467069387435913,0.11066675186157227
1771681134344344600,8.119344482421875,0.6674842834472656,-0.8626085519790649,-0.015790432691574097
1771681134354701800,8.129701904296875,0.7849569320678711,-0.6173522472381592,0.11799794435501099
1771681134365059000,8.14005908203125,0.009496688842773438,-0.8291495442390442,-0.3544447422027588
1771681134375416300,8.150416259765626,0.20029830932617188,-1.2461133003234863,0.052757441997528076
1771681134385773600,8.160773681640626,-0.3063392639160156,-0.38288187980651855,0.5526059865951538
1771681134396130800,8.171130859375,-0.46325016021728516,-1.1186646223068237,0.049347251653671265
1771681134406488000,8.181488037109375,0.3851356506347656,-0.831592321395874,-0.5168672800064087
1771681134416845300,8.19184521484375,1.0237531661987305,-0.5426023602485657,-0.6409082412719727
1771681134427202600,8.20220263671875,0.4459085464477539,-1.0617061853408813,0.5391919612884521
1771681134437559800,8.212559814453124,0.15836334228515625,-0.22121351957321167,0.2205016314983368
1771681134447917000,8.2229169921875,-0.4053192138671875,-1.1010937690734863,0.4648338556289673
1771681134458274300,8.2332744140625,-0.46875476837158203,0.1455141305923462,-0.7733616828918457
1771681134468631600,8.243631591796875,0.7281398773193359,-0.5603551268577576,-0.3444725275039673
1771681134478988500,8.253988525390625,0.18923187255859375,-0.8731321692466736,-0.28719866275787354
1771681134489345800,8.264345703125,-0.29349613189697266,-0.953668475151062,0.5617853999137878
1771681134499703000,8.274703125,0.9578819274902344,0.5247206687927246,0.45463693141937256
1771681134510060300,8.285060302734376,-0.6987590789794922,-1.6116318702697754,0.6506237983703613
1771681134520417500,8.29541748046875,0.045266151428222656,-1.3568000793457031,0.1480502188205719
1771681134530774800,8.30577490234375,0.34821319580078125,0.5467563271522522,-0.2521316409111023
1771681134541132000,8.316132080078125,0.2636852264404297,-0.554145336151123,0.0933191180229187
1771681134551489300,8.3264892578125,0.30596256256103516,-1.209533452987671,0.2737348973751068
1771681134561846500,8.336846435546875,0.1261005401611328,-0.6792980432510376,0.14462104439735413
1771681134572203800,8.347203857421874,1.2643413543701172,-0.8384081125259399,-0.15760603547096252
1771681134582561000,8.35756103515625,-0.17564105987548828,-1.0243092775344849,0.3207126259803772
1771681134592918300,8.367918212890626,1.428879737854004,-0.20966190099716187,-0.6909645199775696
1771681134603275500,8.378275634765625,-0.14507770538330078,-1.2782554626464844,-0.33948859572410583
1771681134613632800,8.3886328125,-0.28296375274658203,-0.4491506814956665,-0.21858809888362885
1771681134623990000,8.398989990234375,-0.21764850616455078,-0.5028625726699829,0.21298369765281677
1771681134634347300,8.40934716796875,-0.21698665618896484,-0.3192119598388672,-0.1166529655456543
1771681134644704500,8.41970458984375,-0.3737936019897461,-1.8267674446105957,0.11347329616546631
1771681134655061800,8.430061767578126,0.3028068542480469,0.6152645945549011,-0.7822915315628052
1771681134665419000,8.4404189453125,0.3045539855957031,-0.258292019367218,-0.311245858669281
1771681134675776300,8.4507763671875,-0.3738737106323242,-0.7435587644577026,-0.6130682229995728
1771681134686133500,8.461133544921875,-0.11264610290527344,-0.16252607107162476,0.42061734199523926
1771681134696490500,8.471490478515625,0.18135643005371094,-0.7308272123336792,0.1978129744529724
1771681134706847700,8.48184765625,-1.4802589416503906,-0.8012493848800659,-0.27342385053634644
1771681134717205000,8.492205078125,-0.09452152252197266,-0.07861959934234619,-0.5529932975769043
1771681134727562200,8.502562255859376,-0.5096282958984375,-0.4835720956325531,0.45500487089157104
1771681134737919500,8.51291943359375,-0.2649402618408203,-0.7920409440994263,-0.49169790744781494
1771681134748276700,8.52327685546875,-0.5507631301879883,-0.7559162974357605,-0.15158554911613464
1771681134758634000,8.533634033203125,0.42916202545166016,0.08913713693618774,0.5004035234451294
1771681134768991200,8.5439912109375,0.13917160034179688,-0.6021724343299866,0.16288205981254578
1771681134779348500,8.554348388671874,0.3678903579711914,-1.3948277235031128,-0.431625097990036
1771681134789705700,8.564705810546876,0.18555736541748047,-0.3577984571456909,0.21417522430419922
1771681134800063000,8.57506298828125,0.6719379425048828,0.10680985450744629,0.21151608228683472
1771681134810420200,8.585420166015625,-0.25586795806884766,-1.0742789506912231,0.1529768407344818
1771681134820777500,8.595777587890625,-0.38413238525390625,-1.3461570739746094,-0.6559760570526123
1771681134831134700,8.606134765625,0.5165767669677734,0.8730543255805969,0.17659878730773926
1771681134841492000,8.616491943359375,-0.019537925720214844,-0.884487509727478,0.0939272940158844
1771681134851849200,8.62684912109375,-0.733245849609375,-1.7007359266281128,0.16480249166488647
1771681134862206500,8.63720654296875,1.3116044998168945,-0.12332028150558472,0.038116455078125
1771681134872563700,8.647563720703126,0.926325798034668,-0.5472029447555542,0.23977473378181458
1771681134882921000,8.6579208984375,0.29381847381591797,-1.2522928714752197,0.009278953075408936
1771681134893278200,8.6682783203125,0.612884521484375,0.02557283639907837,-0.19303399324417114
1771681134903635500,8.678635498046875,0.1482257843017578,-0.030608296394348145,0.021589428186416626
1771681134913992700,8.68899267578125,-1.2532835006713867,-0.8650054931640625,-0.04340282082557678
1771681134924350000,8.699349853515624,-0.6535434722900391,-0.560936689376831,-0.07430779933929443
1771681134934707200,8.709707275390626,-0.10543346405029297,-0.30247819423675537,0.0466216504573822
1771681134945064200,8.720064208984375,-0.7951316833496094,-0.6363512277603149,-0.01561024785041809
1771681134955421400,8.73042138671875,0.4765186309814453,-0.8310752511024475,0.06024742126464844
1771681134965778700,8.74077880859375,-0.05469226837158203,0.06308478116989136,-0.15270008146762848
1771681134976136000,8.751135986328125,-0.07619857788085938,-1.1405835151672363,0.25347137451171875
1771681134986493200,8.7614931640625,-0.4651641845703125,-0.8047993779182434,0.41277754306793213
1771681134996850400,8.771850341796876,0.5598411560058594,-0.25718408823013306,-0.13027827441692352
1771681135007207700,8.782207763671876,-0.07652759552001953,-0.48428091406822205,-0.1957741677761078
1771681135017565000,8.79256494140625,-0.31270885467529297,-0.6753783226013184,-0.1645805686712265
1771681135027922200,8.802922119140625,-0.02317333221435547,-0.6749909520149231,-0.16523490846157074
1771681135038279400,8.813279541015625,0.024542808532714844,-0.6627255082130432,-0.11968274414539337
1771681135048636700,8.82363671875,-0.18801116943359375,-1.0495953559875488,0.09114226698875427
1771681135058994000,8.833993896484374,0.4210519790649414,0.020297527313232422,-0.45508483052253723
1771681135069351200,8.84435107421875,0.4724006652832031,-0.4730473458766937,0.4064731299877167
1771681135079708400,8.85470849609375,-0.4095458984375,-1.6321356296539307,0.024761557579040527
1771681135090065700,8.865065673828125,-0.2749195098876953,0.10445308685302734,0.8147588968276978
1771681135100423000,8.8754228515625,0.9907121658325195,-0.5230050086975098,-0.37020060420036316
1771681135110780200,8.8857802734375,-0.040505409240722656,-0.7366575002670288,-0.25167524814605713
1771681135121137400,8.896137451171874,0.4393148422241211,-0.25746095180511475,-0.32880935072898865
1771681135131494700,8.90649462890625,0.7915077209472656,-0.2949577569961548,-0.009325861930847168
1771681135141852000,8.916851806640626,-0.4803152084350586,-0.3796619772911072,-0.1571551114320755
1771681135152209200,8.927209228515625,0.36588096618652344,-1.305129051208496,0.1098192036151886
1771681135162566400,8.93756640625,-1.5230426788330078,-0.5071215629577637,0.3560759723186493
1771681135172923600,8.947923583984375,0.4594573974609375,-0.3840067982673645,0.7916585206985474
1771681135183281000,8.958281005859375,-0.8496465682983398,-1.139987826347351,0.135480135679245
1771681135193638000,8.968637939453124,0.9378633499145508,-0.6913715600967407,-0.00756382942199707
1771681135203995100,8.9789951171875,0.7900018692016602,-0.4684334993362427,-0.27295899391174316
1771681135214352400,8.989352294921876,-0.2310657501220703,-0.5994298458099365,0.001797497272491455
1771681135224709600,8.999709716796875,0.24940204620361328,-0.3845137059688568,-0.2517286241054535
1771681135235067000,9.01006689453125,-0.5268535614013672,-0.5277299880981445,-0.08911380171775818
1771681135245424000,9.020424072265625,0.2693824768066406,-0.22889816761016846,0.043892472982406616
1771681135255781400,9.030781494140625,-0.4687347412109375,-0.7974163293838501,-0.09241542220115662
1771681135266138600,9.041138671875,0.9455633163452148,-0.5578900575637817,-0.17391051352024078
1771681135276496000,9.051495849609376,0.20578384399414062,-0.5795018672943115,-0.5504235029220581
1771681135286853000,9.06185302734375,0.7949619293212891,-0.6420117020606995,-0.1429196000099182
1771681135297210400,9.07221044921875,0.05322074890136719,-1.0866289138793945,0.30670514702796936
1771681135307567600,9.082567626953125,0.47342967987060547,-0.458881139755249,-0.5375635623931885
1771681135317924900,9.0929248046875,-0.7806501388549805,0.11541348695755005,-0.18600048124790192
1771681135328282000,9.1032822265625,-0.10779953002929688,-0.5859219431877136,-0.1464870274066925
1771681135338639400,9.113639404296874,-0.9952735900878906,-0.6891118884086609,0.10466539859771729
1771681135348996600,9.12399658203125,0.6948480606079102,-0.5169252157211304,-0.15874801576137543
1771681135359353900,9.134353759765625,0.45220088958740234,0.11083710193634033,-0.021436870098114014
1771681135369711000,9.144711181640625,0.0024805068969726562,-0.9743254780769348,-0.0962340235710144
1771681135380068400,9.155068359375,-0.42218780517578125,-0.7517381310462952,0.5496186017990112
1771681135390425600,9.165425537109375,0.2353954315185547,-0.3004433512687683,0.34519416093826294
1771681135400782800,9.175782958984374,0.3185310363769531,-0.9916222095489502,0.12212377786636353
1771681135411140000,9.18614013671875,-0.03776264190673828,0.39560019969940186,-0.16395725309848785
1771681135421497300,9.196497314453126,-0.3096494674682617,-1.8628997802734375,1.128870964050293
1771681135431854600,9.2068544921875,-0.06522846221923828,0.4524638056755066,-0.5450745820999146
1771681135442211800,9.2172119140625,-0.9171113967895508,-0.45455580949783325,0.41709092259407043
1771681135452569000,9.227569091796875,0.5054788589477539,-0.4858412444591522,-0.08785310387611389
1771681135462926000,9.237926025390625,-0.5913257598876953,-0.5022392868995667,0.15492206811904907
1771681135473283300,9.248283447265624,1.1860389709472656,-0.38719552755355835,-0.1345924735069275
1771681135483640600,9.258640625,-0.6022319793701172,-0.506290078163147,0.21924200654029846
1771681135493997800,9.268997802734376,0.3875093460083008,-0.9189053773880005,-0.1847735047340393
1771681135504355000,9.27935498046875,-0.689854621887207,-0.010322153568267822,0.09945479035377502
1771681135514712300,9.28971240234375,0.018390655517578125,-0.9602327942848206,-0.32853928208351135
1771681135525069600,9.300069580078125,-0.8933610916137695,-1.1991281509399414,-0.5104223489761353
1771681135535426800,9.3104267578125,0.20682716369628906,0.09089100360870361,-0.37683436274528503
1771681135545784000,9.3207841796875,0.1753063201904297,-1.2377967834472656,-0.23313376307487488
1771681135556141300,9.331141357421876,-0.7249326705932617,-1.2387869358062744,-0.2565401792526245
1771681135566498600,9.34149853515625,-0.038123130798339844,-0.6190097332000732,0.6857016086578369
1771681135576855800,9.351855712890625,0.43688201904296875,-0.7661567330360413,0.47942179441452026
1771681135587213000,9.362213134765625,-0.05834007263183594,-1.261921763420105,0.5798147916793823
1771681135597570300,9.3725703125,0.36185741424560547,-1.032926321029663,-0.3332406282424927
1771681135607927600,9.382927490234374,0.5996494293212891,-0.8306344151496887,-0.30258050560951233
1771681135618284800,9.393284912109374,-0.7313604354858398,-0.9697310328483582,0.029241561889648438
1771681135628642000,9.40364208984375,0.6739263534545898,-0.7433063387870789,0.13741180300712585
1771681135638999300,9.413999267578125,-0.9150781631469727,-1.4787824153900146,0.3199195861816406
1771681135649356500,9.4243564453125,0.3092517852783203,-1.1865770816802979,0.5208791494369507
1771681135659713800,9.4347138671875,-0.1999835968017578,-1.0786380767822266,-0.24465583264827728
1771681135670071000,9.445071044921875,0.6000699996948242,-0.9373722076416016,-0.052077800035476685
1771681135680428300,9.45542822265625,-1.0460901260375977,-2.114236354827881,0.7966099977493286
1771681135690785500,9.46578564453125,0.8396005630493164,-0.6382250189781189,1.306104302406311
1771681135701142800,9.476142822265626,-0.7547235488891602,-1.4185916185379028,0.3302827775478363
1771681135711500000,9.4865,-0.39023876190185547,-0.8791043758392334,0.12491175532341003
1771681135721857300,9.496857177734375,-0.0720205307006836,-2.011801242828369,-0.2730598449707031
1771681135732214500,9.507214599609375,0.09502410888671875,-0.9288758635520935,0.20586583018302917
1771681135742571800,9.51757177734375,0.10174083709716797,-2.591184139251709,0.4401083290576935
1771681135752929000,9.527928955078124,-0.16365528106689453,-0.5646359920501709,0.20452475547790527
1771681135763286000,9.5382861328125,0.7339229583740234,-2.139301300048828,0.2087511122226715
1771681135773643300,9.548643310546876,-0.4185495376586914,-1.7248592376708984,0.21893981099128723
1771681135784000500,9.55900048828125,-0.7830419540405273,-1.4279789924621582,0.22769591212272644
1771681135794357800,9.569357666015625,0.8107128143310547,-1.7166714668273926,0.4866223931312561
1771681135804715000,9.579715087890625,-1.0963716506958008,-2.088191509246826,0.9820001125335693
1771681135815072300,9.590072265625,1.0971994400024414,-1.984116554260254,0.5656980276107788
1771681135825429500,9.600429443359374,0.32085323333740234,-1.5843348503112793,-0.0027532875537872314
1771681135835786800,9.610786865234376,0.3770933151245117,-2.1549177169799805,0.20109862089157104
1771681135846144000,9.62114404296875,0.0776681900024414,-2.011087656021118,-0.2940814197063446
1771681135856501200,9.631501220703125,-0.058742523193359375,-1.1701074838638306,-0.24607548117637634
1771681135866858500,9.6418583984375,0.06540679931640625,-2.629749298095703,0.2421809434890747
1771681135877215700,9.6522158203125,-0.6461811065673828,-1.8568768501281738,0.6184765100479126
1771681135887573000,9.662572998046874,0.8517913818359375,-1.6697771549224854,0.2895217835903168
1771681135897930200,9.67293017578125,0.10721206665039062,-2.627012252807617,-0.019813239574432373
1771681135908287500,9.68328759765625,0.10441112518310547,-2.594327449798584,-0.11256155371665955
1771681135918644700,9.693644775390625,1.3547306060791016,-1.6255874633789062,0.11364027857780457
1771681135929002000,9.704001953125,-0.04032421112060547,-2.790915012359619,0.3208795487880707
1771681135939359200,9.714359130859375,0.37736034393310547,-2.605086326599121,0.6634758710861206
1771681135949716500,9.724716552734375,0.2975597381591797,-2.216841459274292,0.20518618822097778
1771681135960073700,9.73507373046875,0.11291694641113281,-2.4264073371887207,0.12101686000823975
1771681135970431000,9.745430908203126,0.35366153717041016,-2.853255271911621,-0.5985524654388428
1771681135980788200,9.755788330078126,-0.11993598937988281,-2.2648749351501465,0.3922558128833771
1771681135991145500,9.7661455078125,0.8253746032714844,-2.120004892349243,0.022540748119354248
1771681136001502700,9.776502685546875,0.11886405944824219,-1.7298634052276611,-0.13832548260688782
1771681136011860000,9.78685986328125,1.2255125045776367,-2.522820472717285,0.3247818946838379
1771681136022217200,9.79721728515625,0.016712188720703125,-3.147993564605713,0.5033003091812134
1771681136032574500,9.807574462890624,-0.08147716522216797,-2.9927053451538086,0.17040973901748657
1771681136042931700,9.817931640625,0.9068279266357422,-2.7484028339385986,-0.4771522581577301
1771681136053289000,9.8282890625,0.15976238250732422,-3.223128080368042,0.14245569705963135
1771681136063646200,9.838646240234375,0.17127513885498047,-3.102433681488037,0.08051371574401855
1771681136074003200,9.849003173828125,-0.5690336227416992,-2.479321002960205,-0.1502470076084137
1771681136084360400,9.8593603515625,2.1368303298950195,-2.773844003677368,-0.0671713650226593
1771681136094717700,9.8697177734375,-0.5943059921264648,-2.2754790782928467,-0.17807254195213318
1771681136105075000,9.880074951171874,0.5743465423583984,-3.1703829765319824,0.6183580160140991
1771681136115432200,9.89043212890625,-0.12169265747070312,-1.852034330368042,0.7108321189880371
1771681136125789400,9.90078955078125,0.39892101287841797,-3.5186407566070557,0.5123100280761719
1771681136136146700,9.911146728515625,0.06619644165039062,-2.536954164505005,-0.20491760969161987
1771681136146504000,9.92150390625,0.9706602096557617,-2.1514878273010254,-0.17810171842575073
1771681136156861200,9.931861083984375,-0.45907115936279297,-3.104233503341675,-0.27485430240631104
1771681136167218400,9.942218505859374,-0.24543380737304688,-2.966449737548828,0.1816980242729187
1771681136177575700,9.95257568359375,-0.13022136688232422,-2.138406276702881,0.30741819739341736
1771681136187933000,9.962932861328126,-0.1490306854248047,-2.4953744411468506,0.17115002870559692
1771681136198290200,9.973290283203125,-0.6522951126098633,-3.0669498443603516,-0.5636910796165466
1771681136208647400,9.9836474609375,0.02476787567138672,-2.273465633392334,0.11858108639717102
1771681136219004700,9.994004638671875,0.9173498153686523,-2.7560997009277344,-0.04673311114311218
1771681136229362000,10.00436181640625,-0.2998828887939453,-2.836921453475952,0.11367484927177429
1771681136239719200,10.01471923828125,0.8250455856323242,-2.7646572589874268,-0.06349045038223267
1771681136250076400,10.025076416015626,-0.2105569839477539,-2.8423848152160645,-0.12350587546825409
1771681136260433700,10.03543359375,-0.011921882629394531,-3.2856619358062744,-0.45597660541534424
1771681136270791000,10.045791015625,-0.2362689971923828,-1.8845646381378174,-0.44177770614624023
1771681136281148200,10.056148193359375,-0.5030508041381836,-3.2552058696746826,-0.1956549882888794
1771681136291505400,10.06650537109375,-0.6832113265991211,-2.999741554260254,0.30486640334129333
1771681136301862700,10.076862548828124,0.14188480377197266,-3.0185964107513428,0.4373149573802948
1771681136312220000,10.087219970703124,-0.2237539291381836,-3.0085086822509766,0.107002854347229
1771681136322577200,10.0975771484375,0.3782081604003906,-2.9724326133728027,-0.01741248369216919
1771681136332934400,10.107934326171875,0.32944679260253906,-2.929462432861328,0.030573397874832153
1771681136343291600,10.118291748046875,0.963444709777832,-3.0105910301208496,-0.13650187849998474
1771681136353649000,10.12864892578125,-0.0796823501586914,-3.213677167892456,0.4341822862625122
1771681136364006100,10.139006103515625,0.24746322631835938,-3.0223569869995117,0.394662082195282
1771681136374363400,10.14936328125,-0.16613292694091797,-2.7405636310577393,0.20480498671531677
1771681136384720600,10.159720703125,0.0538177490234375,-3.42130708694458,0.19675779342651367
1771681136395077600,10.17007763671875,-0.6361894607543945,-2.548396587371826,-0.3694213032722473
1771681136405435000,10.180434814453125,0.17922687530517578,-3.0450148582458496,0.08750572800636292
1771681136415792000,10.190792236328125,-0.31539249420166016,-3.1583120822906494,0.6581099033355713
1771681136426149400,10.2011494140625,0.32495784759521484,-3.063861846923828,0.5811429023742676
1771681136436506600,10.211506591796875,-0.3299903869628906,-3.14847993850708,0.5554322004318237
1771681136446864000,10.22186376953125,0.5299663543701172,-3.4553513526916504,0.21722650527954102
1771681136457221000,10.23222119140625,-0.6267461776733398,-2.7995710372924805,-0.07151508331298828
1771681136467578400,10.242578369140626,0.7542648315429688,-3.2698733806610107,-0.139889195561409
1771681136477935600,10.252935546875,-1.2742671966552734,-2.768235445022583,0.5656615495681763
1771681136488292900,10.26329296875,0.2609548568725586,-2.7500429153442383,0.2574186623096466
1771681136498650000,10.273650146484375,-0.9907188415527344,-3.418773651123047,0.06939348578453064
1771681136509007400,10.28400732421875,0.11426830291748047,-3.8956692218780518,0.4288429319858551
1771681136519364600,10.294364501953124,-0.3301105499267578,-3.2403640747070312,-0.18271633982658386
1771681136529721900,10.304721923828126,0.6706809997558594,-2.7510814666748047,-0.44978904724121094
1771681136540079000,10.3150791015625,-0.2810630798339844,-3.592674970626831,-0.2724933624267578
1771681136550436400,10.325436279296875,0.40218257904052734,-3.2291982173919678,-0.12208335101604462
1771681136560793600,10.335793701171875,1.071786880493164,-3.2056291103363037,0.18083477020263672
1771681136571150800,10.34615087890625,0.4842348098754883,-3.234633207321167,-0.2137107402086258
1771681136581508000,10.356508056640624,0.7216320037841797,-3.319145679473877,-0.5024999976158142
1771681136591865300,10.366865234375,0.1015768051147461,-3.224679708480835,-0.2062300145626068
1771681136602222600,10.37722265625,0.21106719970703125,-3.247720241546631,-0.17337799072265625
1771681136612579800,10.387579833984375,-0.011478424072265625,-3.581113815307617,0.3389579653739929
1771681136622937000,10.39793701171875,0.1675271987915039,-3.429643154144287,0.27233394980430603
1771681136633294300,10.40829443359375,-0.21721553802490234,-2.8869872093200684,0.04865691065788269
1771681136643651600,10.418651611328125,0.2105264663696289,-3.3984687328338623,0.305480033159256
1771681136654008800,10.4290087890625,0.11925697326660156,-3.348074436187744,-0.6317600011825562
1771681136664366000,10.439365966796874,0.9829616546630859,-3.355773687362671,-0.6670684814453125
1771681136674723300,10.449723388671876,0.8683099746704102,-3.251326084136963,-0.49067187309265137
1771681136685080600,10.46008056640625,0.09517192840576172,-3.780283212661743,0.5757623314857483
1771681136695437800,10.470437744140625,-0.184326171875,-3.0811429023742676,0.5886330604553223
1771681136705794800,10.480794921875,0.1025705337524414,-2.8584225177764893,0.2595907151699066
1771681136716152000,10.491152099609375,-0.46573543548583984,-3.3212151527404785,-0.5747640132904053
1771681136726509300,10.50150927734375,0.523625373840332,-3.2535934448242188,-0.6801078915596008
1771681136736866600,10.511866455078126,-0.3560028076171875,-2.8398663997650146,-0.33382707834243774
1771681136747223800,10.522223876953126,1.1462602615356445,-3.517953634262085,-0.25384968519210815
1771681136757581000,10.5325810546875,-0.2695770263671875,-3.4619007110595703,0.12949225306510925
1771681136767938300,10.542938232421875,0.9412469863891602,-3.59743070602417,0.018238335847854614
1771681136778295600,10.553295654296875,-0.10891056060791016,-2.470048666000366,0.05537024140357971
1771681136788652800,10.56365283203125,0.02025318145751953,-3.409663200378418,-0.0882403552532196
1771681136799010000,10.574010009765624,-0.37600040435791016,-3.2114109992980957,-0.022135093808174133
1771681136809367300,10.5843671875,-0.4824657440185547,-3.2015292644500732,0.10416263341903687
1771681136819724500,10.594724609375,0.3135643005371094,-2.7883548736572266,0.2347322702407837
1771681136830081800,10.605081787109375,-0.12403202056884766,-3.579061508178711,0.2967545688152313
1771681136840439000,10.61543896484375,0.5947132110595703,-2.505679130554199,-0.009388238191604614
1771681136850796300,10.62579638671875,-0.49042797088623047,-2.919346809387207,0.096832275390625
1771681136861153500,10.636153564453124,-0.011844635009765625,-2.7856979370117188,-0.4759460687637329
1771681136871510800,10.6465107421875,0.2650480270385742,-3.1816978454589844,-0.1686217039823532
1771681136881868000,10.656867919921876,0.6295614242553711,-3.0309317111968994,-0.08447791635990143
1771681136892225300,10.667225341796875,-0.10002517700195312,-2.875025749206543,0.8359081745147705
1771681136902582500,10.67758251953125,0.4730491638183594,-2.8987088203430176,0.40499231219291687
1771681136912939800,10.687939697265625,-1.2109031677246094,-3.4071784019470215,0.20038846135139465
1771681136923297000,10.698297119140625,0.8018150329589844,-2.7019877433776855,0.11966049671173096
1771681136933654300,10.708654296875,-0.15735244750976562,-2.6379215717315674,-0.3540693521499634
1771681136944011500,10.719011474609376,1.036421775817871,-3.1976089477539062,0.23025304079055786
1771681136954368800,10.72936865234375,0.24850749969482422,-3.820713520050049,-0.06743934750556946
1771681136964726000,10.73972607421875,1.1452722549438477,-2.562253952026367,0.39210668206214905
1771681136975083300,10.750083251953125,0.9561624526977539,-3.4907639026641846,0.1514817476272583
1771681136985440500,10.7604404296875,1.080185890197754,-3.1816327571868896,-0.2320644110441208
1771681136995797800,10.7707978515625,0.49738502502441406,-2.6465866565704346,-0.6000787615776062
1771681137006155000,10.781155029296874,1.1739177703857422,-3.1825501918792725,-0.3068241477012634
1771681137016512300,10.79151220703125,-0.19676589965820312,-2.4781606197357178,-0.04502427577972412
1771681137026869200,10.801869140625,0.3979663848876953,-3.0504086017608643,0.10087330639362335
1771681137037226500,10.8122265625,-0.5793361663818359,-2.4871699810028076,0.17064723372459412
1771681137047583700,10.822583740234375,0.39823341369628906,-2.6489224433898926,0.061050549149513245
1771681137057941000,10.83294091796875,-0.03485870361328125,-2.4493560791015625,-0.12012594193220139
1771681137068298200,10.84329833984375,0.4854764938354492,-2.5156617164611816,-0.6758915185928345
1771681137078655500,10.853655517578124,-0.32735157012939453,-2.2642905712127686,0.18776464462280273
1771681137089012700,10.8640126953125,0.18893718719482422,-2.6319212913513184,-0.24232541024684906
1771681137099370000,10.874369873046875,-0.5658836364746094,-2.2516255378723145,0.8259487152099609
1771681137109727200,10.884727294921875,0.2087697982788086,-2.3017828464508057,0.23232564330101013
1771681137120084500,10.89508447265625,-0.9064979553222656,-2.150883913040161,0.04858522117137909
1771681137130441700,10.905441650390625,-0.15961742401123047,-2.0600967407226562,-0.48851320147514343
1771681137140799000,10.915799072265624,-0.7345218658447266,-1.6684188842773438,-0.03831587731838226
1771681137151156200,10.92615625,0.4821653366088867,-2.308464288711548,-0.3369559347629547
1771681137161513500,10.936513427734376,0.048885345458984375,-1.880059003829956,0.09803055226802826
1771681137171870700,10.94687060546875,0.6764516830444336,-2.170977830886841,0.27653589844703674
1771681137182228000,10.95722802734375,-0.6094112396240234,-1.9954917430877686,0.13500142097473145
1771681137192585200,10.967585205078125,0.22505855560302734,-2.2387073040008545,0.12245617806911469
1771681137202942500,10.9779423828125,-0.5083084106445312,-1.2966911792755127,-0.4460040032863617
1771681137213299700,10.9882998046875,0.6600914001464844,-2.3000383377075195,-0.2068486213684082
1771681137223657000,10.998656982421876,-0.7784814834594727,-1.7258164882659912,-0.12576395273208618
1771681137234014200,11.00901416015625,0.502777099609375,-2.002061128616333,0.4424658417701721
1771681137244371500,11.019371337890625,-0.67523193359375,-2.1107852458953857,0.17375735938549042
1771681137254728700,11.029728759765625,0.5126743316650391,-1.443142056465149,0.01123817265033722
1771681137265086000,11.0400859375,0.26788330078125,-2.252415418624878,-0.36555564403533936
1771681137275443200,11.050443115234375,-0.0025501251220703125,-1.4844746589660645,-0.00644645094871521
1771681137285800400,11.060800537109374,0.1047983169555664,-2.38232421875,0.051345810294151306
1771681137296157700,11.07115771484375,0.42908382415771484,-1.3730442523956299,0.3190961480140686
1771681137306515000,11.081514892578125,0.3324565887451172,-1.8032876253128052,0.2954874634742737
1771681137316872200,11.0918720703125,0.2766380310058594,-1.3684194087982178,0.22225235402584076
1771681137327229400,11.1022294921875,0.5240793228149414,-2.0301311016082764,-0.029368191957473755
1771681137337586400,11.11258642578125,-0.057333946228027344,-1.5541751384735107,-0.22074675559997559
1771681137347943700,11.122943603515624,0.5800142288208008,-1.5037015676498413,0.20171073079109192
1771681137358301000,11.133301025390624,-0.6030130386352539,-1.451028823852539,0.12212854623794556
1771681137368658200,11.143658203125,-0.007267951965332031,-1.7182049751281738,0.5559073686599731
1771681137379015400,11.154015380859375,0.2862386703491211,-1.7415087223052979,0.5231010913848877
1771681137389372700,11.16437255859375,0.6577844619750977,-1.172573447227478,0.13717861473560333
1771681137399730000,11.17472998046875,0.10469722747802734,-1.440641164779663,-0.12171240150928497
1771681137410087200,11.185087158203125,0.006491661071777344,-1.3121378421783447,-0.5379281640052795
1771681137420444400,11.1954443359375,-0.007892608642578125,-1.355371356010437,-0.17587241530418396
1771681137430801700,11.2058017578125,-0.2752342224121094,-1.446175217628479,0.07020218670368195
1771681137441159000,11.216158935546876,-0.23160266876220703,-1.0804970264434814,0.22256357967853546
1771681137451516200,11.22651611328125,0.0888051986694336,-1.655832052230835,0.03549186885356903
1771681137461873400,11.236873291015625,-0.2909393310546875,-1.1032724380493164,-0.14622479677200317
1771681137472230700,11.247230712890625,0.12031173706054688,-1.3657563924789429,0.1310991495847702
1771681137482588000,11.257587890625,0.04603099822998047,-1.0424339771270752,-0.12742605805397034
1771681137492945200,11.267945068359374,-0.25244712829589844,-1.3597838878631592,-0.2773384153842926
1771681137503302400,11.278302490234376,0.47377586364746094,-1.3447544574737549,-0.011874482035636902
1771681137513659600,11.28865966796875,0.0859060287475586,-1.145729660987854,0.16064582765102386
1771681137524017000,11.299016845703125,0.10714912414550781,-1.7372450828552246,0.08243173360824585
1771681137534374100,11.3093740234375,-0.17479419708251953,-0.9023991823196411,-0.241429403424263
1771681137544731400,11.3197314453125,-0.23641300201416016,-1.1215451955795288,-0.33301544189453125
1771681137555088600,11.330088623046874,-0.7370624542236328,-1.4288862943649292,-0.44634073972702026
1771681137565446000,11.34044580078125,-0.1835947036743164,-1.1576838493347168,-0.32332414388656616
1771681137575803100,11.35080322265625,0.3794832229614258,-1.324059247970581,-0.13243642449378967
1771681137586160400,11.361160400390625,-0.19385719299316406,-0.9882820844650269,-0.15191297233104706
1771681137596517600,11.371517578125,0.4517631530761719,-1.49413001537323,-0.2333383560180664
1771681137606875000,11.381875,-0.7651309967041016,-1.1747701168060303,-0.1956425905227661
1771681137617232100,11.392232177734375,0.25238990783691406,-1.0584368705749512,-0.42765963077545166
1771681137627589400,11.40258935546875,-0.18705081939697266,-1.3488645553588867,-0.38068175315856934
1771681137637946600,11.412946533203124,0.5596599578857422,-0.538102924823761,-0.39850401878356934
1771681137648303600,11.4233037109375,-0.4166831970214844,-1.907915472984314,0.23894770443439484
1771681137658661000,11.4336611328125,0.5244340896606445,-0.7866622805595398,0.4606992304325104
1771681137669018000,11.44401806640625,-0.044254302978515625,-1.2179055213928223,0.1339208334684372
1771681137679375400,11.454375244140625,0.39652156829833984,-1.0988017320632935,-0.1689566969871521
1771681137689732900,11.46473291015625,0.4840373992919922,-0.8973454833030701,-0.04529280960559845
1771681137700090000,11.475090087890624,0.15832233428955078,-1.4097764492034912,0.13332915306091309
1771681137710447400,11.485447265625,0.656829833984375,-0.7823361158370972,0.3019123673439026
1771681137720804400,11.495804443359376,-0.1635732650756836,-1.409940481185913,0.5603665709495544
1771681137731161600,11.50616162109375,0.5896749496459961,-0.5332781672477722,0.43339067697525024
1771681137762233300,11.5372333984375,0.0074615478515625,-0.6024090051651001,-0.07624949514865875
1771681137772590600,11.547590576171874,0.09667015075683594,-0.8122142553329468,0.05214020609855652
1771681137782947800,11.55794775390625,-0.3967752456665039,-0.9876912236213684,0.43051251769065857
1771681137793305000,11.56830517578125,0.4685640335083008,-0.6336175799369812,0.2610299587249756
1771681137803662300,11.578662353515625,-0.24991321563720703,-0.6050792932510376,0.4430265426635742
1771681137814019600,11.58901953125,0.07416725158691406,-0.6431431770324707,0.02379453182220459
1771681137824376800,11.599376953125,-0.10362529754638672,-0.18664592504501343,-0.45725858211517334
1771681137834734000,11.609734130859374,-0.03608512878417969,-0.37292373180389404,-0.003596395254135132
1771681137845091300,11.62009130859375,-0.2802553176879883,-0.4784451127052307,0.11063119769096375
1771681137855448600,11.630448486328126,0.018476486206054688,-0.11862045526504517,0.12399277091026306
1771681137865805800,11.640805908203125,0.3146018981933594,0.26368504762649536,-0.01341027021408081
1771681137876163000,11.6511630859375,-0.2906761169433594,-0.3955557942390442,0.2258317470550537
1771681137886520300,11.661520263671875,0.052933692932128906,-0.09588128328323364,-0.15308813750743866
1771681137896877600,11.671877685546875,-0.10329532623291016,0.3519223928451538,-0.26650795340538025
1771681137907234800,11.68223486328125,0.2466268539428711,0.5240926742553711,-0.27022477984428406
1771681137917592000,11.692592041015626,-0.3881082534790039,-0.4006612300872803,0.09807607531547546
1771681137927949300,11.70294921875,0.37594127655029297,0.3436845541000366,0.12123468518257141
1771681137938306600,11.713306640625,-0.10801887512207031,0.4313478171825409,0.15879574418067932
1771681137948663800,11.723663818359375,0.11490726470947266,0.21154528856277466,-0.15274696052074432
1771681137959021000,11.73402099609375,-0.4367990493774414,0.8521544933319092,-0.2125755399465561
1771681137969378300,11.74437841796875,0.14426326751708984,0.8755475282669067,-0.40635228157043457
1771681137979735600,11.754735595703124,-0.6796026229858398,-0.19912391901016235,-0.07182860374450684
1771681137990092800,11.7650927734375,0.15268611907958984,0.9724025726318359,0.027026116847991943
1771681138000450000,11.775449951171876,0.17853164672851562,1.272439956665039,0.05710133910179138
1771681138010807300,11.785807373046875,-0.048707008361816406,0.12988179922103882,0.1443706452846527
1771681138021164500,11.79616455078125,-0.3709096908569336,0.20690155029296875,-0.013925105333328247
1771681138031521500,11.806521484375,0.6037731170654297,1.174149513244629,-0.28933578729629517
1771681138041878800,11.816878662109374,-0.3572988510131836,0.7024188041687012,-0.27511486411094666
1771681138052236000,11.827236083984374,0.018250465393066406,0.747051477432251,-0.17279508709907532
1771681138062593300,11.83759326171875,-0.32079410552978516,0.7177724838256836,0.11325380206108093
1771681138072950500,11.847950439453125,0.06897449493408203,0.4234355688095093,0.3988291323184967
1771681138083307800,11.858307861328125,-0.2439727783203125,0.7361565828323364,0.12335309386253357
1771681138093665000,11.8686650390625,0.31265926361083984,0.9739153385162354,-0.13001547753810883
1771681138104022300,11.879022216796875,-0.14412212371826172,0.7910636067390442,-0.18915101885795593
1771681138114379500,11.889379638671874,-0.09377479553222656,0.3839273452758789,-0.0048743486404418945
1771681138124736800,11.89973681640625,-0.0554962158203125,1.0279560089111328,0.05740112066268921
1771681138135094000,11.910093994140626,0.16411685943603516,0.9786287546157837,0.3273595869541168
1771681138145451300,11.920451171875,-0.12762832641601562,0.7429999113082886,0.2340318262577057
1771681138155808500,11.93080859375,-0.44728660583496094,1.016350269317627,0.03589758276939392
1771681138166165800,11.941165771484375,-0.11213493347167969,0.8189373016357422,-0.04019629955291748
1771681138176523000,11.95152294921875,-0.6203603744506836,1.0994470119476318,-0.2931077480316162
1771681138186880300,11.96188037109375,0.0398712158203125,1.1645691394805908,-0.16630980372428894
1771681138197237500,11.972237548828126,-0.13452911376953125,0.824072539806366,0.08659255504608154
1771681138207594800,11.9825947265625,-0.19156646728515625,0.5461676120758057,0.32472100853919983
1771681138217952000,11.992951904296875,-0.05033111572265625,1.1236941814422607,0.337756484746933
1771681138228309200,12.003309326171875,-0.04785442352294922,1.0056406259536743,0.028585314750671387
1771681138238666500,12.01366650390625,-0.5991315841674805,0.928395688533783,-0.2990330755710602
1771681138249023700,12.024023681640625,-0.3589811325073242,0.8298659920692444,-0.20837734639644623
1771681138259381000,12.034381103515624,-0.22680950164794922,1.0016740560531616,-0.1347142904996872
1771681138269738200,12.04473828125,-0.2930612564086914,0.7986308336257935,0.1896297037601471
1771681138280095500,12.055095458984376,0.04662322998046875,1.0449450016021729,0.19338467717170715
1771681138290452700,12.06545263671875,-0.2351064682006836,0.508129358291626,0.04485723376274109
1771681138300810000,12.07581005859375,-0.5996732711791992,0.7102538347244263,0.09022796154022217
1771681138311167200,12.086167236328125,0.010378837585449219,0.882706344127655,-0.2219633013010025
1771681138321524500,12.0965244140625,-0.11912345886230469,0.8243622779846191,-0.34566038846969604
1771681138331881700,12.1068818359375,-0.2582216262817383,0.5012935400009155,-0.09317763149738312
1771681138342239000,12.117239013671876,-0.5832490921020508,0.4587175250053406,0.07980328798294067
1771681138352596200,12.12759619140625,0.47127437591552734,1.0147444009780884,0.1628427803516388
1771681138362953500,12.137953369140625,-0.12705421447753906,0.437295138835907,0.028464555740356445
1771681138373310700,12.148310791015625,-0.054266929626464844,0.5984489917755127,-0.23531508445739746
1771681138383668000,12.15866796875,0.012601852416992188,0.7546324729919434,-0.22397072613239288
1771681138394025200,12.169025146484374,0.040726661682128906,0.36957788467407227,-0.31429338455200195
1771681138404382500,12.179382568359374,-0.19517898559570312,0.31998518109321594,0.10308849811553955
1771681138414739500,12.189739501953126,0.42699337005615234,0.9703497886657715,0.19555389881134033
1771681138425096700,12.2000966796875,0.24819564819335938,0.21457970142364502,0.039724379777908325
1771681138435454000,12.210453857421875,0.08409881591796875,0.24496781826019287,0.08686336874961853
1771681138445811200,12.220811279296875,0.3909635543823242,0.48420286178588867,-0.09717869758605957
1771681138456168400,12.23116845703125,0.2974252700805664,0.7970396280288696,-0.2619847059249878
1771681138466526000,12.24152587890625,-0.13103103637695312,-0.08133912086486816,-0.23350724577903748
1771681138476883000,12.251883056640626,0.05469512939453125,0.5744885802268982,-0.034049272537231445
1771681138487240200,12.262240234375,0.26557350158691406,0.31380951404571533,0.3622627556324005
1771681138497597400,12.272597412109375,-0.09179115295410156,0.10174784064292908,0.22955450415611267
1771681138507954700,12.28295458984375,0.1567974090576172,0.665045976638794,0.0051226019859313965
1771681138518312000,12.29331201171875,0.3635978698730469,0.3857681155204773,-0.3078881502151489
1771681138528669200,12.303669189453124,-0.15306377410888672,0.39801114797592163,-0.1355094313621521
1771681138539026400,12.3140263671875,0.3835906982421875,0.219153493642807,0.04050034284591675
1771681138549383700,12.3243837890625,0.0007200241088867188,0.71881103515625,0.2984519600868225
1771681138559741000,12.334740966796875,0.07597732543945312,0.2993009686470032,0.3452872633934021
1771681138570098200,12.34509814453125,0.015862464904785156,0.3808954954147339,0.09721484780311584
1771681138580455400,12.355455322265625,-0.24326801300048828,0.3951822817325592,0.12906154990196228
1771681138590812700,12.365812744140625,-0.10983943939208984,0.5174060463905334,-0.10810284316539764
1771681138601170000,12.376169921875,-0.2750825881958008,0.5131953358650208,-0.23332984745502472
1771681138611527200,12.386527099609374,-0.33168888092041016,0.2855289578437805,-0.015286818146705627
1771681138621884400,12.396884521484376,-0.2414712905883789,0.35329481959342957,0.2578161954879761
1771681138632241700,12.40724169921875,0.0001888275146484375,0.24141883850097656,0.29609185457229614
1771681138642599000,12.417598876953125,-0.018650054931640625,0.4655233919620514,0.044376909732818604
1771681138652956200,12.4279560546875,-0.18776702880859375,0.3494254946708679,-0.38183659315109253
1771681138663313400,12.4383134765625,-0.0058231353759765625,0.42350152134895325,-0.21295303106307983
1771681138673670700,12.448670654296874,-0.26456260681152344,0.13163864612579346,-0.27257809042930603
1771681138684028000,12.45902783203125,-0.17545032501220703,0.510711669921875,0.0027899444103240967
1771681138694385200,12.46938525390625,-0.14194679260253906,0.12594789266586304,0.2740710973739624
1771681138704742400,12.479742431640625,-0.1560688018798828,0.4581870436668396,0.10578635334968567
1771681138715099600,12.490099609375,0.21827983856201172,0.1778915822505951,0.003958940505981445
1771681138725457000,12.500456787109375,-0.44185924530029297,0.033791691064834595,-0.21368412673473358
1771681138735814100,12.510814208984375,0.3113584518432617,0.7555627822875977,-0.32670703530311584
1771681138746171400,12.52117138671875,-0.07501220703125,0.25168508291244507,-0.2850213050842285
1771681138756528600,12.531528564453126,0.03915596008300781,-0.3691176772117615,-0.027743056416511536
1771681138766886000,12.541885986328126,-0.022699356079101562,0.5098973512649536,0.3053663969039917
1771681138777243100,12.5522431640625,0.4459075927734375,0.4215696156024933,0.24908727407455444
1771681138787600400,12.562600341796875,-0.40625572204589844,0.06870660185813904,-0.019879281520843506
1771681138797957600,12.57295751953125,0.25225162506103516,0.1872408539056778,-0.3530247211456299
1771681138808315000,12.58331494140625,-0.2225475311279297,0.6665833592414856,-0.18904072046279907
1771681138818672000,12.593672119140624,0.12468338012695312,-0.28819382190704346,0.06830883026123047
1771681138829029400,12.604029296875,-0.2515296936035156,0.4997512996196747,0.13548249006271362
1771681138839386600,12.61438671875,0.3926553726196289,0.6301038861274719,0.20865437388420105
1771681138849744000,12.624743896484375,-0.19037914276123047,0.34156128764152527,0.24536719918251038
1771681138860101000,12.63510107421875,0.16805267333984375,0.3445113003253937,0.1075291633605957
1771681138870458400,12.645458251953125,-0.12653732299804688,0.507595956325531,-0.12231706082820892
1771681138880815600,12.655815673828124,-0.12680339813232422,0.5690772533416748,-0.1367533951997757
1771681138891172900,12.6661728515625,-0.2988309860229492,0.47170138359069824,-0.03107289969921112
1771681138901530000,12.676530029296876,0.09436225891113281,0.6160663962364197,0.32714152336120605
1771681138911887400,12.686887451171875,-0.1072378158569336,0.24043652415275574,0.5031585693359375
1771681138922244400,12.697244384765625,-0.15254783630371094,0.5627703666687012,0.11419785022735596
1771681138932601600,12.7076015625,0.0005483627319335938,0.8467909097671509,-0.3295184373855591
1771681138942958800,12.717958740234375,-0.14537334442138672,0.5589586496353149,-0.3119049072265625
1771681138953316000,12.728316162109374,-0.15239334106445312,0.26645341515541077,-0.07340507209300995
1771681138963673600,12.738673583984376,-0.18282699584960938,0.5152958631515503,0.09053301811218262
1771681138974030600,12.749030517578126,0.2437305450439453,0.6684718728065491,0.23272839188575745
1771681138984387800,12.759387939453125,-0.2897768020629883,0.4425621032714844,0.12840372323989868
1771681138994745000,12.7697451171875,-0.07557392120361328,0.44146937131881714,-0.04000462591648102
1771681139005102300,12.780102294921875,-0.25787830352783203,0.5702419281005859,-0.05947418510913849
1771681139015459600,12.79045947265625,-0.09831809997558594,0.3933451771736145,-0.3045586943626404
1771681139025816800,12.80081689453125,-0.15788650512695312,0.7582233548164368,-0.31026211380958557
1771681139036174000,12.811174072265626,0.22354698181152344,0.3525017201900482,-0.028994932770729065
1771681139046531300,12.82153125,-0.25784873962402344,0.056883491575717926,0.24987339973449707
1771681139056888600,12.831888671875,0.09465789794921875,0.6248931288719177,0.17115220427513123
1771681139067245800,12.842245849609375,0.067169189453125,0.7343307733535767,0.0022852271795272827
1771681139077603000,12.85260302734375,0.05897235870361328,0.3078295588493347,-0.28413575887680054
1771681139087960300,12.862960205078124,-0.4126157760620117,0.38243240118026733,-0.32590556144714355
1771681139098317600,12.873317626953124,-0.15163326263427734,0.5453253984451294,-0.05886867642402649
1771681139108674800,12.8836748046875,0.055596351623535156,0.4516938030719757,0.09294387698173523
1771681139119032000,12.894031982421875,-0.0771026611328125,0.25138747692108154,0.11535187065601349
1771681139129389300,12.904389404296875,0.037110328674316406,0.600177526473999,0.10927329957485199
1771681139139746600,12.91474658203125,-0.022348403930664062,0.33138662576675415,0.15053793787956238
1771681139150103800,12.925103759765625,0.15683746337890625,0.3586570620536804,-0.17866630852222443
1771681139160461000,12.9354609375,-0.05519390106201172,0.6232417821884155,-0.3848607540130615
1771681139170818300,12.945818359375,-0.0895681381225586,0.37518250942230225,-0.12433530390262604
1771681139181175600,12.956175537109376,-0.04336261749267578,0.430078387260437,0.05389159917831421
1771681139191532800,12.96653271484375,-0.2002878189086914,0.41817277669906616,0.3401044011116028
1771681139201890000,12.97689013671875,0.054813385009765625,0.3711686134338379,0.2638987898826599
1771681139212247300,12.987247314453125,-0.08022117614746094,0.5533651113510132,-0.020326077938079834
1771681139222604500,12.9976044921875,0.10228919982910156,0.4994605779647827,-0.24575762450695038
