time,seconds_elapsed,z,y,x
1771681126369293000,0.14429296875,-0.005497625097632408,0.013438640162348747,-0.00916270911693573
1771681126379650300,0.154650390625,-0.004886778071522713,0.004275931045413017,-0.013438640162348747
1771681126390007300,0.16500732421875,-0.004275931045413017,0.009773556143045425,-0.012827792204916477
1771681126400364500,0.175364501953125,-0.004275931045413017,0.01038440316915512,-0.0024433890357613564
1771681126410721800,0.1857216796875,-0.004886778071522713,0.006719320081174374,-0.008551862090826035
1771681126421079000,0.1960791015625,-0.004275931045413017,0.0030542362947016954,-0.009773556143045425
1771681126431436000,0.20643603515625,-0.004275931045413017,0.010995250195264816,0.004886778071522713
1771681126441793300,0.216793212890625,-0.0030542362947016954,0.0018325417768210173,-0.006719320081174374
1771681126452150500,0.227150634765625,-0.0024433890357613564,-0.0006108472589403391,-0.006719320081174374
1771681126462507800,0.2375078125,-0.0030542362947016954,0.013438640162348747,0.007330167107284069
1771681126472864800,0.24786474609375,-0.0018325417768210173,-0.0018325417768210173,-0.004886778071522713
1771681126483222000,0.258221923828125,-0.0012216945178806782,-0.0012216945178806782,-0.004886778071522713
1771681126493579300,0.268579345703125,-0.0006108472589403391,0.009773556143045425,0.010995250195264816
1771681126503936500,0.2789365234375,0.0006108472589403391,-0.006719320081174374,-0.0030542362947016954
1771681126514293800,0.289293701171875,0.0006108472589403391,-0.007941014133393764,-0.004275931045413017
1771681126524650800,0.299650634765625,0.0006108472589403391,0.006108472589403391,0.010995250195264816
1771681126535008000,0.310008056640625,0.0012216945178806782,-0.00916270911693573,-0.0030542362947016954
1771681126545365200,0.320365234375,-0.0018325417768210173,-0.004886778071522713,-0.005497625097632408
1771681126555722500,0.330722412109375,-0.0006108472589403391,0.005497625097632408,0.006719320081174374
1771681126566079500,0.34107958984375,-0.0012216945178806782,-0.0018325417768210173,-0.0036650835536420345
1771681126576436700,0.351436767578125,-0.0030542362947016954,-0.006108472589403391,-0.00916270911693573
1771681126586794000,0.3617939453125,-0.0030542362947016954,0.012216945178806782,0.0012216945178806782
1771681126597151200,0.372151123046875,-0.0036650835536420345,-0.0012216945178806782,-0.004275931045413017
1771681126607508200,0.38250830078125,-0.0036650835536420345,0,-0.013438640162348747
1771681126617865500,0.392865478515625,-0.0036650835536420345,0.0030542362947016954,-0.0018325417768210173
1771681126628222700,0.40322265625,-0.004886778071522713,0.0030542362947016954,-0.007330167107284069
1771681126638580000,0.413580078125,-0.004886778071522713,-0.006719320081174374,-0.01954711228609085
1771681126648937200,0.423937255859375,-0.004275931045413017,0.010995250195264816,-0.008551862090826035
1771681126659294200,0.434294189453125,-0.0030542362947016954,0.0006108472589403391,-0.009773556143045425
1771681126669651500,0.4446513671875,-0.004886778071522713,-0.0006108472589403391,-0.016492875292897224
1771681126680008700,0.4550087890625,-0.0030542362947016954,0.006108472589403391,-0.00916270911693573
1771681126690366000,0.465365966796875,-0.0012216945178806782,0.0036650835536420345,-0.0018325417768210173
1771681126700723000,0.475722900390625,-0.004275931045413017,0.0018325417768210173,-0.012827792204916477
1771681126711080200,0.486080078125,-0.0018325417768210173,0.005497625097632408,-0.004275931045413017
1771681126721437400,0.4964375,-0.0030542362947016954,0.012216945178806782,0.005497625097632408
1771681126731794700,0.506794677734375,-0.0018325417768210173,0.0024433890357613564,-0.005497625097632408
1771681126742152000,0.51715185546875,-0.0030542362947016954,0.012216945178806782,0.0024433890357613564
1771681126752509000,0.527509033203125,-0.0036650835536420345,0.021990500390529633,0.0012216945178806782
1771681126762866200,0.5378662109375,-0.0012216945178806782,0.010995250195264816,-0.0030542362947016954
1771681126773223400,0.548223388671875,-0.0024433890357613564,0.0397050715982914,0.0006108472589403391
1771681126783580700,0.55858056640625,-0.0012216945178806782,0.014049487188458443,-0.004886778071522713
1771681126793937700,0.568937744140625,-0.0024433890357613564,0.02626643143594265,-0.004275931045413017
1771681126804295000,0.579294921875,-0.0006108472589403391,0.02748812735080719,0.006108472589403391
1771681126814652200,0.589652099609375,-0.0024433890357613564,0.016492875292897224,-0.004886778071522713
1771681126825009400,0.600009521484375,-0.0024433890357613564,0.012827792204916477,0.005497625097632408
1771681126835366400,0.610366455078125,-0.0030542362947016954,0.014049487188458443,0.015271181240677834
1771681126845723600,0.6207236328125,-0.0030542362947016954,-0.008551862090826035,0.007330167107284069
1771681126856081000,0.631080810546875,-0.0030542362947016954,0.012216945178806782,0.009773556143045425
1771681126866438100,0.641438232421875,-0.0012216945178806782,0.0030542362947016954,0.018936265259981155
1771681126876795100,0.651795166015625,-0.0024433890357613564,-0.006108472589403391,0.0036650835536420345
1771681126887152400,0.66215234375,-0.0024433890357613564,0.015271181240677834,0.008551862090826035
1771681126897509600,0.672509521484375,-0.0036650835536420345,0.01038440316915512,0.01038440316915512
1771681126907867000,0.682866943359375,-0.0012216945178806782,0.012827792204916477,0.006108472589403391
1771681126918224100,0.69322412109375,-0.0012216945178806782,0.021990500390529633,0.0036650835536420345
1771681126928581000,0.7035810546875,-0.0024433890357613564,0.01832541823387146,0.0012216945178806782
1771681126938938400,0.7139384765625,-0.0006108472589403391,0.023212196305394173,0.0024433890357613564
1771681126949295600,0.724295654296875,0.0024433890357613564,0.03176405653357506,0.0024433890357613564
1771681126959652900,0.73465283203125,0,0.006108472589403391,-0.007941014133393764
1771681126970009900,0.745009765625,0.0012216945178806782,0.042759306728839874,-0.0012216945178806782
1771681126980367000,0.7553671875,0.0018325417768210173,0.011606098152697086,-0.0036650835536420345
1771681126990724400,0.765724365234375,0.0024433890357613564,0.020157959312200546,-0.014660334214568138
1771681127001081600,0.77608154296875,-0.0006108472589403391,0.02626643143594265,-0.0024433890357613564
1771681127011438600,0.7864384765625,-0.0006108472589403391,0.025655584409832954,-0.013438640162348747
1771681127021795800,0.7967958984375,0.0012216945178806782,0.023823043331503868,-0.015271181240677834
1771681127032153000,0.807153076171875,-0.0030542362947016954,0.03787253051996231,-0.012216945178806782
1771681127042510300,0.81751025390625,-0.0030542362947016954,0.021379653364419937,-0.021379653364419937
1771681127052867600,0.82786767578125,-0.0024433890357613564,0.034818295389413834,-0.012827792204916477
1771681127063224600,0.838224609375,-0.0030542362947016954,0.045202698558568954,-0.014660334214568138
1771681127073581800,0.848581787109375,-0.004275931045413017,0.012216945178806782,-0.022601349279284477
1771681127083939000,0.85893896484375,-0.004275931045413017,0.04581354558467865,-0.010995250195264816
1771681127094296300,0.86929638671875,-0.004275931045413017,0.020157959312200546,-0.013438640162348747
1771681127104653300,0.8796533203125,-0.0030542362947016954,0.01710372418165207,-0.016492875292897224
1771681127115010600,0.890010498046875,-0.0024433890357613564,0.042759306728839874,-0.005497625097632408
1771681127125367800,0.900367919921875,-0.0012216945178806782,0.005497625097632408,-0.007941014133393764
1771681127135725000,0.91072509765625,0,0.04031591862440109,-0.008551862090826035
1771681127146082300,0.921082275390625,0,0.01832541823387146,-0.0018325417768210173
1771681127156439300,0.931439208984375,0.0006108472589403391,0.021379653364419937,-0.005497625097632408
1771681127166796500,0.941796630859375,0.0018325417768210173,0.023823043331503868,0.0012216945178806782
1771681127177153800,0.95215380859375,0.0030542362947016954,-0.0024433890357613564,-0.0012216945178806782
1771681127187511000,0.962510986328125,0.0036650835536420345,0.021990500390529633,0.004886778071522713
1771681127197868000,0.972867919921875,0.0030542362947016954,-0.0006108472589403391,0.006108472589403391
1771681127208225300,0.983225341796875,0.0012216945178806782,0.007330167107284069,0.004886778071522713
1771681127218582500,0.99358251953125,0,0.010995250195264816,0.01038440316915512
1771681127228939800,1.003939697265625,-0.0018325417768210173,-0.012216945178806782,0.004275931045413017
1771681127239296800,1.014296875,-0.0012216945178806782,0.015271181240677834,0.010995250195264816
1771681127249654000,1.024654052734375,-0.005497625097632408,-0.016492875292897224,0.005497625097632408
1771681127260011300,1.03501123046875,-0.005497625097632408,0.0018325417768210173,0.006108472589403391
1771681127270368500,1.045368408203125,-0.007330167107284069,-0.0018325417768210173,0.013438640162348747
1771681127280725800,1.055725830078125,-0.007941014133393764,-0.016492875292897224,0.008551862090826035
1771681127291082800,1.066082763671875,-0.006108472589403391,0.005497625097632408,0.012827792204916477
1771681127301440000,1.07643994140625,-0.007941014133393764,-0.021990500390529633,0.012827792204916477
1771681127311797200,1.08679736328125,-0.0036650835536420345,0.0030542362947016954,0.016492875292897224
1771681127322154500,1.097154541015625,-0.006108472589403391,-0.01038440316915512,0.014660334214568138
1771681127332511500,1.107511474609375,-0.0036650835536420345,-0.01038440316915512,0.011606098152697086
1771681127342868700,1.11786865234375,-0.0024433890357613564,0.009773556143045425,0.017714571207761765
1771681127353226000,1.12822607421875,-0.0030542362947016954,-0.02993151545524597,0.00916270911693573
1771681127363583200,1.138583251953125,0.0006108472589403391,0.023823043331503868,0.01832541823387146
1771681127373940500,1.1489404296875,0,-0.024433890357613564,0.013438640162348747
1771681127384297500,1.15929736328125,0.0024433890357613564,0,0.009773556143045425
1771681127394654700,1.16965478515625,0.0036650835536420345,0,0.01710372418165207
1771681127405012000,1.180011962890625,0.0030542362947016954,-0.014049487188458443,0.006108472589403391
1771681127415369200,1.190369140625,0.004275931045413017,0.007330167107284069,0.004886778071522713
1771681127425726200,1.200726318359375,0.0036650835536420345,-0.016492875292897224,0.009773556143045425
1771681127436083500,1.21108349609375,0.004886778071522713,0.030542362481355667,0.0036650835536420345
1771681127446440700,1.221440673828125,0.0018325417768210173,-0.021379653364419937,-0.0006108472589403391
1771681127456798000,1.2317978515625,0.0024433890357613564,0.034818295389413834,0.0024433890357613564
1771681127467155200,1.2421552734375,0.0012216945178806782,0.006108472589403391,-0.0024433890357613564
1771681127477512200,1.25251220703125,-0.0012216945178806782,0.016492875292897224,-0.011606098152697086
1771681127487869400,1.262869384765625,0,0.023212196305394173,-0.0036650835536420345
1771681127498226700,1.273226806640625,-0.0018325417768210173,-0.0036650835536420345,-0.013438640162348747
1771681127508584000,1.283583984375,0.0006108472589403391,0.024433890357613564,-0.014660334214568138
1771681127518941000,1.29394091796875,-0.0006108472589403391,-0.023212196305394173,-0.01588202826678753
1771681127529298200,1.304298095703125,0,0.01954711228609085,-0.013438640162348747
1771681127539655400,1.314655517578125,-0.0006108472589403391,-0.015271181240677834,-0.024433890357613564
1771681127550012700,1.3250126953125,-0.0012216945178806782,0.02076880633831024,-0.016492875292897224
1771681127560369700,1.33536962890625,-0.0024433890357613564,0.015271181240677834,-0.024433890357613564
1771681127570727000,1.345726806640625,-0.005497625097632408,0,-0.020157959312200546
1771681127581084200,1.356084228515625,-0.006108472589403391,0.017714571207761765,-0.01954711228609085
1771681127591441400,1.36644140625,-0.005497625097632408,-0.005497625097632408,-0.016492875292897224
1771681127601798700,1.376798583984375,-0.0030542362947016954,0.0024433890357613564,-0.01710372418165207
1771681127612155600,1.38715576171875,-0.0012216945178806782,-0.009773556143045425,-0.007330167107284069
1771681127622513000,1.397512939453125,0.0012216945178806782,-0.0018325417768210173,-0.0030542362947016954
1771681127632870100,1.4078701171875,-0.0006108472589403391,0.012827792204916477,0.0030542362947016954
1771681127643227400,1.418227294921875,-0.0006108472589403391,0.006108472589403391,-0.0012216945178806782
1771681127653584600,1.428584716796875,0.0018325417768210173,0.018936265259981155,0.015271181240677834
1771681127663941600,1.438941650390625,0.0030542362947016954,0.01832541823387146,0.011606098152697086
1771681127674299000,1.449298828125,0.004886778071522713,0.017714571207761765,0.014660334214568138
1771681127684656000,1.45965625,0.005497625097632408,0.031153209507465363,0.023823043331503868
1771681127695013400,1.470013427734375,0.007330167107284069,0.0030542362947016954,0.02076880633831024
1771681127705370400,1.480370361328125,0.009773556143045425,0.02504473738372326,0.030542362481355667
1771681127715727600,1.4907275390625,0.008551862090826035,-0.01038440316915512,0.028098974376916885
1771681127726084900,1.5010849609375,0.00916270911693573,0.023823043331503868,0.03237490355968475
1771681127736442000,1.511442138671875,0.007330167107284069,-0.015271181240677834,0.025655584409832954
1771681127746799400,1.52179931640625,0.007330167107284069,0.02870982140302658,0.030542362481355667
1771681127757156400,1.53215625,0.0030542362947016954,-0.0036650835536420345,0.02076880633831024
1771681127767513600,1.542513671875,0.0006108472589403391,0.0390942245721817,0.02626643143594265
1771681127777870800,1.552870849609375,-0.0018325417768210173,0.006719320081174374,0.021379653364419937
1771681127788228000,1.56322802734375,-0.0012216945178806782,0.02504473738372326,0.020157959312200546
1771681127798585000,1.573585205078125,-0.004886778071522713,0.0030542362947016954,0.014660334214568138
1771681127808942300,1.5839423828125,-0.004275931045413017,0.021379653364419937,0.02076880633831024
1771681127819299600,1.594299560546875,-0.004275931045413017,0.0036650835536420345,0.005497625097632408
1771681127829656800,1.60465673828125,-0.0036650835536420345,0.021379653364419937,0.004886778071522713
1771681127840013800,1.615013916015625,-0.0036650835536420345,0.016492875292897224,0
1771681127850371000,1.62537109375,-0.004275931045413017,0.03237490355968475,-0.005497625097632408
1771681127860728300,1.635728271484375,-0.004275931045413017,0.01954711228609085,-0.01588202826678753
1771681127871085600,1.64608544921875,-0.0018325417768210173,0.0390942245721817,-0.0036650835536420345
1771681127881442800,1.65644287109375,-0.0018325417768210173,0.03237490355968475,-0.014049487188458443
1771681127891800000,1.666800048828125,-0.0024433890357613564,0.03176405653357506,-0.01038440316915512
1771681127902157000,1.677156982421875,-0.0024433890357613564,0.026877280324697495,-0.006108472589403391
1771681127912514300,1.687514404296875,0,0.02504473738372326,-0.007330167107284069
1771681127922871600,1.69787158203125,-0.0012216945178806782,0.02076880633831024,-0.010995250195264816
1771681127933228800,1.708228759765625,-0.0006108472589403391,0.015271181240677834,-0.00916270911693573
1771681127943585800,1.718585693359375,-0.0018325417768210173,0.023212196305394173,-0.014049487188458443
1771681127953943000,1.728943115234375,-0.0006108472589403391,0.00916270911693573,-0.014660334214568138
1771681127964300300,1.73930029296875,0.0012216945178806782,0.015271181240677834,-0.010995250195264816
1771681127974657500,1.749657470703125,0.0024433890357613564,0.004275931045413017,-0.012827792204916477
1771681127985014800,1.760014892578125,0.0030542362947016954,0.012827792204916477,-0.005497625097632408
1771681127995371800,1.770371826171875,0.0030542362947016954,0.0006108472589403391,-0.006719320081174374
1771681128005729000,1.78072900390625,0.0036650835536420345,0.02626643143594265,0
1771681128016086300,1.791086181640625,0.0018325417768210173,0.0030542362947016954,0
1771681128026443500,1.801443603515625,0.0018325417768210173,0.02748812735080719,0.0030542362947016954
1771681128036800500,1.811800537109375,-0.0018325417768210173,0.012216945178806782,-0.0036650835536420345
1771681128047157800,1.82215771484375,0.0018325417768210173,0.020157959312200546,0.005497625097632408
1771681128057515000,1.832514892578125,-0.0018325417768210173,0.02504473738372326,-0.0006108472589403391
1771681128067872300,1.842872314453125,0.0006108472589403391,0.0030542362947016954,-0.0030542362947016954
1771681128078229500,1.8532294921875,-0.0012216945178806782,0.024433890357613564,0.0036650835536420345
1771681128088586500,1.86358642578125,-0.0006108472589403391,0.007330167107284069,-0.004275931045413017
1771681128098943700,1.87394384765625,0,0.012827792204916477,-0.0030542362947016954
1771681128109301000,1.884301025390625,0.0024433890357613564,0.008551862090826035,-0.007941014133393764
1771681128119658200,1.894658203125,0.005497625097632408,0.006719320081174374,-0.012216945178806782
1771681128130015200,1.90501513671875,0.004886778071522713,-0.0024433890357613564,-0.021379653364419937
1771681128140372500,1.91537255859375,0.008551862090826035,0.007330167107284069,-0.01588202826678753
1771681128150729700,1.925729736328125,0.008551862090826035,-0.0036650835536420345,-0.023823043331503868
1771681128161087000,1.9360869140625,0.009773556143045425,0.015271181240677834,-0.017714571207761765
1771681128171444200,1.9464443359375,0.0036650835536420345,-0.009773556143045425,-0.026877280324697495
1771681128181801500,1.956801513671875,0.0024433890357613564,-0.00916270911693573,-0.02748812735080719
1771681128192158500,1.967158447265625,-0.0024433890357613564,-0.021990500390529633,-0.03787253051996231
1771681128202515700,1.977515625,0.0012216945178806782,-0.01710372418165207,-0.04825693368911743
1771681128212873000,1.987873046875,-0.0006108472589403391,-0.02870982140302658,-0.05375456064939499
1771681128223230200,1.998230224609375,-0.0018325417768210173,-0.007941014133393764,-0.0647498071193695
1771681128233587500,2.00858740234375,0.0012216945178806782,-0.01038440316915512,-0.07391251623630524
1771681128243944400,2.0189443359375,0,0.008551862090826035,-0.07696675509214401
1771681128254301700,2.0293017578125,0.0024433890357613564,0.006108472589403391,-0.0781884491443634
1771681128264659000,2.039658935546875,0.0018325417768210173,0.007941014133393764,-0.08429691940546036
1771681128275016200,2.05001611328125,0.005497625097632408,0.015271181240677834,-0.07574506103992462
1771681128285373400,2.06037353515625,0.0036650835536420345,0.015271181240677834,-0.07024743407964706
1771681128295730400,2.07073046875,0.0030542362947016954,0.014049487188458443,-0.07757759839296341
1771681128306087700,2.081087646484375,0.0030542362947016954,0.01710372418165207,-0.07085828483104706
1771681128316445000,2.09144482421875,0.004886778071522713,0.01710372418165207,-0.06047387793660164
1771681128326802200,2.10180224609375,0.005497625097632408,0.01710372418165207,-0.06413896381855011
1771681128337159200,2.1121591796875,0.008551862090826035,0.01710372418165207,-0.05375456064939499
1771681128347516400,2.122516357421875,0.009773556143045425,0.031153209507465363,-0.047646086663007736
1771681128357873700,2.132873779296875,0.011606098152697086,0.020157959312200546,-0.04581354558467865
1771681128368231000,2.14323095703125,0.011606098152697086,0.026877280324697495,-0.043981000781059265
1771681128378588200,2.153588134765625,0.01038440316915512,0.02626643143594265,-0.03420744836330414
1771681128388945200,2.163945068359375,0.00916270911693573,0.017714571207761765,-0.036039989441633224
1771681128399302400,2.174302490234375,0.007941014133393764,0.014660334214568138,-0.034818295389413834
1771681128409659600,2.18465966796875,0.006108472589403391,0.01588202826678753,-0.02504473738372326
1771681128420017000,2.195016845703125,0.005497625097632408,0.02993151545524597,-0.017714571207761765
1771681128430374100,2.2053740234375,0.0036650835536420345,0.016492875292897224,-0.018936265259981155
1771681128440731100,2.215731201171875,0.004275931045413017,0.03237490355968475,-0.012827792204916477
1771681128451088400,2.22608837890625,0.0036650835536420345,0.028098974376916885,-0.0030542362947016954
1771681128461445600,2.236445556640625,0.0036650835536420345,0.031153209507465363,-0.009773556143045425
1771681128471803000,2.246802978515625,0.004275931045413017,0.03420744836330414,0
1771681128482160000,2.25716015625,0.0030542362947016954,0.030542362481355667,0.005497625097632408
1771681128492517000,2.26751708984375,0.0018325417768210173,0.026877280324697495,0.0012216945178806782
1771681128502874400,2.277874267578125,0.0006108472589403391,0.010995250195264816,0.004886778071522713
1771681128513231600,2.288231689453125,0.0006108472589403391,0.02626643143594265,0.008551862090826035
1771681128523588900,2.2985888671875,0.0012216945178806782,-0.006108472589403391,0.0024433890357613564
1771681128533945900,2.30894580078125,0.0006108472589403391,0.016492875292897224,0.004275931045413017
1771681128544303000,2.31930322265625,0.0018325417768210173,0.007330167107284069,0.007330167107284069
1771681128554660400,2.329660400390625,0.0030542362947016954,0.01038440316915512,0.0018325417768210173
1771681128565017600,2.340017578125,0.0036650835536420345,0.01038440316915512,0.004275931045413017
1771681128575374800,2.350374755859375,0.004886778071522713,0.013438640162348747,0.007941014133393764
1771681128585732000,2.360732177734375,0.0024433890357613564,0,0.0018325417768210173
1771681128596089000,2.371089111328125,0.0036650835536420345,0.00916270911693573,0.004275931045413017
1771681128606446300,2.3814462890625,0.0024433890357613564,-0.0012216945178806782,0.0018325417768210173
1771681128616803600,2.391803466796875,0.0036650835536420345,0.0036650835536420345,0
1771681128627160800,2.402160888671875,0.0030542362947016954,-0.0024433890357613564,-0.0024433890357613564
1771681128637518000,2.41251806640625,0.0036650835536420345,0.007941014133393764,-0.0036650835536420345
1771681128647875300,2.422875244140625,0.004275931045413017,-0.0030542362947016954,0
1771681128658232300,2.433232421875,0.0030542362947016954,0.012827792204916477,-0.0030542362947016954
1771681128668589600,2.443589599609375,0.004886778071522713,0.01038440316915512,0.0030542362947016954
1771681128678946800,2.45394677734375,0.0030542362947016954,0.01710372418165207,0.005497625097632408
1771681128689304000,2.464303955078125,0.004886778071522713,0.021379653364419937,0.004886778071522713
1771681128699661000,2.4746611328125,0.0018325417768210173,0.01588202826678753,0.0030542362947016954
1771681128710018300,2.485018310546875,0.0036650835536420345,0.02626643143594265,0.0036650835536420345
1771681128720375600,2.49537548828125,0.0030542362947016954,0.004275931045413017,0.0036650835536420345
1771681128730732800,2.50573291015625,0.0024433890357613564,0.02870982140302658,-0.0024433890357613564
1771681128741090000,2.516090087890625,0.0036650835536420345,0.0024433890357613564,0.004886778071522713
1771681128751447000,2.526447021484375,0.0012216945178806782,0.02504473738372326,0.0030542362947016954
1771681128761804300,2.53680419921875,0.0024433890357613564,0.0030542362947016954,0.0006108472589403391
1771681128772161500,2.54716162109375,0.0024433890357613564,0.011606098152697086,0.005497625097632408
1771681128782518800,2.557518798828125,0.0030542362947016954,0.01038440316915512,0.004275931045413017
1771681128792876000,2.5678759765625,0.0018325417768210173,0.0030542362947016954,0.0030542362947016954
1771681128803233300,2.5782333984375,0.0012216945178806782,0.012827792204916477,0.004275931045413017
1771681128813590300,2.58859033203125,0.0012216945178806782,0.011606098152697086,0.004275931045413017
1771681128823947500,2.598947509765625,0.0012216945178806782,0.020157959312200546,0.005497625097632408
1771681128834304800,2.6093046875,0,0.023823043331503868,0.004275931045413017
1771681128844662000,2.619662109375,0.0018325417768210173,0.02748812735080719,0.0036650835536420345
1771681128855019300,2.630019287109375,-0.0006108472589403391,0.021990500390529633,0.004886778071522713
1771681128865376300,2.640376220703125,0.0030542362947016954,0.03420744836330414,0.0030542362947016954
1771681128875733500,2.6507333984375,0.0018325417768210173,0.020157959312200546,0.0012216945178806782
1771681128886090800,2.6610908203125,0.0024433890357613564,0.031153209507465363,0.0018325417768210173
1771681128896448000,2.671447998046875,0.004886778071522713,0.023212196305394173,0.006108472589403391
1771681128906805200,2.68180517578125,0.004886778071522713,0.015271181240677834,0.0036650835536420345
1771681128917162200,2.692162353515625,0.005497625097632408,0.01832541823387146,0.0018325417768210173
1771681128927519500,2.70251953125,0.004886778071522713,0.004886778071522713,0.00916270911693573
1771681128937876700,2.712876708984375,0.004886778071522713,0.01710372418165207,-0.0018325417768210173
1771681128948234000,2.72323388671875,0.006719320081174374,0.005497625097632408,0.009773556143045425
1771681128958591200,2.73359130859375,0.004886778071522713,0.017714571207761765,0.009773556143045425
1771681128968948200,2.7439482421875,0.004886778071522713,0.0006108472589403391,0.0036650835536420345
1771681128979305500,2.754305419921875,0.004886778071522713,0.004275931045413017,0.009773556143045425
1771681128989662700,2.764662841796875,0.0036650835536420345,0.014660334214568138,0.011606098152697086
1771681129000020000,2.77502001953125,0.004886778071522713,-0.011606098152697086,0.0030542362947016954
1771681129010377200,2.785377197265625,0.0012216945178806782,0.013438640162348747,0.004886778071522713
1771681129020734200,2.795734130859375,0.004275931045413017,0.0030542362947016954,0.006719320081174374
1771681129031091500,2.806091552734375,0.0006108472589403391,0.010995250195264816,0.0024433890357613564
1771681129041448700,2.81644873046875,0.0024433890357613564,0.01038440316915512,-0.0012216945178806782
1771681129051806000,2.826805908203125,0.0006108472589403391,0.005497625097632408,-0.0006108472589403391
1771681129062163200,2.8371630859375,0.0018325417768210173,0.012827792204916477,-0.004886778071522713
1771681129072520200,2.847520263671875,0.0018325417768210173,0.00916270911693573,-0.0036650835536420345
1771681129082877400,2.85787744140625,0.0024433890357613564,0.018936265259981155,-0.004275931045413017
1771681129093234700,2.868234619140625,0.0024433890357613564,0.014660334214568138,-0.009773556143045425
1771681129103592000,2.878592041015625,0.0018325417768210173,0.029320668429136276,-0.0018325417768210173
1771681129113949200,2.88894921875,0.0012216945178806782,0.02626643143594265,-0.012827792204916477
1771681129124306400,2.899306396484375,0.0024433890357613564,0.033596597611904144,-0.009773556143045425
1771681129134663400,2.909663330078125,0.0024433890357613564,0.036039989441633224,-0.007941014133393764
1771681129145020700,2.920020751953125,0.0024433890357613564,0.029320668429136276,-0.012827792204916477
1771681129155378000,2.9303779296875,0.004275931045413017,0.023212196305394173,-0.007941014133393764
1771681129165735200,2.940735107421875,0.0036650835536420345,0.030542362481355667,-0.00916270911693573
1771681129176092400,2.951092529296875,0.004886778071522713,0.014660334214568138,-0.008551862090826035
1771681129186449400,2.961449462890625,0.004275931045413017,0.029320668429136276,-0.00916270911693573
1771681129196806700,2.971806640625,0.004886778071522713,0.01588202826678753,-0.008551862090826035
1771681129207164000,2.982163818359375,0.004275931045413017,0.016492875292897224,-0.009773556143045425
1771681129217521200,2.992521240234375,0.004275931045413017,0.018936265259981155,-0.012827792204916477
1771681129227878400,3.00287841796875,0.005497625097632408,0.012216945178806782,-0.013438640162348747
1771681129238235600,3.013235595703125,0.0036650835536420345,0.023212196305394173,-0.009773556143045425
1771681129248592600,3.023592529296875,0.0018325417768210173,0.021379653364419937,-0.013438640162348747
1771681129258950000,3.033949951171875,0.0030542362947016954,0.02993151545524597,-0.008551862090826035
1771681129269307100,3.04430712890625,0.0030542362947016954,0.03665083646774292,-0.009773556143045425
1771681129279664400,3.054664306640625,0.0024433890357613564,0.03542914241552353,-0.006108472589403391
1771681129290021600,3.065021728515625,0.0006108472589403391,0.05070032179355621,-0.009773556143045425
1771681129300378600,3.075378662109375,0.0018325417768210173,0.03237490355968475,-0.007330167107284069
1771681129310736000,3.08573583984375,0.0006108472589403391,0.053143709897994995,-0.00916270911693573
1771681129321093000,3.096093017578125,0.0030542362947016954,0.036039989441633224,-0.00916270911693573
1771681129331450400,3.106450439453125,0.0012216945178806782,0.04337015375494957,-0.005497625097632408
1771681129341807600,3.1168076171875,0.0036650835536420345,0.03420744836330414,-0.006719320081174374
1771681129352164900,3.127164794921875,0.0012216945178806782,0.023212196305394173,-0.004886778071522713
1771681129362521900,3.13752197265625,0.0018325417768210173,0.037261683493852615,-0.005497625097632408
1771681129372879000,3.147879150390625,0.0024433890357613564,0.01588202826678753,-0.0030542362947016954
1771681129383236400,3.158236328125,0.0012216945178806782,0.02993151545524597,-0.01038440316915512
1771681129393593600,3.168593505859375,0.0018325417768210173,0.010995250195264816,0
1771681129403950800,3.178950927734375,-0.0018325417768210173,0.014049487188458443,-0.01038440316915512
1771681129414307800,3.189307861328125,0,0.004886778071522713,-0.00916270911693573
1771681129424665000,3.1996650390625,0,0.004886778071522713,-0.005497625097632408
1771681129435022300,3.210022216796875,0,0.0030542362947016954,-0.010995250195264816
1771681129445379600,3.220379638671875,0,0.0036650835536420345,-0.010995250195264816
1771681129455736800,3.23073681640625,-0.0006108472589403391,0.0012216945178806782,-0.01038440316915512
1771681129466094000,3.241093994140625,0.0006108472589403391,0.012827792204916477,-0.00916270911693573
1771681129476451000,3.251451171875,-0.0006108472589403391,0.005497625097632408,-0.015271181240677834
1771681129486808300,3.261808349609375,0,0.01954711228609085,-0.00916270911693573
1771681129497165600,3.27216552734375,0.0018325417768210173,0.021990500390529633,-0.00916270911693573
1771681129507522800,3.282522705078125,0,0.017714571207761765,-0.012827792204916477
1771681129517880000,3.292880126953125,0.0006108472589403391,0.02626643143594265,-0.007941014133393764
1771681129528237300,3.3032373046875,0.0006108472589403391,0.025655584409832954,-0.01038440316915512
1771681129538594300,3.31359423828125,0.0024433890357613564,0.01588202826678753,-0.014049487188458443
1771681129548951600,3.32395166015625,0.004886778071522713,0.01588202826678753,-0.010995250195264816
1771681129559308800,3.334308837890625,0.007330167107284069,0.016492875292897224,-0.006719320081174374
1771681129569666000,3.344666015625,0.006719320081174374,0.006108472589403391,-0.012216945178806782
1771681129580023300,3.355023193359375,0.007941014133393764,-0.0006108472589403391,-0.008551862090826035
1771681129590380300,3.36538037109375,0.008551862090826035,0.00916270911693573,-0.0036650835536420345
1771681129600737500,3.375737548828125,0.007941014133393764,-0.004275931045413017,-0.0012216945178806782
1771681129611094800,3.3860947265625,0.006108472589403391,0.006719320081174374,-0.006108472589403391
1771681129621452000,3.3964521484375,0.005497625097632408,0.012216945178806782,-0.0018325417768210173
1771681129631809300,3.406809326171875,0.004886778071522713,0.015271181240677834,-0.0024433890357613564
1771681129642166500,3.41716650390625,0.004275931045413017,0.014660334214568138,-0.006719320081174374
1771681129652523500,3.4275234375,0.004886778071522713,0.018936265259981155,-0.004886778071522713
1771681129662880800,3.437880859375,0.005497625097632408,0.01954711228609085,-0.0024433890357613564
1771681129673238000,3.448238037109375,0.0024433890357613564,0.028098974376916885,-0.0018325417768210173
1771681129683595300,3.45859521484375,0.0024433890357613564,0.029320668429136276,-0.0006108472589403391
1771681129693952500,3.468952392578125,0.0030542362947016954,0.030542362481355667,0.0036650835536420345
1771681129704309800,3.479309814453125,0.0018325417768210173,0.038483377546072006,0.004275931045413017
1771681129714666800,3.489666748046875,0.0030542362947016954,0.022601349279284477,0.006108472589403391
1771681129725024000,3.50002392578125,0.0030542362947016954,0.036039989441633224,0.01038440316915512
1771681129735381200,3.51038134765625,0.0030542362947016954,0.023212196305394173,0.0006108472589403391
1771681129745738500,3.520738525390625,0.004275931045413017,0.022601349279284477,0.004275931045413017
1771681129756095700,3.531095703125,0.0018325417768210173,0.026877280324697495,0.004886778071522713
1771681129766453000,3.541452880859375,0.004886778071522713,0.018936265259981155,0.005497625097632408
1771681129776810000,3.55181005859375,0.004275931045413017,0.01954711228609085,0.00916270911693573
1771681129787167200,3.562167236328125,0.004275931045413017,0.012827792204916477,0.00916270911693573
1771681129797524500,3.5725244140625,0.004275931045413017,0.005497625097632408,0.009773556143045425
1771681129807881700,3.5828818359375,0.004275931045413017,0.007330167107284069,0.013438640162348747
1771681129818239000,3.593239013671875,0.004275931045413017,-0.0024433890357613564,0.009773556143045425
1771681129828596200,3.60359619140625,0.0036650835536420345,0.0018325417768210173,0.008551862090826035
1771681129838953200,3.613953125,0.004886778071522713,0.00916270911693573,0.007330167107284069
1771681129849310500,3.624310546875,0.004275931045413017,0.004886778071522713,0.0036650835536420345
1771681129859667700,3.634667724609375,0.0006108472589403391,0.012827792204916477,-0.007941014133393764
1771681129870025000,3.64502490234375,0.0036650835536420345,0.0012216945178806782,-0.006719320081174374
1771681129880382200,3.65538232421875,0.0024433890357613564,0.02076880633831024,-0.006719320081174374
1771681129890739500,3.665739501953125,0.004275931045413017,0.008551862090826035,-0.012216945178806782
1771681129901096400,3.676096435546875,0.0030542362947016954,0.012216945178806782,-0.010995250195264816
1771681129911453700,3.68645361328125,0.0024433890357613564,0.020157959312200546,-0.01588202826678753
1771681129921811000,3.69681103515625,0.0024433890357613564,0.014660334214568138,-0.016492875292897224
1771681129932168200,3.707168212890625,0.0024433890357613564,0.033596597611904144,-0.02076880633831024
1771681129942525400,3.717525390625,0.0018325417768210173,0.022601349279284477,-0.023212196305394173
1771681129952882700,3.727882568359375,0.0012216945178806782,0.028098974376916885,-0.025655584409832954
1771681129963239700,3.73823974609375,0.0030542362947016954,0.029320668429136276,-0.021990500390529633
1771681129973597000,3.748596923828125,0.0030542362947016954,0.015271181240677834,-0.028098974376916885
1771681129983954200,3.7589541015625,0.0036650835536420345,0.020157959312200546,-0.02076880633831024
1771681129994311400,3.7693115234375,0.0036650835536420345,0.014660334214568138,-0.023212196305394173
1771681130004668700,3.779668701171875,0.004886778071522713,0.01588202826678753,-0.014660334214568138
1771681130015026000,3.79002587890625,0.0030542362947016954,0.020157959312200546,-0.013438640162348747
1771681130025383000,3.8003828125,0.004275931045413017,0.011606098152697086,-0.009773556143045425
1771681130035740200,3.810740234375,0.0030542362947016954,0.018936265259981155,-0.007941014133393764
1771681130046097400,3.821097412109375,0.006108472589403391,0.013438640162348747,-0.0006108472589403391
1771681130056454700,3.83145458984375,0.0036650835536420345,0.02076880633831024,-0.004886778071522713
1771681130066812000,3.84181201171875,0.0030542362947016954,0.01710372418165207,0.0030542362947016954
1771681130077169200,3.852169189453125,0.0024433890357613564,0.024433890357613564,0.006719320081174374
1771681130087526100,3.862526123046875,0.0030542362947016954,0.017714571207761765,0.007941014133393764
1771681130097883400,3.87288330078125,0.0030542362947016954,0.031153209507465363,0.015271181240677834
1771681130108240600,3.88324072265625,0.0036650835536420345,0.023823043331503868,0.01832541823387146
1771681130118598000,3.893597900390625,0.0018325417768210173,0.017714571207761765,0.014049487188458443
1771681130128955100,3.903955078125,0.0030542362947016954,0.020157959312200546,0.018936265259981155
1771681130139312400,3.9143125,0.0036650835536420345,0.021379653364419937,0.020157959312200546
1771681130149669600,3.924669677734375,0.0030542362947016954,0.007330167107284069,0.014049487188458443
1771681130160026600,3.935026611328125,0.004275931045413017,0.021379653364419937,0.023823043331503868
1771681130170384000,3.9453837890625,0.0036650835536420345,0.00916270911693573,0.02748812735080719
1771681130180741000,3.9557412109375,0.0012216945178806782,0.006719320081174374,0.028098974376916885
1771681130191098400,3.966098388671875,-0.0030542362947016954,0.006108472589403391,0.031153209507465363
1771681130201455600,3.97645556640625,0.0006108472589403391,0.024433890357613564,0.03665083646774292
1771681130211812900,3.986812744140625,0.0006108472589403391,0.0012216945178806782,0.05131116881966591
1771681130222169900,3.997169921875,0.0024433890357613564,0.021990500390529633,0.04825693368911743
1771681130232527000,4.007527099609375,0.007941014133393764,0,0.06352811306715012
1771681130242884400,4.01788427734375,0.004886778071522713,0.009773556143045425,0.06352811306715012
1771681130253241600,4.02824169921875,0.0024433890357613564,-0.012216945178806782,0.06169557198882103
1771681130263598800,4.038598876953125,0.0006108472589403391,0.022601349279284477,0.07024743407964706
1771681130273956000,4.0489560546875,-0.0006108472589403391,-0.004275931045413017,0.07146912813186646
1771681130284313300,4.059313232421875,0.0006108472589403391,-0.015271181240677834,0.051922015845775604
1771681130294670300,4.06967041015625,0.0030542362947016954,0.005497625097632408,0.051922015845775604
1771681130305027600,4.080027587890625,0.0012216945178806782,-0.014660334214568138,0.0525328628718853
1771681130315384800,4.090384765625,-0.0024433890357613564,0.0030542362947016954,0.030542362481355667
1771681130325742000,4.1007421875,-0.0030542362947016954,-0.011606098152697086,0.02076880633831024
1771681130336099300,4.111099365234375,0,0.014049487188458443,0.022601349279284477
1771681130346456600,4.12145654296875,0.0006108472589403391,0.0006108472589403391,0.01588202826678753
1771681130356813600,4.1318134765625,-0.0006108472589403391,0.004275931045413017,-0.0024433890357613564
1771681130367170800,4.1421708984375,-0.0006108472589403391,0.01038440316915512,-0.014049487188458443
1771681130377528000,4.152528076171875,-0.0036650835536420345,0.015271181240677834,-0.015271181240677834
1771681130387885300,4.16288525390625,-0.005497625097632408,0.02076880633831024,-0.023823043331503868
1771681130398242600,4.17324267578125,-0.00916270911693573,0,-0.037261683493852615
1771681130408599800,4.183599853515625,-0.012216945178806782,0.030542362481355667,-0.0390942245721817
1771681130418956800,4.193956787109375,-0.01038440316915512,0.022601349279284477,-0.02870982140302658
1771681130429314000,4.20431396484375,-0.011606098152697086,0.030542362481355667,-0.030542362481355667
1771681130439671300,4.21467138671875,-0.010995250195264816,0.05131116881966591,-0.02993151545524597
1771681130450028500,4.225028564453125,-0.011606098152697086,0.04947862774133682,-0.010995250195264816
1771681130460385800,4.2353857421875,-0.013438640162348747,0.05741964280605316,-0.01954711228609085
1771681130470743000,4.245742919921875,-0.013438640162348747,0.05375456064939499,-0.020157959312200546
1771681130481100000,4.25610009765625,-0.011606098152697086,0.05741964280605316,-0.006108472589403391
1771681130491457300,4.266457275390625,-0.014049487188458443,0.046424392610788345,-0.015271181240677834
1771681130501814500,4.276814453125,-0.011606098152697086,0.023212196305394173,-0.01954711228609085
1771681130512171800,4.287171875,-0.010995250195264816,0.045202698558568954,-0.009773556143045425
1771681130522529000,4.297529052734375,-0.009773556143045425,0.023823043331503868,-0.0018325417768210173
1771681130532886300,4.30788623046875,-0.006108472589403391,0.01832541823387146,-0.014049487188458443
1771681130543243500,4.318243408203125,-0.006108472589403391,0.028098974376916885,0.006719320081174374
1771681130553600500,4.3286005859375,-0.008551862090826035,0.042759306728839874,0.01954711228609085
1771681130563957800,4.338957763671875,-0.015271181240677834,0.03298575058579445,0.007330167107284069
1771681130574315000,4.34931494140625,-0.017714571207761765,0.06658235192298889,0.016492875292897224
1771681130584672300,4.35967236328125,-0.021379653364419937,0.061084724962711334,0.02748812735080719
1771681130595029500,4.370029541015625,-0.03665083646774292,0.016492875292897224,-0.012216945178806782
1771681130605386800,4.38038671875,-0.038483377546072006,0.012216945178806782,-0.031153209507465363
1771681130615744000,4.390743896484375,-0.02504473738372326,0.06413896381855011,0.014049487188458443
1771681130626101000,4.40110107421875,-0.04214845970273018,-0.021990500390529633,-0.024433890357613564
1771681130636458200,4.411458251953125,-0.05619794875383377,-0.03665083646774292,-0.03542914241552353
1771681130646815500,4.4218154296875,-0.05070032179355621,0.024433890357613564,0.020157959312200546
1771681130657172700,4.4321728515625,-0.07696675509214401,-0.0397050715982914,-0.0024433890357613564
1771681130667530000,4.442530029296875,-0.08002099394798279,-0.08368607610464096,-0.04337015375494957
1771681130677887200,4.45288720703125,-0.006108472589403391,-0.04092676565051079,-0.01832541823387146
1771681130688244500,4.463244384765625,-0.012827792204916477,-0.037261683493852615,-0.025655584409832954
1771681130698601500,4.4736015625,-0.04825693368911743,-0.10201149433851242,-0.07757759839296341
1771681130708958700,4.483958740234375,-0.06169557198882103,-0.009773556143045425,-0.04459185153245926
1771681130719316000,4.49431591796875,-0.029320668429136276,0.014660334214568138,-0.030542362481355667
1771681130729673200,4.504673095703125,-0.03420744836330414,-0.05070032179355621,-0.06902574002742767
1771681130740030500,4.515030517578125,-0.00916270911693573,0.01710372418165207,-0.03237490355968475
1771681130750387700,4.5253876953125,-0.007941014133393764,0.028098974376916885,-0.0024433890357613564
1771681130760745000,4.535744873046875,-0.005497625097632408,-0.02993151545524597,-0.023823043331503868
1771681130771102000,4.54610205078125,0.005497625097632408,-0.008551862090826035,-0.015271181240677834
1771681130781459200,4.556459228515625,0.0030542362947016954,0.005497625097632408,0.006108472589403391
1771681130791816400,4.56681640625,-0.01832541823387146,-0.047646086663007736,-0.02076880633831024
1771681130802173700,4.577173583984375,-0.07146912813186646,-0.06719319522380829,-0.053143709897994995
1771681130812531000,4.587531005859375,-0.10750912129878998,0.05070032179355621,0.023212196305394173
1771681130822888200,4.59788818359375,-0.08979454636573792,-0.017714571207761765,-0.026877280324697495
1771681130833245200,4.6082451171875,-0.0916270911693573,-0.031153209507465363,-0.03420744836330414
1771681130843602400,4.6186025390625,-0.07330167293548584,0.06352811306715012,0.026877280324697495
1771681130853959700,4.628959716796875,-0.010995250195264816,0.0030542362947016954,0.004275931045413017
1771681130864317000,4.63931689453125,-0.004886778071522713,-0.0024433890357613564,-0.0018325417768210173
1771681130874674200,4.649674072265625,-0.004275931045413017,0.018936265259981155,0.018936265259981155
1771681130885031400,4.660031494140625,-0.007330167107284069,-0.006719320081174374,0.014049487188458443
1771681130895388700,4.670388671875,-0.0030542362947016954,0.007330167107284069,0.004275931045413017
1771681130905745700,4.68074560546875,-0.0036650835536420345,0.01038440316915512,0.01832541823387146
1771681130916103000,4.69110302734375,-0.010995250195264816,0.0024433890357613564,0.005497625097632408
1771681130926460200,4.701460205078125,-0.01954711228609085,0.007330167107284069,-0.007330167107284069
1771681130936817400,4.7118173828125,-0.012827792204916477,0.03237490355968475,0.012827792204916477
1771681130947174700,4.722174560546875,-0.01038440316915512,0.01832541823387146,0.0012216945178806782
1771681130957532000,4.732531982421875,-0.016492875292897224,0.02993151545524597,-0.0036650835536420345
1771681130967889200,4.74288916015625,-0.012216945178806782,0.05619794875383377,0.0024433890357613564
1771681130978246400,4.753246337890625,-0.013438640162348747,0.03237490355968475,0
1771681130988603400,4.763603271484375,-0.011606098152697086,0.06047387793660164,-0.01038440316915512
1771681130998960600,4.773960693359375,-0.004275931045413017,0.07696675509214401,0.007330167107284069
1771681131009318000,4.78431787109375,-0.01954711228609085,-0.008551862090826035,-0.02993151545524597
1771681131019675100,4.794675048828125,-0.03542914241552353,-0.03298575058579445,-0.05497625470161438
1771681131030032400,4.805032470703125,-0.0036650835536420345,0.038483377546072006,0.009773556143045425
1771681131040389600,4.8153896484375,-0.0036650835536420345,0.014660334214568138,0.0018325417768210173
1771681131050747000,4.825746826171875,-0.004886778071522713,0.02870982140302658,-0.004886778071522713
1771681131061104000,4.836104248046875,-0.0006108472589403391,0.026877280324697495,0.006719320081174374
1771681131071461000,4.846461181640625,-0.0012216945178806782,0.02626643143594265,-0.006719320081174374
1771681131081818400,4.856818359375,-0.0018325417768210173,0.02626643143594265,-0.008551862090826035
1771681131092175600,4.867175537109375,-0.007941014133393764,0.04947862774133682,-0.007941014133393764
1771681131102532900,4.877532958984375,-0.023823043331503868,-0.01710372418165207,-0.045202698558568954
1771681131112890000,4.88789013671875,-0.008551862090826035,0.07513421028852463,-0.008551862090826035
1771681131123247400,4.898247314453125,-0.02076880633831024,0.051922015845775604,0.01038440316915512
1771681131133604400,4.908604248046875,-0.06902574002742767,-0.15026842057704926,-0.10323318839073181
1771681131143961600,4.918961669921875,-0.04886778071522713,-0.04092676565051079,-0.042759306728839874
1771681131154318800,4.92931884765625,-0.04581354558467865,0.009773556143045425,0.015271181240677834
1771681131164676000,4.939676025390625,-0.05375456064939499,-0.05131116881966591,-0.01710372418165207
1771681131175033300,4.950033447265625,-0.02993151545524597,0.005497625097632408,0.017714571207761765
1771681131185390600,4.960390625,-0.038483377546072006,0.0024433890357613564,0.028098974376916885
1771681131195747800,4.970747802734375,-0.0397050715982914,-0.02626643143594265,-0.0006108472589403391
1771681131206105000,4.98110498046875,-0.03176405653357506,0.018936265259981155,0.021379653364419937
1771681131216462000,4.991462158203125,-0.047646086663007736,-0.03298575058579445,0.012827792204916477
1771681131226819300,5.0018193359375,-0.07146912813186646,-0.04031591862440109,-0.01588202826678753
1771681131237176600,5.012176513671875,-0.04337015375494957,0.04947862774133682,0.04153761267662048
1771681131247533800,5.022533935546875,-0.04703523963689804,-0.045202698558568954,0.014660334214568138
1771681131257891000,5.03289111328125,-0.07513421028852463,-0.051922015845775604,-0.0397050715982914
1771681131268248300,5.043248291015625,-0.025655584409832954,-0.0006108472589403391,0.014660334214568138
1771681131278605600,5.05360546875,-0.004886778071522713,-0.02504473738372326,0.009773556143045425
1771681131288962800,5.063962890625,0.0006108472589403391,-0.004886778071522713,0.0006108472589403391
1771681131299319800,5.07431982421875,0.0006108472589403391,-0.006719320081174374,0.020157959312200546
1771681131309677000,5.084677001953125,0.0006108472589403391,-0.015271181240677834,0.0036650835536420345
1771681131320034300,5.095034423828125,0.0024433890357613564,0.014660334214568138,0.01832541823387146
1771681131330391600,5.1053916015625,-0.00916270911693573,0.0024433890357613564,0.017714571207761765
1771681131340748800,5.115748779296875,-0.0012216945178806782,-0.0012216945178806782,0.004886778071522713
1771681131351106000,5.12610595703125,0.005497625097632408,0.015271181240677834,0.018936265259981155
1771681131361463300,5.13646337890625,0.0036650835536420345,0.009773556143045425,0.01588202826678753
1771681131371820300,5.1468203125,0.006719320081174374,-0.01038440316915512,0.0012216945178806782
1771681131382177500,5.157177490234375,0,0.01710372418165207,0.02504473738372326
1771681131392534800,5.16753466796875,-0.004275931045413017,-0.021379653364419937,0.004886778071522713
1771681131402892000,5.17789208984375,-0.007330167107284069,0.025655584409832954,0.011606098152697086
1771681131413249300,5.188249267578125,-0.015271181240677834,0,0.021990500390529633
1771681131423606500,5.1986064453125,-0.013438640162348747,-0.010995250195264816,-0.006719320081174374
1771681131433963800,5.2089638671875,-0.014049487188458443,0.01832541823387146,0.007330167107284069
1771681131444321000,5.219321044921875,-0.016492875292897224,-0.0012216945178806782,0.007941014133393764
1771681131454678000,5.229677978515625,-0.01038440316915512,0.004886778071522713,-0.01588202826678753
1771681131465035300,5.24003515625,-0.012216945178806782,0.026877280324697495,0.007941014133393764
1771681131475392500,5.250392578125,-0.010995250195264816,-0.0024433890357613564,-0.012216945178806782
1771681131485749800,5.260749755859375,-0.00916270911693573,0.03176405653357506,-0.014660334214568138
1771681131496107000,5.27110693359375,-0.013438640162348747,0.01832541823387146,-0.0024433890357613564
1771681131506464300,5.28146435546875,-0.014049487188458443,0.0012216945178806782,-0.028098974376916885
1771681131516821500,5.291821533203125,-0.014660334214568138,0.04214845970273018,-0.006719320081174374
1771681131527178800,5.3021787109375,-0.017714571207761765,0.00916270911693573,-0.012216945178806782
1771681131537536000,5.312535888671875,-0.011606098152697086,0.02504473738372326,-0.023212196305394173
1771681131547893000,5.32289306640625,-0.01710372418165207,0.03420744836330414,0
1771681131558250200,5.333250244140625,-0.01038440316915512,0.0006108472589403391,-0.023823043331503868
1771681131568607500,5.343607421875,-0.006719320081174374,0.043981000781059265,-0.015271181240677834
1771681131578964700,5.35396484375,-0.02748812735080719,0.01832541823387146,-0.005497625097632408
1771681131589322000,5.364322021484375,-0.01832541823387146,0.0036650835536420345,-0.04092676565051079
1771681131599679200,5.37467919921875,-0.017714571207761765,0.054365407675504684,0.00916270911693573
1771681131610036500,5.385036376953125,-0.014049487188458443,0.007941014133393764,-0.01588202826678753
1771681131620393700,5.395393798828125,-0.005497625097632408,0.0397050715982914,-0.01832541823387146
1771681131630750700,5.405750732421875,-0.012827792204916477,0.024433890357613564,0.009773556143045425
1771681131641108000,5.41610791015625,-0.010995250195264816,0.02504473738372326,-0.014049487188458443
1771681131651465200,5.42646533203125,-0.012216945178806782,0.04153761267662048,0
1771681131661822500,5.436822509765625,-0.012216945178806782,0.010995250195264816,-0.004275931045413017
1771681131672179700,5.4471796875,-0.0030542362947016954,0.018936265259981155,-0.021990500390529633
1771681131682537000,5.457536865234375,-0.007330167107284069,0.036039989441633224,0.0018325417768210173
1771681131692894200,5.467894287109375,-0.0036650835536420345,-0.0030542362947016954,-0.02626643143594265
1771681131703251500,5.47825146484375,-0.0036650835536420345,0.03237490355968475,-0.005497625097632408
1771681131713608700,5.488608642578125,-0.00916270911693573,-0.005497625097632408,-0.011606098152697086
1771681131723966000,5.498966064453125,-0.007330167107284069,0.01588202826678753,-0.021379653364419937
1771681131734323000,5.509322998046875,-0.01710372418165207,0.017714571207761765,0.004275931045413017
1771681131744680200,5.51968017578125,-0.01588202826678753,-0.00916270911693573,-0.025655584409832954
1771681131755037400,5.530037353515625,-0.012216945178806782,0.03176405653357506,-0.007941014133393764
1771681131765394700,5.540394775390625,-0.017714571207761765,-0.005497625097632408,-0.010995250195264816
1771681131775752000,5.550751953125,-0.0036650835536420345,0.021379653364419937,-0.02504473738372326
1771681131786109200,5.561109130859375,-0.007330167107284069,0.01588202826678753,-0.006719320081174374
1771681131796466400,5.571466552734375,-0.0024433890357613564,0.010995250195264816,-0.023823043331503868
1771681131806823400,5.581823486328125,-0.0030542362947016954,0.033596597611904144,-0.006108472589403391
1771681131817180700,5.5921806640625,-0.009773556143045425,0.011606098152697086,-0.004886778071522713
1771681131827538000,5.602537841796875,-0.005497625097632408,0.01954711228609085,-0.015271181240677834
1771681131837895200,5.612895263671875,-0.011606098152697086,0.01832541823387146,0.01038440316915512
1771681131848252400,5.62325244140625,-0.00916270911693573,-0.0036650835536420345,-0.01588202826678753
1771681131858609700,5.633609619140625,-0.006719320081174374,0.02626643143594265,0.0024433890357613564
1771681131868967000,5.643966796875,-0.008551862090826035,-0.018936265259981155,-0.0024433890357613564
1771681131879324200,5.65432421875,-0.0006108472589403391,0.02993151545524597,-0.014049487188458443
1771681131889681400,5.664681396484375,-0.004886778071522713,0.0006108472589403391,0.006719320081174374
1771681131900038700,5.67503857421875,-0.0018325417768210173,-0.0030542362947016954,-0.020157959312200546
1771681131910395600,5.685395751953125,-0.0018325417768210173,0.028098974376916885,0.005497625097632408
1771681131920753000,5.6957529296875,-0.00916270911693573,-0.0390942245721817,-0.006108472589403391
1771681131931110100,5.706110107421875,-0.004886778071522713,0.0390942245721817,0.0030542362947016954
1771681131941467400,5.71646728515625,-0.016492875292897224,-0.03542914241552353,0.008551862090826035
1771681131951824600,5.72682470703125,-0.017714571207761765,0.024433890357613564,-0.006108472589403391
1771681131962182000,5.737181884765625,-0.01588202826678753,0.029320668429136276,0.01038440316915512
1771681131972539100,5.7475390625,-0.01954711228609085,0.0012216945178806782,-0.012827792204916477
1771681131982896400,5.757896484375,-0.004886778071522713,0.04459185153245926,-0.014049487188458443
1771681131993253600,5.768253662109375,-0.006108472589403391,-0.0030542362947016954,0.0012216945178806782
1771681132003611000,5.77861083984375,-0.004886778071522713,0.042759306728839874,-0.020157959312200546
1771681132013968000,5.7889677734375,-0.053143709897994995,-0.0012216945178806782,-0.0018325417768210173
1771681132024325000,5.7993251953125,-0.1050657257437706,0.00916270911693573,-0.0018325417768210173
1771681132034682400,5.809682373046875,-0.13866232335567474,0.06352811306715012,0.05803048983216286
1771681132045039600,5.82003955078125,-0.2638860046863556,-0.04092676565051079,0.004886778071522713
1771681132055396900,5.83039697265625,-0.16431790590286255,0.0781884491443634,0.0397050715982914
1771681132065754000,5.840754150390625,-0.16492876410484314,0.08551861345767975,0.04703523963689804
1771681132076111400,5.851111328125,-0.265718549489975,0.07024743407964706,-0.01710372418165207
1771681132086468600,5.861468505859375,-0.19424942135810852,0.012827792204916477,-0.03298575058579445
1771681132096825900,5.871825927734375,-0.11300674080848694,-0.012216945178806782,-0.026877280324697495
1771681132107182800,5.882182861328125,-0.012827792204916477,0.017714571207761765,-0.01588202826678753
1771681132117540000,5.8925400390625,-0.006108472589403391,-0.012827792204916477,-0.018936265259981155
1771681132127897300,5.9028974609375,-0.004275931045413017,0.03237490355968475,-0.014049487188458443
1771681132138254600,5.913254638671875,-0.012216945178806782,-0.023212196305394173,-0.008551862090826035
1771681132148611800,5.92361181640625,-0.01038440316915512,0.022601349279284477,-0.023212196305394173
1771681132158969000,5.933968994140625,-0.007330167107284069,-0.0012216945178806782,-0.006719320081174374
1771681132169326300,5.944326416015625,-0.006108472589403391,0.015271181240677834,-0.01588202826678753
1771681132179683600,5.95468359375,-0.0024433890357613564,0.023212196305394173,-0.012827792204916477
1771681132190040800,5.965040771484375,-0.004275931045413017,-0.0012216945178806782,-0.01954711228609085
1771681132200398000,5.975398193359375,-0.0036650835536420345,0.038483377546072006,-0.015271181240677834
1771681132210755300,5.98575537109375,-0.008551862090826035,-0.008551862090826035,-0.01710372418165207
1771681132221112300,5.9961123046875,-0.006108472589403391,0.02870982140302658,-0.02748812735080719
1771681132231469600,6.006469482421875,-0.014049487188458443,-0.010995250195264816,-0.01038440316915512
1771681132241826800,6.016826904296875,-0.014660334214568138,0.026877280324697495,-0.026877280324697495
1771681132252184000,6.02718408203125,-0.012827792204916477,0.004886778071522713,-0.01588202826678753
1771681132262541300,6.037541259765625,-0.009773556143045425,0.015271181240677834,-0.023212196305394173
1771681132272898600,6.047898681640625,-0.0018325417768210173,0.01588202826678753,-0.01954711228609085
1771681132283255800,6.058255859375,-0.0018325417768210173,-0.011606098152697086,-0.01954711228609085
1771681132293613000,6.068613037109375,0.0018325417768210173,0.009773556143045425,-0.01832541823387146
1771681132303970300,6.07897021484375,-0.004275931045413017,-0.042759306728839874,-0.012216945178806782
1771681132314327600,6.08932763671875,-0.006108472589403391,-0.0030542362947016954,-0.023212196305394173
1771681132324684500,6.0996845703125,-0.010995250195264816,-0.047646086663007736,-0.012216945178806782
1771681132335041800,6.110041748046875,-0.010995250195264816,-0.004886778071522713,-0.023212196305394173
1771681132345399000,6.12039892578125,-0.007330167107284069,-0.025655584409832954,-0.010995250195264816
1771681132355756300,6.13075634765625,-0.006719320081174374,-0.0030542362947016954,-0.02076880633831024
1771681132366113500,6.141113525390625,-0.0012216945178806782,0.010995250195264816,-0.013438640162348747
1771681132376470800,6.151470703125,-0.0030542362947016954,-0.0006108472589403391,-0.006108472589403391
1771681132386828000,6.161828125,-0.004275931045413017,0.02748812735080719,-0.011606098152697086
1771681132397185300,6.172185302734375,-0.007941014133393764,-0.00916270911693573,-0.0012216945178806782
1771681132407542500,6.18254248046875,-0.008551862090826035,0.02076880633831024,-0.004275931045413017
1771681132417899800,6.192899658203125,-0.009773556143045425,-0.02076880633831024,0.004275931045413017
1771681132428256800,6.2032568359375,-0.009773556143045425,0.014660334214568138,-0.008551862090826035
1771681132438614000,6.213614013671875,-0.005497625097632408,-0.012216945178806782,0.006108472589403391
1771681132448971300,6.22397119140625,-0.005497625097632408,0.016492875292897224,0.0018325417768210173
1771681132459328500,6.23432861328125,-0.0012216945178806782,0.005497625097632408,0.007941014133393764
1771681132469685800,6.244685791015625,-0.0024433890357613564,0.007330167107284069,0.007330167107284069
1771681132480043000,6.25504296875,-0.0018325417768210173,0.01588202826678753,0.015271181240677834
1771681132490400300,6.265400146484375,-0.006719320081174374,-0.0024433890357613564,0.013438640162348747
1771681132500757500,6.275757568359375,-0.008551862090826035,0.01832541823387146,0.01710372418165207
1771681132511114800,6.28611474609375,-0.014660334214568138,-0.005497625097632408,0.014660334214568138
1771681132521472000,6.296471923828125,-0.011606098152697086,0.03237490355968475,0.010995250195264816
1771681132531829200,6.306829345703125,-0.008551862090826035,-0.0006108472589403391,0.018936265259981155
1771681132542186200,6.317186279296875,-0.007330167107284069,0.0397050715982914,0.01038440316915512
1771681132552543500,6.32754345703125,-0.0036650835536420345,-0.007330167107284069,0.012827792204916477
1771681132562900700,6.337900634765625,-0.0024433890357613564,0.024433890357613564,0.011606098152697086
1771681132573258000,6.348258056640625,-0.0024433890357613564,-0.01832541823387146,0.017714571207761765
1771681132583615200,6.358615234375,-0.006719320081174374,0.010995250195264816,0.005497625097632408
1771681132593984000,6.36898388671875,-0.009773556143045425,-0.016492875292897224,0.013438640162348747
1771681132604329700,6.379329833984375,-0.011606098152697086,0.012827792204916477,0.004886778071522713
1771681132614707500,6.38970751953125,-0.00916270911693573,0.0024433890357613564,0.005497625097632408
1771681132625044200,6.400044189453125,-0.01038440316915512,0.00916270911693573,0.0012216945178806782
1771681132635431200,6.41043115234375,-0.004275931045413017,0.021990500390529633,0.0036650835536420345
1771681132645758700,6.4207587890625,-0.004275931045413017,0.0012216945178806782,0
1771681132656124400,6.43112451171875,-0.004275931045413017,0.024433890357613564,-0.006108472589403391
1771681132666473000,6.441472900390625,-0.007941014133393764,-0.0030542362947016954,0.0006108472589403391
1771681132676847900,6.451847900390625,-0.012216945178806782,0.02748812735080719,-0.004275931045413017
1771681132687187500,6.4621875,-0.011606098152697086,-0.021379653364419937,0.0012216945178806782
1771681132697544700,6.472544677734375,-0.012216945178806782,0.018936265259981155,-0.0018325417768210173
1771681132707918000,6.48291796875,-0.01038440316915512,-0.011606098152697086,0.0006108472589403391
1771681132718264800,6.493264892578125,-0.007941014133393764,0.033596597611904144,-0.0030542362947016954
1771681132728641800,6.503641845703125,-0.004886778071522713,0.004275931045413017,0
1771681132738988300,6.51398828125,-0.007330167107284069,0.043981000781059265,0
1771681132749331000,6.5243310546875,-0.009773556143045425,0.007941014133393764,0.006108472589403391
1771681132759688200,6.534688232421875,-0.013438640162348747,0.03176405653357506,0.0030542362947016954
1771681132770045400,6.54504541015625,-0.014660334214568138,0.014049487188458443,0.0012216945178806782
1771681132780402700,6.555402587890625,-0.016492875292897224,0.034818295389413834,0.004886778071522713
1771681132790760000,6.565760009765625,-0.012216945178806782,0.023212196305394173,-0.0012216945178806782
1771681132801117000,6.576116943359375,-0.009773556143045425,0.04031591862440109,-0.0030542362947016954
1771681132811474200,6.58647412109375,-0.007941014133393764,0.014660334214568138,-0.007330167107284069
1771681132821831400,6.59683154296875,-0.005497625097632408,0.02870982140302658,-0.011606098152697086
1771681132832188700,6.607188720703125,-0.007941014133393764,-0.007941014133393764,-0.008551862090826035
1771681132842546000,6.6175458984375,-0.009773556143045425,0.004275931045413017,-0.014049487188458443
1771681132852903200,6.627903076171875,-0.011606098152697086,-0.023212196305394173,-0.011606098152697086
1771681132863260400,6.638260498046875,-0.012216945178806782,-0.005497625097632408,-0.012216945178806782
1771681132873617700,6.64861767578125,-0.010995250195264816,-0.011606098152697086,-0.00916270911693573
1771681132883975000,6.658974853515625,-0.008551862090826035,0.006719320081174374,-0.01038440316915512
1771681132894332200,6.669332275390625,-0.007941014133393764,0,-0.005497625097632408
1771681132904689400,6.679689453125,-0.008551862090826035,0.0036650835536420345,-0.009773556143045425
1771681132915046700,6.690046630859375,-0.007941014133393764,-0.0036650835536420345,-0.0024433890357613564
1771681132925404000,6.70040380859375,-0.009773556143045425,0.0006108472589403391,-0.006719320081174374
1771681132935761000,6.710760986328125,-0.014660334214568138,-0.0024433890357613564,-0.0024433890357613564
1771681132946118100,6.7211181640625,-0.01588202826678753,0.007330167107284069,-0.006719320081174374
1771681132956475400,6.731475341796875,-0.011606098152697086,0.005497625097632408,-0.006108472589403391
1771681132966832600,6.74183251953125,-0.011606098152697086,0.012216945178806782,-0.004886778071522713
1771681132977190000,6.75218994140625,-0.007941014133393764,0.009773556143045425,-0.006719320081174374
1771681132987547100,6.762547119140625,-0.004886778071522713,0.011606098152697086,-0.00916270911693573
1771681132997904400,6.772904296875,-0.00916270911693573,0.018936265259981155,-0.006108472589403391
1771681133008261600,6.78326171875,-0.013438640162348747,0.004886778071522713,-0.0036650835536420345
1771681133018619000,6.793618896484375,-0.014660334214568138,0.004275931045413017,-0.012827792204916477
1771681133028976000,6.80397607421875,-0.013438640162348747,-0.006719320081174374,-0.009773556143045425
1771681133039333400,6.81433349609375,-0.011606098152697086,-0.0024433890357613564,-0.004886778071522713
1771681133049690600,6.824690673828125,-0.005497625097632408,-0.0018325417768210173,-0.01038440316915512
1771681133060048000,6.8350478515625,-0.004275931045413017,-0.004886778071522713,-0.0036650835536420345
1771681133070405000,6.845405029296875,-0.0030542362947016954,0.02076880633831024,-0.0006108472589403391
1771681133080762000,6.85576220703125,-0.005497625097632408,-0.012827792204916477,0.0018325417768210173
1771681133091119400,6.866119384765625,-0.006108472589403391,0.009773556143045425,-0.004275931045413017
1771681133101476600,6.8764765625,-0.009773556143045425,-0.0030542362947016954,0.004275931045413017
1771681133111833900,6.886833740234375,-0.008551862090826035,0.010995250195264816,-0.0006108472589403391
1771681133122191000,6.897191162109375,-0.00916270911693573,0.011606098152697086,0.004275931045413017
1771681133132548400,6.90754833984375,-0.0030542362947016954,0.017714571207761765,0.0018325417768210173
1771681133142905600,6.917905517578125,-0.0012216945178806782,0.007330167107284069,0.0036650835536420345
1771681133153262800,6.928262939453125,-0.0018325417768210173,0.021990500390529633,-0.0006108472589403391
1771681133163620000,6.9386201171875,-0.0030542362947016954,0.0006108472589403391,0.0012216945178806782
1771681133173977300,6.948977294921875,-0.007330167107284069,0.023212196305394173,0.0006108472589403391
1771681133184334600,6.95933447265625,-0.009773556143045425,-0.004275931045413017,-0.0030542362947016954
1771681133194691800,6.96969189453125,-0.007330167107284069,0.016492875292897224,-0.0036650835536420345
1771681133205048800,6.980048828125,-0.00916270911693573,0.010995250195264816,0.0006108472589403391
1771681133215406000,6.990406005859375,-0.007330167107284069,0.030542362481355667,-0.0012216945178806782
1771681133225763300,7.000763427734375,-0.006719320081174374,0.0036650835536420345,-0.0024433890357613564
1771681133236120600,7.01112060546875,-0.007941014133393764,0.029320668429136276,-0.006719320081174374
1771681133246477800,7.021477783203125,-0.01038440316915512,-0.010995250195264816,-0.0012216945178806782
1771681133256835000,7.0318349609375,-0.012827792204916477,0.01954711228609085,-0.007941014133393764
1771681133267192300,7.0421923828125,-0.012827792204916477,-0.0030542362947016954,-0.0024433890357613564
1771681133277549600,7.052549560546875,-0.012827792204916477,0.031153209507465363,0.004886778071522713
1771681133287906800,7.06290673828125,-0.007330167107284069,0.016492875292897224,0.006719320081174374
1771681133298264000,7.07326416015625,-0.005497625097632408,0.01038440316915512,0.006108472589403391
1771681133308621300,7.083621337890625,-0.0018325417768210173,0.0012216945178806782,0.010995250195264816
1771681133318978600,7.093978515625,-0.0036650835536420345,0.005497625097632408,0.014049487188458443
1771681133329335800,7.104335693359375,-0.007330167107284069,-0.0018325417768210173,0.005497625097632408
1771681133339693000,7.114693115234375,-0.008551862090826035,0.004275931045413017,0.007330167107284069
1771681133350050300,7.12505029296875,-0.006719320081174374,0.0024433890357613564,0.004886778071522713
1771681133360407600,7.135407470703125,-0.005497625097632408,-0.0006108472589403391,0.0036650835536420345
1771681133370764800,7.145764892578125,0,0.004275931045413017,0.005497625097632408
1771681133381122000,7.1561220703125,-0.0006108472589403391,-0.0006108472589403391,0.004275931045413017
1771681133391479000,7.16647900390625,-0.0024433890357613564,0.00916270911693573,0.004886778071522713
1771681133401836300,7.176836181640625,-0.0024433890357613564,-0.010995250195264816,0.0030542362947016954
1771681133412193500,7.187193603515625,-0.0024433890357613564,0.0030542362947016954,-0.005497625097632408
1771681133422550800,7.19755078125,-0.005497625097632408,-0.014049487188458443,-0.004886778071522713
1771681133432908000,7.207907958984375,-0.0030542362947016954,0.006108472589403391,-0.013438640162348747
1771681133443265300,7.218265380859375,-0.0012216945178806782,-0.005497625097632408,-0.009773556143045425
1771681133453622500,7.22862255859375,0.0012216945178806782,0.0036650835536420345,-0.007330167107284069
1771681133463979800,7.238979736328125,0.0006108472589403391,-0.014660334214568138,-0.007941014133393764
1771681133474337000,7.2493369140625,-0.0018325417768210173,-0.01038440316915512,-0.0006108472589403391
1771681133484694300,7.2596943359375,-0.004886778071522713,-0.004275931045413017,-0.006719320081174374
1771681133495051500,7.270051513671875,-0.005497625097632408,0,-0.0030542362947016954
1771681133505408800,7.28040869140625,-0.004886778071522713,0,-0.007941014133393764
1771681133515766000,7.29076611328125,0.0006108472589403391,0.004275931045413017,-0.011606098152697086
1771681133526123000,7.301123046875,0.0006108472589403391,-0.0006108472589403391,-0.007330167107284069
1771681133536480300,7.311480224609375,0.004886778071522713,-0.005497625097632408,-0.012827792204916477
1771681133546837500,7.32183740234375,0.0030542362947016954,-0.0030542362947016954,-0.008551862090826035
1771681133557194800,7.33219482421875,0,-0.02076880633831024,-0.00916270911693573
1771681133567552000,7.342552001953125,0.0006108472589403391,-0.0018325417768210173,-0.012216945178806782
1771681133577909200,7.3529091796875,0.0018325417768210173,-0.015271181240677834,-0.018936265259981155
1771681133588266500,7.3632666015625,0.0036650835536420345,0.01954711228609085,-0.03237490355968475
1771681133598623700,7.373623779296875,0.0006108472589403391,0.006719320081174374,-0.0397050715982914
1771681133608981000,7.38398095703125,0.0030542362947016954,0.025655584409832954,-0.054365407675504684
1771681133619338200,7.394338134765625,0.0036650835536420345,-0.004886778071522713,-0.056808795779943466
1771681133629695500,7.404695556640625,0.0030542362947016954,0.008551862090826035,-0.06352811306715012
1771681133640052700,7.415052734375,0.0036650835536420345,-0.0036650835536420345,-0.06413896381855011
1771681133650410000,7.425409912109375,-0.0018325417768210173,0.014049487188458443,-0.06841489672660828
1771681133660767200,7.435767333984375,-0.0030542362947016954,0.010995250195264816,-0.07330167293548584
1771681133671124500,7.44612451171875,-0.004886778071522713,0.01710372418165207,-0.08124268800020218
1771681133681481700,7.456481689453125,-0.0036650835536420345,0.02076880633831024,-0.07757759839296341
1771681133691839000,7.4668388671875,-0.004275931045413017,0.020157959312200546,-0.08246438205242157
1771681133702196000,7.477196044921875,-0.0012216945178806782,0.021990500390529633,-0.08551861345767975
1771681133712553200,7.48755322265625,0.0012216945178806782,0.016492875292897224,-0.0787992998957634
1771681133722910500,7.497910400390625,0.004275931045413017,0.023212196305394173,-0.07024743407964706
1771681133733267700,7.508267822265625,0,0.024433890357613564,-0.06780404597520828
1771681133743625000,7.518625,-0.0012216945178806782,0.02076880633831024,-0.06658235192298889
1771681133753982200,7.528982177734375,-0.0006108472589403391,0.013438640162348747,-0.06413896381855011
1771681133764339500,7.53933935546875,-0.0024433890357613564,0.007941014133393764,-0.0647498071193695
1771681133774696700,7.54969677734375,-0.004275931045413017,-0.0030542362947016954,-0.06169557198882103
1771681133785054000,7.560053955078125,-0.0006108472589403391,-0.004275931045413017,-0.05803048983216286
1771681133795411200,7.5704111328125,0.0012216945178806782,-0.010995250195264816,-0.04886778071522713
1771681133805768400,7.5807685546875,0.0036650835536420345,-0.0024433890357613564,-0.04825693368911743
1771681133816125700,7.591125732421875,0.004886778071522713,-0.006719320081174374,-0.04459185153245926
1771681133826483000,7.60148291015625,0.007941014133393764,-0.006108472589403391,-0.02870982140302658
1771681133836840200,7.611840087890625,0.006719320081174374,0.0030542362947016954,-0.026877280324697495
1771681133847197400,7.622197509765625,0.005497625097632408,-0.007941014133393764,-0.021990500390529633
1771681133857554700,7.6325546875,0.005497625097632408,0.0036650835536420345,-0.007941014133393764
1771681133867912000,7.642911865234375,0.0030542362947016954,0.0030542362947016954,-0.010995250195264816
1771681133878269200,7.653269287109375,0.0018325417768210173,-0.0024433890357613564,-0.0012216945178806782
1771681133888626200,7.663626220703125,0,0.018936265259981155,0.007941014133393764
1771681133898983400,7.6739833984375,0.0018325417768210173,0.006108472589403391,0.018936265259981155
1771681133909340700,7.684340576171875,0.0012216945178806782,0.021990500390529633,0.024433890357613564
1771681133919698000,7.694697998046875,0.0024433890357613564,0.008551862090826035,0.03176405653357506
1771681133930055200,7.70505517578125,0.0030542362947016954,0.014049487188458443,0.037261683493852615
1771681133940412400,7.715412353515625,0.0036650835536420345,-0.0006108472589403391,0.037261683493852615
1771681133950769700,7.725769775390625,0.004886778071522713,0.01038440316915512,0.03787253051996231
1771681133961127000,7.736126953125,0.004886778071522713,0.0006108472589403391,0.04337015375494957
1771681133971484200,7.746484130859375,0.005497625097632408,0.0024433890357613564,0.042759306728839874
1771681133981841400,7.75684130859375,0.004886778071522713,-0.006108472589403391,0.037261683493852615
1771681133992198700,7.76719873046875,0.0012216945178806782,-0.007941014133393764,0.038483377546072006
1771681134002556000,7.777555908203125,0.0030542362947016954,-0.006719320081174374,0.03176405653357506
1771681134012913200,7.7879130859375,0.0024433890357613564,-0.01038440316915512,0.0390942245721817
1771681134023270400,7.7982705078125,0.0030542362947016954,0.004275931045413017,0.02993151545524597
1771681134033627600,7.808627685546875,0.0030542362947016954,-0.007330167107284069,0.033596597611904144
1771681134043985000,7.81898486328125,0.004275931045413017,0.014660334214568138,0.025655584409832954
1771681134054342100,7.829342041015625,0.0036650835536420345,0,0.03176405653357506
1771681134064699400,7.839699462890625,0.0036650835536420345,0.01038440316915512,0.021379653364419937
1771681134075056400,7.850056396484375,0.005497625097632408,0.004886778071522713,0.02076880633831024
1771681134085413600,7.86041357421875,0.0030542362947016954,0.014049487188458443,0.017714571207761765
1771681134095771000,7.87077099609375,0.0024433890357613564,0.012216945178806782,0.012827792204916477
1771681134106128100,7.881128173828125,0,0.015271181240677834,0.006108472589403391
1771681134116485400,7.8914853515625,-0.0006108472589403391,0.025655584409832954,0.011606098152697086
1771681134126842600,7.901842529296875,0,0.02504473738372326,0.007941014133393764
1771681134137199900,7.912199951171875,0,0.02504473738372326,0.004886778071522713
1771681134147557000,7.92255712890625,0,0.02870982140302658,0.004886778071522713
1771681134157914400,7.932914306640625,0.0006108472589403391,0.02504473738372326,0.006108472589403391
1771681134168271600,7.943271728515625,-0.0006108472589403391,0.03665083646774292,0.0018325417768210173
1771681134178628900,7.95362890625,-0.0006108472589403391,0.02993151545524597,-0.0024433890357613564
1771681134188986000,7.963986083984375,0,0.034818295389413834,-0.004275931045413017
1771681134199343400,7.97434326171875,0.0018325417768210173,0.026877280324697495,-0.007330167107284069
1771681134209700600,7.98470068359375,0.0006108472589403391,0.02870982140302658,-0.01038440316915512
1771681134220057900,7.995057861328125,0.0006108472589403391,0.01710372418165207,-0.006108472589403391
1771681134230415000,8.0054150390625,0.0012216945178806782,0.009773556143045425,-0.015271181240677834
1771681134240772400,8.0157724609375,0.0036650835536420345,-0.0006108472589403391,-0.014049487188458443
1771681134251129600,8.026129638671875,0.0030542362947016954,0.006108472589403391,-0.018936265259981155
1771681134261486600,8.036486572265625,0.0036650835536420345,0.0006108472589403391,-0.02748812735080719
1771681134271843800,8.04684375,0.0030542362947016954,0.004275931045413017,-0.021990500390529633
1771681134282201000,8.057201171875,0.0012216945178806782,0.0024433890357613564,-0.02870982140302658
1771681134292558300,8.067558349609374,0.0018325417768210173,0.0018325417768210173,-0.03787253051996231
1771681134302915600,8.07791552734375,0.0024433890357613564,-0.010995250195264816,-0.024433890357613564
1771681134313272800,8.08827294921875,0,0.011606098152697086,-0.02626643143594265
1771681134323630000,8.098630126953125,0.0012216945178806782,-0.01038440316915512,-0.03237490355968475
1771681134333987300,8.1089873046875,-0.0012216945178806782,0.00916270911693573,-0.026877280324697495
1771681134344344600,8.119344482421875,0,0.014049487188458443,-0.023212196305394173
1771681134354701800,8.129701904296875,-0.0012216945178806782,0.011606098152697086,-0.023823043331503868
1771681134365059000,8.14005908203125,0,0.015271181240677834,-0.01832541823387146
1771681134375416300,8.150416259765626,0.0018325417768210173,0.016492875292897224,-0.014049487188458443
1771681134385773600,8.160773681640626,0,0.021990500390529633,-0.012216945178806782
1771681134396130800,8.171130859375,0.0006108472589403391,0.028098974376916885,-0.011606098152697086
1771681134406488000,8.181488037109375,0.0024433890357613564,0.030542362481355667,-0.006108472589403391
1771681134416845300,8.19184521484375,0.0024433890357613564,0.022601349279284477,-0.008551862090826035
1771681134427202600,8.20220263671875,0.0030542362947016954,0.02870982140302658,-0.0024433890357613564
1771681134437559800,8.212559814453124,0.0030542362947016954,0.012216945178806782,-0.004275931045413017
1771681134447917000,8.2229169921875,0.004275931045413017,0.0018325417768210173,-0.006719320081174374
1771681134458274300,8.2332744140625,0.004275931045413017,0.004886778071522713,-0.006719320081174374
1771681134468631600,8.243631591796875,0.005497625097632408,0.008551862090826035,-0.013438640162348747
1771681134478988500,8.253988525390625,0.007941014133393764,0.0030542362947016954,-0.012216945178806782
1771681134489345800,8.264345703125,0.007330167107284069,0.02076880633831024,-0.011606098152697086
1771681134499703000,8.274703125,0.005497625097632408,0.004275931045413017,-0.012827792204916477
1771681134510060300,8.285060302734376,0.004275931045413017,0.02504473738372326,-0.015271181240677834
1771681134520417500,8.29541748046875,0.0036650835536420345,0.014049487188458443,-0.005497625097632408
1771681134530774800,8.30577490234375,0.0018325417768210173,0.022601349279284477,-0.006108472589403391
1771681134541132000,8.316132080078125,0.0018325417768210173,0.021990500390529633,-0.011606098152697086
1771681134551489300,8.3264892578125,-0.0006108472589403391,0.026877280324697495,0
1771681134561846500,8.336846435546875,-0.0036650835536420345,0.038483377546072006,-0.0012216945178806782
1771681134572203800,8.347203857421874,-0.0006108472589403391,0.023212196305394173,0.004886778071522713
1771681134582561000,8.35756103515625,-0.0006108472589403391,0.0397050715982914,0.014049487188458443
1771681134592918300,8.367918212890626,-0.0012216945178806782,0.021990500390529633,0.014049487188458443
1771681134603275500,8.378275634765625,-0.0012216945178806782,0.023212196305394173,0.017714571207761765
1771681134613632800,8.3886328125,-0.0012216945178806782,0.017714571207761765,0.018936265259981155
1771681134623990000,8.398989990234375,-0.0012216945178806782,0.024433890357613564,0.018936265259981155
1771681134634347300,8.40934716796875,-0.0018325417768210173,0.013438640162348747,0.009773556143045425
1771681134644704500,8.41970458984375,0,0.017714571207761765,0.01832541823387146
1771681134655061800,8.430061767578126,-0.0006108472589403391,0.006719320081174374,0.014660334214568138
1771681134665419000,8.4404189453125,0.0012216945178806782,0,0.004275931045413017
1771681134675776300,8.4507763671875,0.0006108472589403391,-0.007330167107284069,0.009773556143045425
1771681134686133500,8.461133544921875,-0.0006108472589403391,-0.0024433890357613564,0.004275931045413017
1771681134696490500,8.471490478515625,0,-0.01038440316915512,0.0024433890357613564
1771681134706847700,8.48184765625,-0.0012216945178806782,0.005497625097632408,0.0024433890357613564
1771681134717205000,8.492205078125,0.0012216945178806782,0.0012216945178806782,-0.0018325417768210173
1771681134727562200,8.502562255859376,0.0024433890357613564,0.004886778071522713,-0.009773556143045425
1771681134737919500,8.51291943359375,0.0018325417768210173,0.007330167107284069,-0.009773556143045425
1771681134748276700,8.52327685546875,0,0.01038440316915512,-0.010995250195264816
1771681134758634000,8.533634033203125,0.0012216945178806782,0.010995250195264816,-0.009773556143045425
1771681134768991200,8.5439912109375,-0.0012216945178806782,0.013438640162348747,-0.014660334214568138
1771681134779348500,8.554348388671874,-0.0024433890357613564,0.012827792204916477,-0.01038440316915512
1771681134789705700,8.564705810546876,-0.0012216945178806782,0.013438640162348747,-0.004275931045413017
1771681134800063000,8.57506298828125,0,0.013438640162348747,-0.01038440316915512
1771681134810420200,8.585420166015625,-0.0006108472589403391,0.0036650835536420345,-0.01038440316915512
1771681134820777500,8.595777587890625,0.0006108472589403391,0.016492875292897224,-0.0030542362947016954
1771681134831134700,8.606134765625,0.0012216945178806782,0.014049487188458443,-0.012216945178806782
1771681134841492000,8.616491943359375,0.0012216945178806782,0.023823043331503868,-0.01710372418165207
1771681134851849200,8.62684912109375,-0.0012216945178806782,0.029320668429136276,-0.006108472589403391
1771681134862206500,8.63720654296875,0.0012216945178806782,0.03665083646774292,-0.006108472589403391
1771681134872563700,8.647563720703126,0,0.023212196305394173,-0.01038440316915512
1771681134882921000,8.6579208984375,0.0006108472589403391,0.026877280324697495,-0.004275931045413017
1771681134893278200,8.6682783203125,-0.0018325417768210173,0.016492875292897224,-0.005497625097632408
1771681134903635500,8.678635498046875,0.0006108472589403391,0.004275931045413017,-0.015271181240677834
1771681134913992700,8.68899267578125,0.0012216945178806782,0.006108472589403391,-0.012827792204916477
1771681134924350000,8.699349853515624,0,0.010995250195264816,-0.015271181240677834
1771681134934707200,8.709707275390626,0.0006108472589403391,0.0012216945178806782,-0.020157959312200546
1771681134945064200,8.720064208984375,0.0012216945178806782,0.01038440316915512,-0.022601349279284477
1771681134955421400,8.73042138671875,0.0018325417768210173,0.005497625097632408,-0.021379653364419937
1771681134965778700,8.74077880859375,0.0012216945178806782,0.007330167107284069,-0.021379653364419937
1771681134976136000,8.751135986328125,-0.0012216945178806782,0.010995250195264816,-0.021990500390529633
1771681134986493200,8.7614931640625,-0.0006108472589403391,0.010995250195264816,-0.015271181240677834
1771681134996850400,8.771850341796876,-0.0024433890357613564,0.008551862090826035,-0.017714571207761765
1771681135007207700,8.782207763671876,-0.004275931045413017,-0.0030542362947016954,-0.017714571207761765
1771681135017565000,8.79256494140625,-0.0036650835536420345,0.007330167107284069,-0.014049487188458443
1771681135027922200,8.802922119140625,-0.004275931045413017,0,-0.014660334214568138
1771681135038279400,8.813279541015625,-0.0024433890357613564,0.008551862090826035,-0.014049487188458443
1771681135048636700,8.82363671875,-0.0036650835536420345,0.015271181240677834,-0.00916270911693573
1771681135058994000,8.833993896484374,-0.0012216945178806782,0.016492875292897224,-0.007330167107284069
1771681135069351200,8.84435107421875,-0.0024433890357613564,0.021990500390529633,-0.011606098152697086
1771681135079708400,8.85470849609375,0,0.022601349279284477,-0.0012216945178806782
1771681135090065700,8.865065673828125,-0.0024433890357613564,0.03420744836330414,-0.0006108472589403391
1771681135100423000,8.8754228515625,0,0.020157959312200546,-0.00916270911693573
1771681135110780200,8.8857802734375,-0.0006108472589403391,0.01710372418165207,-0.0024433890357613564
1771681135121137400,8.896137451171874,0.0012216945178806782,0.02076880633831024,-0.0036650835536420345
1771681135131494700,8.90649462890625,0.0012216945178806782,-0.0006108472589403391,-0.004275931045413017
1771681135141852000,8.916851806640626,0.0012216945178806782,0.012216945178806782,-0.008551862090826035
1771681135152209200,8.927209228515625,0.0018325417768210173,0.0036650835536420345,-0.0006108472589403391
1771681135162566400,8.93756640625,0.0018325417768210173,0.017714571207761765,-0.0030542362947016954
1771681135172923600,8.947923583984375,0.0030542362947016954,0.007941014133393764,-0.004886778071522713
1771681135183281000,8.958281005859375,0.004275931045413017,0.00916270911693573,-0.0006108472589403391
1771681135193638000,8.968637939453124,0.0012216945178806782,0.01588202826678753,0.0018325417768210173
1771681135203995100,8.9789951171875,-0.0006108472589403391,0.006108472589403391,0.0036650835536420345
1771681135214352400,8.989352294921876,-0.0006108472589403391,0.006719320081174374,0.004886778071522713
1771681135224709600,8.999709716796875,-0.0030542362947016954,0.005497625097632408,0.009773556143045425
1771681135235067000,9.01006689453125,-0.004275931045413017,0.007330167107284069,0.005497625097632408
1771681135245424000,9.020424072265625,-0.004275931045413017,0.0018325417768210173,0.004275931045413017
1771681135255781400,9.030781494140625,-0.0024433890357613564,0.00916270911693573,0.006108472589403391
1771681135266138600,9.041138671875,-0.0036650835536420345,0.004886778071522713,0.007330167107284069
1771681135276496000,9.051495849609376,-0.0036650835536420345,0.012216945178806782,0.010995250195264816
1771681135286853000,9.06185302734375,-0.004275931045413017,0.014049487188458443,0.014660334214568138
1771681135297210400,9.07221044921875,-0.0030542362947016954,0.01588202826678753,0.01832541823387146
1771681135307567600,9.082567626953125,-0.0036650835536420345,0.0012216945178806782,0.022601349279284477
1771681135317924900,9.0929248046875,-0.0024433890357613564,0.004275931045413017,0.016492875292897224
1771681135328282000,9.1032822265625,-0.0012216945178806782,-0.004275931045413017,0.012827792204916477
1771681135338639400,9.113639404296874,-0.0030542362947016954,0.012216945178806782,0.01588202826678753
1771681135348996600,9.12399658203125,-0.0006108472589403391,0.004886778071522713,0.009773556143045425
1771681135359353900,9.134353759765625,-0.0018325417768210173,-0.004275931045413017,0.008551862090826035
1771681135369711000,9.144711181640625,0.0006108472589403391,0.0024433890357613564,0.008551862090826035
1771681135380068400,9.155068359375,-0.0006108472589403391,-0.0012216945178806782,0.014049487188458443
1771681135390425600,9.165425537109375,0,0.00916270911693573,0.012827792204916477
1771681135400782800,9.175782958984374,0,0.008551862090826035,0.01710372418165207
1771681135411140000,9.18614013671875,-0.0006108472589403391,0.01710372418165207,0.01588202826678753
1771681135421497300,9.196497314453126,0,0.021990500390529633,0.015271181240677834
1771681135431854600,9.2068544921875,-0.0024433890357613564,0.007330167107284069,0.01710372418165207
1771681135442211800,9.2172119140625,-0.0036650835536420345,0.023212196305394173,0.008551862090826035
1771681135452569000,9.227569091796875,-0.0018325417768210173,0.007941014133393764,0.009773556143045425
1771681135462926000,9.237926025390625,-0.004275931045413017,0.02504473738372326,0.004886778071522713
1771681135473283300,9.248283447265624,-0.004275931045413017,0.007330167107284069,0.0036650835536420345
1771681135483640600,9.258640625,-0.004886778071522713,0.012827792204916477,0.0030542362947016954
1771681135493997800,9.268997802734376,-0.0018325417768210173,0.009773556143045425,0.005497625097632408
1771681135504355000,9.27935498046875,-0.0030542362947016954,0.007941014133393764,0.0030542362947016954
1771681135514712300,9.28971240234375,-0.004886778071522713,0.005497625097632408,-0.004275931045413017
1771681135525069600,9.300069580078125,-0.005497625097632408,-0.0024433890357613564,-0.0018325417768210173
1771681135535426800,9.3104267578125,-0.007330167107284069,-0.0030542362947016954,-0.00916270911693573
1771681135545784000,9.3207841796875,-0.007941014133393764,-0.017714571207761765,-0.014049487188458443
1771681135556141300,9.331141357421876,-0.01038440316915512,-0.014660334214568138,-0.010995250195264816
1771681135566498600,9.34149853515625,-0.01038440316915512,-0.0018325417768210173,-0.012827792204916477
1771681135576855800,9.351855712890625,-0.012216945178806782,-0.006719320081174374,-0.02076880633831024
1771681135587213000,9.362213134765625,-0.014660334214568138,-0.0006108472589403391,-0.01588202826678753
1771681135597570300,9.3725703125,-0.015271181240677834,-0.012216945178806782,-0.018936265259981155
1771681135607927600,9.382927490234374,-0.015271181240677834,-0.025655584409832954,-0.020157959312200546
1771681135618284800,9.393284912109374,-0.015271181240677834,-0.02076880633831024,-0.024433890357613564
1771681135628642000,9.40364208984375,-0.01832541823387146,-0.029320668429136276,-0.024433890357613564
1771681135638999300,9.413999267578125,-0.017714571207761765,-0.023212196305394173,-0.02993151545524597
1771681135649356500,9.4243564453125,-0.017714571207761765,-0.02504473738372326,-0.02504473738372326
1771681135659713800,9.4347138671875,-0.01710372418165207,-0.01832541823387146,-0.02748812735080719
1771681135670071000,9.445071044921875,-0.01832541823387146,-0.02748812735080719,-0.029320668429136276
1771681135680428300,9.45542822265625,-0.016492875292897224,-0.0018325417768210173,-0.026877280324697495
1771681135690785500,9.46578564453125,-0.02076880633831024,-0.007330167107284069,-0.03237490355968475
1771681135701142800,9.476142822265626,-0.022601349279284477,-0.0018325417768210173,-0.037261683493852615
1771681135711500000,9.4865,-0.023823043331503868,-0.007330167107284069,-0.04092676565051079
1771681135721857300,9.496857177734375,-0.020157959312200546,-0.004886778071522713,-0.04031591862440109
1771681135732214500,9.507214599609375,-0.01954711228609085,-0.005497625097632408,-0.04214845970273018
1771681135742571800,9.51757177734375,-0.01588202826678753,-0.005497625097632408,-0.04153761267662048
1771681135752929000,9.527928955078124,-0.02076880633831024,0.0036650835536420345,-0.036039989441633224
1771681135763286000,9.5382861328125,-0.017714571207761765,0.00916270911693573,-0.043981000781059265
1771681135773643300,9.548643310546876,-0.01710372418165207,-0.0024433890357613564,-0.037261683493852615
1771681135784000500,9.55900048828125,-0.01832541823387146,0.030542362481355667,-0.04153761267662048
1771681135794357800,9.569357666015625,-0.016492875292897224,0.0030542362947016954,-0.04092676565051079
1771681135804715000,9.579715087890625,-0.018936265259981155,0.03420744836330414,-0.04092676565051079
1771681135815072300,9.590072265625,-0.01954711228609085,0.023823043331503868,-0.03787253051996231
1771681135825429500,9.600429443359374,-0.020157959312200546,0.01954711228609085,-0.03787253051996231
1771681135835786800,9.610786865234376,-0.01954711228609085,0.018936265259981155,-0.034818295389413834
1771681135846144000,9.62114404296875,-0.01832541823387146,0.0036650835536420345,-0.028098974376916885
1771681135856501200,9.631501220703125,-0.020157959312200546,0.004886778071522713,-0.033596597611904144
1771681135866858500,9.6418583984375,-0.01832541823387146,-0.006719320081174374,-0.033596597611904144
1771681135877215700,9.6522158203125,-0.020157959312200546,0.007330167107284069,-0.029320668429136276
1771681135887573000,9.662572998046874,-0.01954711228609085,0.005497625097632408,-0.038483377546072006
1771681135897930200,9.67293017578125,-0.021990500390529633,0.0024433890357613564,-0.03298575058579445
1771681135908287500,9.68328759765625,-0.022601349279284477,0.012216945178806782,-0.026877280324697495
1771681135918644700,9.693644775390625,-0.023212196305394173,0.0012216945178806782,-0.03176405653357506
1771681135929002000,9.704001953125,-0.025655584409832954,0.007941014133393764,-0.02993151545524597
1771681135939359200,9.714359130859375,-0.028098974376916885,0.006108472589403391,-0.026877280324697495
1771681135949716500,9.724716552734375,-0.028098974376916885,0.0018325417768210173,-0.026877280324697495
1771681135960073700,9.73507373046875,-0.029320668429136276,0.007941014133393764,-0.025655584409832954
1771681135970431000,9.745430908203126,-0.02504473738372326,0.0012216945178806782,-0.01954711228609085
1771681135980788200,9.755788330078126,-0.024433890357613564,0.02076880633831024,-0.01710372418165207
1771681135991145500,9.7661455078125,-0.009773556143045425,0.06902574002742767,0.011606098152697086
1771681136001502700,9.776502685546875,0.01832541823387146,0.16676130890846252,0.06169557198882103
1771681136011860000,9.78685986328125,0.04153761267662048,0.26755109429359436,0.0922379344701767
1771681136022217200,9.79721728515625,0.04214845970273018,0.22662433981895447,0.08124268800020218
1771681136032574500,9.807574462890624,0.055587101727724075,0.20219044387340546,0.07391251623630524
1771681136042931700,9.817931640625,0.06658235192298889,0.12827792763710022,0.06352811306715012
1771681136053289000,9.8282890625,0.008551862090826035,0.10689827054738998,0.03787253051996231
1771681136063646200,9.838646240234375,0.0006108472589403391,0.08551861345767975,0.038483377546072006
1771681136074003200,9.849003173828125,-0.0030542362947016954,0.04337015375494957,0.023823043331503868
1771681136084360400,9.8593603515625,-0.012216945178806782,0.0018325417768210173,0.018936265259981155
1771681136094717700,9.8697177734375,-0.01588202826678753,0.02076880633831024,-0.0018325417768210173
1771681136105075000,9.880074951171874,-0.014660334214568138,0.021379653364419937,0.0030542362947016954
1771681136115432200,9.89043212890625,-0.017714571207761765,0.018936265259981155,-0.004886778071522713
1771681136125789400,9.90078955078125,-0.016492875292897224,0.023212196305394173,0
1771681136136146700,9.911146728515625,-0.014660334214568138,0.010995250195264816,0.004886778071522713
1771681136146504000,9.92150390625,-0.01588202826678753,0.01038440316915512,-0.0006108472589403391
1771681136156861200,9.931861083984375,-0.014049487188458443,0.016492875292897224,0.005497625097632408
1771681136167218400,9.942218505859374,-0.014660334214568138,0.009773556143045425,0.007941014133393764
1771681136177575700,9.95257568359375,-0.01588202826678753,0.006719320081174374,0
1771681136187933000,9.962932861328126,-0.01710372418165207,0.015271181240677834,-0.00916270911693573
1771681136198290200,9.973290283203125,-0.016492875292897224,0.01710372418165207,-0.0024433890357613564
1771681136208647400,9.9836474609375,-0.017714571207761765,0.01588202826678753,-0.009773556143045425
1771681136219004700,9.994004638671875,-0.01710372418165207,0.006719320081174374,-0.014049487188458443
1771681136229362000,10.00436181640625,-0.020157959312200546,0.013438640162348747,-0.01038440316915512
1771681136239719200,10.01471923828125,-0.01954711228609085,0.007330167107284069,-0.011606098152697086
1771681136250076400,10.025076416015626,-0.020157959312200546,0.004886778071522713,-0.01710372418165207
1771681136260433700,10.03543359375,-0.018936265259981155,0,-0.011606098152697086
1771681136270791000,10.045791015625,-0.01832541823387146,-0.0024433890357613564,-0.017714571207761765
1771681136281148200,10.056148193359375,-0.01832541823387146,0.0018325417768210173,-0.022601349279284477
1771681136291505400,10.06650537109375,-0.017714571207761765,-0.0018325417768210173,-0.018936265259981155
1771681136301862700,10.076862548828124,-0.018936265259981155,0.005497625097632408,-0.026877280324697495
1771681136312220000,10.087219970703124,-0.017714571207761765,0.011606098152697086,-0.029320668429136276
1771681136322577200,10.0975771484375,-0.015271181240677834,0.009773556143045425,-0.026877280324697495
1771681136332934400,10.107934326171875,-0.012216945178806782,0.012216945178806782,-0.02504473738372326
1771681136343291600,10.118291748046875,-0.012216945178806782,0.010995250195264816,-0.02626643143594265
1771681136353649000,10.12864892578125,-0.010995250195264816,0.00916270911693573,-0.021990500390529633
1771681136364006100,10.139006103515625,-0.008551862090826035,0.007941014133393764,-0.022601349279284477
1771681136374363400,10.14936328125,-0.007941014133393764,0.007330167107284069,-0.02504473738372326
1771681136384720600,10.159720703125,-0.007330167107284069,0.006719320081174374,-0.025655584409832954
1771681136395077600,10.17007763671875,-0.005497625097632408,0.01038440316915512,-0.030542362481355667
1771681136405435000,10.180434814453125,-0.004886778071522713,0.011606098152697086,-0.033596597611904144
1771681136415792000,10.190792236328125,-0.005497625097632408,0.014049487188458443,-0.03542914241552353
1771681136426149400,10.2011494140625,-0.006719320081174374,0.02076880633831024,-0.033596597611904144
1771681136436506600,10.211506591796875,-0.008551862090826035,0.02993151545524597,-0.03542914241552353
1771681136446864000,10.22186376953125,-0.005497625097632408,0.031153209507465363,-0.030542362481355667
1771681136457221000,10.23222119140625,-0.00916270911693573,0.0397050715982914,-0.030542362481355667
1771681136467578400,10.242578369140626,-0.006719320081174374,0.04031591862440109,-0.028098974376916885
1771681136477935600,10.252935546875,-0.004886778071522713,0.06780404597520828,-0.021379653364419937
1771681136488292900,10.26329296875,0.014049487188458443,0.11483928561210632,0.0030542362947016954
1771681136498650000,10.273650146484375,0.025655584409832954,0.11606097966432571,-0.0018325417768210173
1771681136509007400,10.28400732421875,0.020157959312200546,0.07330167293548584,-0.017714571207761765
1771681136519364600,10.294364501953124,-0.009773556143045425,0.0390942245721817,-0.038483377546072006
1771681136529721900,10.304721923828126,-0.010995250195264816,0.03176405653357506,-0.04153761267662048
1771681136540079000,10.3150791015625,-0.009773556143045425,0.029320668429136276,-0.0397050715982914
1771681136550436400,10.325436279296875,-0.01038440316915512,0.02748812735080719,-0.0397050715982914
1771681136560793600,10.335793701171875,-0.012216945178806782,0.02870982140302658,-0.0390942245721817
1771681136571150800,10.34615087890625,-0.014049487188458443,0.031153209507465363,-0.0390942245721817
1771681136581508000,10.356508056640624,-0.013438640162348747,0.02870982140302658,-0.03237490355968475
1771681136591865300,10.366865234375,-0.012216945178806782,0.024433890357613564,-0.02993151545524597
1771681136602222600,10.37722265625,-0.013438640162348747,0.023212196305394173,-0.026877280324697495
1771681136612579800,10.387579833984375,-0.012216945178806782,0.021379653364419937,-0.025655584409832954
1771681136622937000,10.39793701171875,-0.011606098152697086,0.02076880633831024,-0.02076880633831024
1771681136633294300,10.40829443359375,-0.012827792204916477,0.023823043331503868,-0.021990500390529633
1771681136643651600,10.418651611328125,-0.011606098152697086,0.025655584409832954,-0.020157959312200546
1771681136654008800,10.4290087890625,-0.010995250195264816,0.025655584409832954,-0.01710372418165207
1771681136664366000,10.439365966796874,-0.009773556143045425,0.023212196305394173,-0.01038440316915512
1771681136674723300,10.449723388671876,-0.006719320081174374,0.015271181240677834,-0.009773556143045425
1771681136685080600,10.46008056640625,-0.00916270911693573,0.01710372418165207,-0.0036650835536420345
1771681136695437800,10.470437744140625,-0.008551862090826035,0.01038440316915512,-0.0030542362947016954
1771681136705794800,10.480794921875,-0.009773556143045425,0.004886778071522713,-0.006108472589403391
1771681136716152000,10.491152099609375,-0.007941014133393764,0.0036650835536420345,-0.006719320081174374
1771681136726509300,10.50150927734375,-0.006719320081174374,-0.006719320081174374,-0.0006108472589403391
1771681136736866600,10.511866455078126,-0.008551862090826035,-0.004275931045413017,-0.0024433890357613564
1771681136747223800,10.522223876953126,-0.006108472589403391,-0.00916270911693573,-0.0024433890357613564
1771681136757581000,10.5325810546875,-0.007330167107284069,-0.004886778071522713,0.0006108472589403391
1771681136767938300,10.542938232421875,-0.005497625097632408,-0.0006108472589403391,0.005497625097632408
1771681136778295600,10.553295654296875,-0.006719320081174374,0.0006108472589403391,0.006108472589403391
1771681136788652800,10.56365283203125,-0.006108472589403391,0.007941014133393764,0.0018325417768210173
1771681136799010000,10.574010009765624,-0.0036650835536420345,0.0012216945178806782,0.007941014133393764
1771681136809367300,10.5843671875,-0.004275931045413017,0.007941014133393764,0.0012216945178806782
1771681136819724500,10.594724609375,-0.0030542362947016954,0.006108472589403391,0.0018325417768210173
1771681136830081800,10.605081787109375,-0.004886778071522713,0.01588202826678753,0.0006108472589403391
1771681136840439000,10.61543896484375,-0.004275931045413017,0.011606098152697086,-0.0030542362947016954
1771681136850796300,10.62579638671875,-0.004886778071522713,0.021990500390529633,-0.005497625097632408
1771681136861153500,10.636153564453124,-0.0018325417768210173,0.013438640162348747,-0.0024433890357613564
1771681136871510800,10.6465107421875,-0.0012216945178806782,0.016492875292897224,-0.007941014133393764
1771681136881868000,10.656867919921876,-0.0006108472589403391,0.012216945178806782,0
1771681136892225300,10.667225341796875,-0.0030542362947016954,0.022601349279284477,-0.007330167107284069
1771681136902582500,10.67758251953125,-0.0024433890357613564,0.01832541823387146,-0.005497625097632408
1771681136912939800,10.687939697265625,-0.004275931045413017,0.026877280324697495,-0.0024433890357613564
1771681136923297000,10.698297119140625,-0.004886778071522713,0.01954711228609085,-0.0012216945178806782
1771681136933654300,10.708654296875,-0.004886778071522713,0.025655584409832954,-0.004275931045413017
1771681136944011500,10.719011474609376,-0.006108472589403391,0.02076880633831024,0.0018325417768210173
1771681136954368800,10.72936865234375,-0.004886778071522713,0.022601349279284477,0.005497625097632408
1771681136964726000,10.73972607421875,-0.00916270911693573,0.021379653364419937,0.013438640162348747
1771681136975083300,10.750083251953125,-0.004886778071522713,0.024433890357613564,0.012216945178806782
1771681136985440500,10.7604404296875,-0.004886778071522713,0.021379653364419937,0.022601349279284477
1771681136995797800,10.7707978515625,-0.004275931045413017,0.023823043331503868,0.023212196305394173
1771681137006155000,10.781155029296874,-0.0012216945178806782,0.01588202826678753,0.026877280324697495
1771681137016512300,10.79151220703125,-0.0036650835536420345,0.018936265259981155,0.024433890357613564
1771681137026869200,10.801869140625,0,0.012216945178806782,0.02748812735080719
1771681137037226500,10.8122265625,-0.0024433890357613564,0.01832541823387146,0.024433890357613564
1771681137047583700,10.822583740234375,-0.0006108472589403391,0.016492875292897224,0.028098974376916885
1771681137057941000,10.83294091796875,0,0.014049487188458443,0.023212196305394173
1771681137068298200,10.84329833984375,0.0018325417768210173,0.010995250195264816,0.02748812735080719
1771681137078655500,10.853655517578124,0.0012216945178806782,0.013438640162348747,0.026877280324697495
1771681137089012700,10.8640126953125,0.0036650835536420345,0.01038440316915512,0.02870982140302658
1771681137099370000,10.874369873046875,-0.0006108472589403391,0.017714571207761765,0.029320668429136276
1771681137109727200,10.884727294921875,0.0006108472589403391,0.014049487188458443,0.028098974376916885
1771681137120084500,10.89508447265625,0,0.016492875292897224,0.023823043331503868
1771681137130441700,10.905441650390625,-0.0006108472589403391,0.010995250195264816,0.024433890357613564
1771681137140799000,10.915799072265624,-0.0006108472589403391,0.012827792204916477,0.02076880633831024
1771681137151156200,10.92615625,-0.0024433890357613564,0.006719320081174374,0.01710372418165207
1771681137161513500,10.936513427734376,-0.004275931045413017,0.007941014133393764,0.017714571207761765
1771681137171870700,10.94687060546875,-0.004886778071522713,0.007941014133393764,0.01588202826678753
1771681137182228000,10.95722802734375,-0.007330167107284069,0.01038440316915512,0.013438640162348747
1771681137192585200,10.967585205078125,-0.008551862090826035,0.007941014133393764,0.018936265259981155
1771681137202942500,10.9779423828125,-0.008551862090826035,0.009773556143045425,0.011606098152697086
1771681137213299700,10.9882998046875,-0.006719320081174374,0.004275931045413017,0.012827792204916477
1771681137223657000,10.998656982421876,-0.007941014133393764,0.004886778071522713,0.015271181240677834
1771681137234014200,11.00901416015625,-0.009773556143045425,0.00916270911693573,0.008551862090826035
1771681137244371500,11.019371337890625,-0.00916270911693573,0.007941014133393764,0.010995250195264816
1771681137254728700,11.029728759765625,-0.01038440316915512,0.012827792204916477,0.007330167107284069
1771681137265086000,11.0400859375,-0.007330167107284069,0.014049487188458443,0.00916270911693573
1771681137275443200,11.050443115234375,-0.006719320081174374,0.012216945178806782,0.01038440316915512
1771681137285800400,11.060800537109374,-0.0036650835536420345,0.015271181240677834,0.012827792204916477
1771681137296157700,11.07115771484375,-0.004275931045413017,0.01588202826678753,0.010995250195264816
1771681137306515000,11.081514892578125,-0.0030542362947016954,0.02076880633831024,0.012216945178806782
1771681137316872200,11.0918720703125,-0.0030542362947016954,0.02504473738372326,0.012216945178806782
1771681137327229400,11.1022294921875,-0.0012216945178806782,0.029320668429136276,0.011606098152697086
1771681137337586400,11.11258642578125,0,0.02870982140302658,0.012827792204916477
1771681137347943700,11.122943603515624,0.0006108472589403391,0.028098974376916885,0.007330167107284069
1771681137358301000,11.133301025390624,0.0012216945178806782,0.030542362481355667,0.007941014133393764
1771681137368658200,11.143658203125,-0.0012216945178806782,0.030542362481355667,0.006719320081174374
1771681137379015400,11.154015380859375,-0.0024433890357613564,0.02993151545524597,0.00916270911693573
1771681137389372700,11.16437255859375,-0.004886778071522713,0.030542362481355667,0.006719320081174374
1771681137399730000,11.17472998046875,-0.004275931045413017,0.02626643143594265,0.008551862090826035
1771681137410087200,11.185087158203125,-0.004886778071522713,0.021990500390529633,0.011606098152697086
1771681137420444400,11.1954443359375,-0.005497625097632408,0.013438640162348747,0.007330167107284069
1771681137430801700,11.2058017578125,-0.007330167107284069,0.008551862090826035,0.006719320081174374
1771681137441159000,11.216158935546876,-0.01038440316915512,0.008551862090826035,0.0030542362947016954
1771681137451516200,11.22651611328125,-0.00916270911693573,0.007330167107284069,0
1771681137461873400,11.236873291015625,-0.012216945178806782,0.008551862090826035,0.0012216945178806782
1771681137472230700,11.247230712890625,-0.012216945178806782,0.011606098152697086,-0.0012216945178806782
1771681137482588000,11.257587890625,-0.012827792204916477,0.006719320081174374,-0.004886778071522713
1771681137492945200,11.267945068359374,-0.014049487188458443,0.012216945178806782,-0.0030542362947016954
1771681137503302400,11.278302490234376,-0.012827792204916477,0.00916270911693573,-0.0012216945178806782
1771681137513659600,11.28865966796875,-0.014660334214568138,0.01710372418165207,-0.0036650835536420345
1771681137524017000,11.299016845703125,-0.014049487188458443,0.020157959312200546,-0.0036650835536420345
1771681137534374100,11.3093740234375,-0.013438640162348747,0.020157959312200546,-0.0030542362947016954
1771681137544731400,11.3197314453125,-0.012216945178806782,0.01954711228609085,-0.009773556143045425
1771681137555088600,11.330088623046874,-0.008551862090826035,0.014660334214568138,-0.005497625097632408
1771681137565446000,11.34044580078125,-0.007941014133393764,0.013438640162348747,-0.007330167107284069
1771681137575803100,11.35080322265625,-0.004886778071522713,0.006719320081174374,-0.006108472589403391
1771681137586160400,11.361160400390625,-0.004886778071522713,0.005497625097632408,-0.011606098152697086
1771681137596517600,11.371517578125,-0.0018325417768210173,-0.005497625097632408,-0.004275931045413017
1771681137606875000,11.381875,-0.0030542362947016954,-0.004275931045413017,-0.007330167107284069
1771681137617232100,11.392232177734375,-0.0006108472589403391,-0.012827792204916477,-0.006719320081174374
1771681137627589400,11.40258935546875,0.0030542362947016954,-0.014660334214568138,-0.005497625097632408
1771681137637946600,11.412946533203124,0.0036650835536420345,-0.01954711228609085,-0.004275931045413017
1771681137648303600,11.4233037109375,0.0030542362947016954,-0.010995250195264816,-0.004275931045413017
1771681137658661000,11.4336611328125,0.0024433890357613564,-0.014660334214568138,-0.004275931045413017
1771681137669018000,11.44401806640625,0.0024433890357613564,-0.004275931045413017,-0.007330167107284069
1771681137679375400,11.454375244140625,0.0024433890357613564,-0.007941014133393764,-0.0036650835536420345
1771681137689732900,11.46473291015625,0.0036650835536420345,-0.004886778071522713,0
1771681137700090000,11.475090087890624,0.0024433890357613564,0.0006108472589403391,-0.0006108472589403391
1771681137710447400,11.485447265625,0.0018325417768210173,0.0006108472589403391,0.0036650835536420345
1771681137720804400,11.495804443359376,0,0.009773556143045425,0.0024433890357613564
1771681137731161600,11.50616162109375,-0.0012216945178806782,0.01038440316915512,0.005497625097632408
1771681137762233300,11.5372333984375,-0.0030542362947016954,0.01832541823387146,0.0018325417768210173
1771681137772590600,11.547590576171874,-0.0030542362947016954,0.010995250195264816,0.006108472589403391
1771681137782947800,11.55794775390625,-0.004886778071522713,0.014660334214568138,0.0036650835536420345
1771681137793305000,11.56830517578125,-0.004886778071522713,0.010995250195264816,0.007941014133393764
1771681137803662300,11.578662353515625,-0.006719320081174374,0.015271181240677834,0.004275931045413017
1771681137814019600,11.58901953125,-0.005497625097632408,0.009773556143045425,0.006719320081174374
1771681137824376800,11.599376953125,-0.007330167107284069,0.004275931045413017,0.008551862090826035
1771681137834734000,11.609734130859374,-0.006108472589403391,0.0006108472589403391,0.007330167107284069
1771681137845091300,11.62009130859375,-0.004275931045413017,-0.0006108472589403391,0.007330167107284069
1771681137855448600,11.630448486328126,-0.006108472589403391,-0.0018325417768210173,0.006719320081174374
1771681137865805800,11.640805908203125,-0.007941014133393764,-0.0012216945178806782,0.004275931045413017
1771681137876163000,11.6511630859375,-0.00916270911693573,0.0012216945178806782,0.0030542362947016954
1771681137886520300,11.661520263671875,-0.008551862090826035,0.0006108472589403391,0.006108472589403391
1771681137896877600,11.671877685546875,-0.009773556143045425,0.004275931045413017,0.004275931045413017
1771681137907234800,11.68223486328125,-0.008551862090826035,0,0.0036650835536420345
1771681137917592000,11.692592041015626,-0.007941014133393764,0.0018325417768210173,0.0030542362947016954
1771681137927949300,11.70294921875,-0.007330167107284069,0,0.007330167107284069
1771681137938306600,11.713306640625,-0.008551862090826035,0.006719320081174374,0.0030542362947016954
1771681137948663800,11.723663818359375,-0.007941014133393764,0.004275931045413017,0.004275931045413017
1771681137959021000,11.73402099609375,-0.007330167107284069,0.005497625097632408,0.004886778071522713
1771681137969378300,11.74437841796875,-0.006719320081174374,0.0012216945178806782,0.0030542362947016954
1771681137979735600,11.754735595703124,-0.005497625097632408,0.004275931045413017,0.0036650835536420345
1771681137990092800,11.7650927734375,-0.0030542362947016954,-0.004886778071522713,0.004886778071522713
1771681138000450000,11.775449951171876,-0.0036650835536420345,0.0018325417768210173,0.0024433890357613564
1771681138010807300,11.785807373046875,-0.005497625097632408,0.0018325417768210173,0.004275931045413017
1771681138021164500,11.79616455078125,-0.006108472589403391,0.006719320081174374,0.009773556143045425
1771681138031521500,11.806521484375,-0.004886778071522713,0.0012216945178806782,0.008551862090826035
1771681138041878800,11.816878662109374,-0.0036650835536420345,0.0024433890357613564,0.005497625097632408
1771681138052236000,11.827236083984374,-0.0024433890357613564,0.0006108472589403391,0.00916270911693573
1771681138062593300,11.83759326171875,-0.0012216945178806782,0.0024433890357613564,0.007330167107284069
1771681138072950500,11.847950439453125,-0.0024433890357613564,0.004886778071522713,0.00916270911693573
1771681138083307800,11.858307861328125,-0.0018325417768210173,0.01038440316915512,0.008551862090826035
1771681138093665000,11.8686650390625,-0.0018325417768210173,0.009773556143045425,0.01038440316915512
1771681138104022300,11.879022216796875,0,0.012216945178806782,0.009773556143045425
1771681138114379500,11.889379638671874,-0.0006108472589403391,0.01038440316915512,0.013438640162348747
1771681138124736800,11.89973681640625,-0.0006108472589403391,0.012216945178806782,0.014049487188458443
1771681138135094000,11.910093994140626,-0.0012216945178806782,0.014049487188458443,0.009773556143045425
1771681138145451300,11.920451171875,-0.0012216945178806782,0.01588202826678753,0.012216945178806782
1771681138155808500,11.93080859375,-0.0036650835536420345,0.01588202826678753,0.012216945178806782
1771681138166165800,11.941165771484375,-0.0030542362947016954,0.014049487188458443,0.010995250195264816
1771681138176523000,11.95152294921875,-0.0036650835536420345,0.01038440316915512,0.01038440316915512
1771681138186880300,11.96188037109375,-0.0024433890357613564,0.006108472589403391,0.00916270911693573
1771681138197237500,11.972237548828126,-0.004886778071522713,0.005497625097632408,0.006108472589403391
1771681138207594800,11.9825947265625,-0.006108472589403391,0.007330167107284069,0.00916270911693573
1771681138217952000,11.992951904296875,-0.007330167107284069,0.006108472589403391,0.006719320081174374
1771681138228309200,12.003309326171875,-0.00916270911693573,0.006719320081174374,0.0024433890357613564
1771681138238666500,12.01366650390625,-0.00916270911693573,0.005497625097632408,0.0030542362947016954
1771681138249023700,12.024023681640625,-0.007941014133393764,0.0030542362947016954,0.0030542362947016954
1771681138259381000,12.034381103515624,-0.007330167107284069,0.0024433890357613564,-0.0006108472589403391
1771681138269738200,12.04473828125,-0.007941014133393764,0.004886778071522713,-0.0036650835536420345
1771681138280095500,12.055095458984376,-0.008551862090826035,0.005497625097632408,-0.004886778071522713
1771681138290452700,12.06545263671875,-0.010995250195264816,0.01038440316915512,-0.008551862090826035
1771681138300810000,12.07581005859375,-0.01038440316915512,0.012216945178806782,-0.00916270911693573
1771681138311167200,12.086167236328125,-0.007941014133393764,0.009773556143045425,-0.011606098152697086
1771681138321524500,12.0965244140625,-0.006719320081174374,0.007330167107284069,-0.014660334214568138
1771681138331881700,12.1068818359375,-0.006719320081174374,0.007330167107284069,-0.016492875292897224
1771681138342239000,12.117239013671876,-0.006719320081174374,0.007330167107284069,-0.014660334214568138
1771681138352596200,12.12759619140625,-0.006719320081174374,0.007330167107284069,-0.01710372418165207
1771681138362953500,12.137953369140625,-0.006108472589403391,0.011606098152697086,-0.021990500390529633
1771681138373310700,12.148310791015625,-0.006108472589403391,0.012827792204916477,-0.017714571207761765
1771681138383668000,12.15866796875,-0.0036650835536420345,0.014049487188458443,-0.01832541823387146
1771681138394025200,12.169025146484374,-0.0024433890357613564,0.010995250195264816,-0.020157959312200546
1771681138404382500,12.179382568359374,-0.0012216945178806782,0.014049487188458443,-0.016492875292897224
1771681138414739500,12.189739501953126,-0.0018325417768210173,0.010995250195264816,-0.01954711228609085
1771681138425096700,12.2000966796875,-0.0024433890357613564,0.014049487188458443,-0.01954711228609085
1771681138435454000,12.210453857421875,-0.0024433890357613564,0.017714571207761765,-0.014049487188458443
1771681138445811200,12.220811279296875,-0.0012216945178806782,0.01954711228609085,-0.013438640162348747
1771681138456168400,12.23116845703125,0,0.016492875292897224,-0.012827792204916477
1771681138466526000,12.24152587890625,0.0018325417768210173,0.01588202826678753,-0.011606098152697086
1771681138476883000,12.251883056640626,0.0018325417768210173,0.012827792204916477,-0.007330167107284069
1771681138487240200,12.262240234375,0.0006108472589403391,0.014660334214568138,-0.01038440316915512
1771681138497597400,12.272597412109375,0.0006108472589403391,0.014049487188458443,-0.006108472589403391
1771681138507954700,12.28295458984375,0,0.01588202826678753,-0.006719320081174374
1771681138518312000,12.29331201171875,0.0006108472589403391,0.01038440316915512,-0.004275931045413017
1771681138528669200,12.303669189453124,-0.0018325417768210173,0.012216945178806782,-0.0024433890357613564
1771681138539026400,12.3140263671875,-0.0012216945178806782,0.006719320081174374,0.0006108472589403391
1771681138549383700,12.3243837890625,-0.004275931045413017,0.008551862090826035,-0.0018325417768210173
1771681138559741000,12.334740966796875,-0.005497625097632408,0.010995250195264816,0.0006108472589403391
1771681138570098200,12.34509814453125,-0.007330167107284069,0.010995250195264816,0.0006108472589403391
1771681138580455400,12.355455322265625,-0.008551862090826035,0.01588202826678753,0.0012216945178806782
1771681138590812700,12.365812744140625,-0.007941014133393764,0.013438640162348747,0.0018325417768210173
1771681138601170000,12.376169921875,-0.008551862090826035,0.010995250195264816,-0.0012216945178806782
1771681138611527200,12.386527099609374,-0.007330167107284069,0.010995250195264816,-0.0012216945178806782
1771681138621884400,12.396884521484376,-0.008551862090826035,0.009773556143045425,0
1771681138632241700,12.40724169921875,-0.007941014133393764,0.012827792204916477,-0.0030542362947016954
1771681138642599000,12.417598876953125,-0.008551862090826035,0.013438640162348747,-0.0030542362947016954
1771681138652956200,12.4279560546875,-0.007330167107284069,0.014660334214568138,-0.0030542362947016954
1771681138663313400,12.4383134765625,-0.006108472589403391,0.012216945178806782,-0.0030542362947016954
1771681138673670700,12.448670654296874,-0.005497625097632408,0.014049487188458443,-0.0030542362947016954
1771681138684028000,12.45902783203125,-0.004275931045413017,0.012827792204916477,-0.004886778071522713
1771681138694385200,12.46938525390625,-0.0024433890357613564,0.017714571207761765,-0.006108472589403391
1771681138704742400,12.479742431640625,-0.0018325417768210173,0.020157959312200546,-0.006108472589403391
1771681138715099600,12.490099609375,-0.0018325417768210173,0.021379653364419937,-0.006719320081174374
1771681138725457000,12.500456787109375,0.0006108472589403391,0.022601349279284477,-0.004275931045413017
1771681138735814100,12.510814208984375,0.0012216945178806782,0.02076880633831024,-0.0036650835536420345
1771681138746171400,12.52117138671875,0.0030542362947016954,0.01954711228609085,-0.008551862090826035
