time,seconds_elapsed,z,y,x
1771680910354205700,0.192205810546875,0,0,0
1771680910364562400,0.2025625,-0.17108631134033203,-0.05621802806854248,-0.04920303449034691
1771680910374919400,0.21291943359375,0.06939220428466797,-0.04375946521759033,0.18513081967830658
1771680910395633200,0.233633056640625,0.08471107482910156,-0.011911660432815552,0.43238455057144165
1771680910416346600,0.2543466796875,-0.14531707763671875,-0.003181934356689453,0.02419939637184143
1771680910426703600,0.26470361328125,-0.047636985778808594,-0.036157310009002686,-0.1664198935031891
1771680910437060400,0.275060302734375,-0.016831398010253906,0.08296239376068115,-0.2649533748626709
1771680910447417300,0.285417236328125,-0.006510734558105469,-0.017906248569488525,-0.1529260277748108
1771680910457774000,0.295774169921875,0.041973114013671875,-0.0033122897148132324,0.17126062512397766
1771680910468130800,0.306130859375,0.13062095642089844,0.020886123180389404,0.40676984190940857
1771680910478487800,0.31648779296875,0.14265823364257812,0.03214704990386963,0.33620601892471313
1771680910488844500,0.326844482421875,0.03691291809082031,0.12511807680130005,-0.056038737297058105
1771680910499201300,0.337201171875,-0.14645099639892578,0.09640371799468994,-0.3555999994277954
1771680910509558300,0.347558349609375,-0.28533267974853516,0.018676280975341797,-0.35188955068588257
1771680910519915000,0.3579150390625,0.07831573486328125,-0.002835512161254883,0.023764103651046753
1771680910530271700,0.368271728515625,-0.0841989517211914,-0.038927435874938965,0.2840158939361572
1771680910540628700,0.378628662109375,0.1832141876220703,0.053643763065338135,0.38887548446655273
1771680910550985500,0.3889853515625,0.026305198669433594,0.027658522129058838,0.1789792776107788
1771680910561342200,0.39934228515625,-0.16637134552001953,-0.005663037300109863,-0.02544379234313965
1771680910571699200,0.40969921875,0.09014701843261719,-0.012590587139129639,-0.2338675856590271
1771680910582056000,0.420055908203125,-0.1357574462890625,0.024729430675506592,-0.3183078169822693
1771680910592413000,0.430412841796875,0.11988353729248047,-0.042945683002471924,-0.1221885085105896
1771680910602769700,0.440769775390625,-0.09390735626220703,-0.09179434180259705,0.274617463350296
1771680910613126400,0.45112646484375,0.19961833953857422,-0.04948556423187256,0.42288729548454285
1771680910623483400,0.4614833984375,0.11158180236816406,-0.0364762544631958,0.2462586760520935
1771680910633840000,0.471840087890625,0.09372901916503906,0.049793541431427,-0.14001381397247314
1771680910644196900,0.48219677734375,-0.19136524200439453,0.07570147514343262,-0.40991103649139404
1771680910654553900,0.492553955078125,-0.004534721374511719,-0.1629050076007843,-0.27881312370300293
1771680910664910600,0.50291064453125,-0.020578384399414062,0.032322585582733154,0.039943426847457886
1771680910675267600,0.513267578125,0.1979808807373047,-0.11244216561317444,0.33036357164382935
1771680910685624300,0.523624267578125,0.11771774291992188,0.09034961462020874,0.2814159095287323
1771680910695981000,0.53398095703125,0.0747671127319336,-0.04491627216339111,0.06451350450515747
1771680910706338000,0.544338134765625,-0.1993541717529297,-0.05083572864532471,-0.13879823684692383
1771680910716694800,0.55469482421875,0.1458301544189453,0.00630950927734375,-0.33021417260169983
1771680910727051500,0.565051513671875,-0.2189655303955078,-0.01245582103729248,-0.29358363151550293
1771680910737408500,0.575408447265625,0.07805347442626953,-0.02828514575958252,-0.05592045187950134
1771680910747765200,0.58576513671875,-0.05683612823486328,-0.07888814806938171,0.25782620906829834
1771680910758122200,0.596122314453125,0.19653987884521484,0.03036332130432129,0.4009571373462677
1771680910768479000,0.60647900390625,0.039977073669433594,0.02466559410095215,0.13299420475959778
1771680910778835700,0.616835693359375,-0.012384414672851562,0.05668318271636963,-0.27370786666870117
1771680910789192700,0.627192626953125,-0.1266155242919922,0.020152032375335693,-0.4495057761669159
1771680910799549400,0.637549560546875,-0.2827291488647461,-0.162424236536026,-0.21097242832183838
1771680910809906200,0.64790625,0.1119537353515625,0.06121176481246948,0.14645496010780334
1771680910820263200,0.65826318359375,-0.023900985717773438,-0.026573359966278076,0.3208748400211334
1771680910830620000,0.668619873046875,0.3067951202392578,0.14005112648010254,0.2585894465446472
1771680910840976600,0.6789765625,-0.18227291107177734,-0.02691364288330078,0.06399300694465637
1771680910851333600,0.689333740234375,0.032375335693359375,0.010858595371246338,-0.08398795127868652
1771680910861690400,0.6996904296875,-0.11133384704589844,0.07639235258102417,-0.28600311279296875
1771680910872047400,0.71004736328125,-0.10446357727050781,-0.011625826358795166,-0.2360600233078003
1771680910882404000,0.720404052734375,0.10642433166503906,-0.034717440605163574,0.07073917984962463
1771680910892760800,0.7307607421875,0.003467559814453125,-0.04800093173980713,0.3814181089401245
1771680910903117800,0.741117919921875,0.21710872650146484,-0.009636163711547852,0.4099099934101105
1771680910913474600,0.751474609375,-0.04528045654296875,0.039710044860839844,0.09292370080947876
1771680910923831600,0.76183154296875,0.07538604736328125,0.06462883949279785,-0.2704448997974396
1771680910934188300,0.772188232421875,-0.21271324157714844,-0.0353352427482605,-0.388420432806015
1771680910944545000,0.782544921875,0.023790359497070312,-0.05109494924545288,-0.07680615782737732
1771680910954902000,0.792902099609375,0.11749458312988281,0.01813751459121704,0.2579796314239502
1771680910965258800,0.8032587890625,-0.009172439575195312,-0.033907294273376465,0.3689953684806824
1771680910975615500,0.813615478515625,0.16508769989013672,0.1004936695098877,0.23635712265968323
1771680910985972500,0.823972412109375,-0.15062904357910156,-0.03076094388961792,-0.006878703832626343
1771680910996329200,0.8343291015625,0.03776264190673828,-0.07269889116287231,-0.19485872983932495
1771680911006686000,0.84468603515625,-0.2758159637451172,0.10259699821472168,-0.2384711503982544
1771680911017043000,0.85504296875,-0.07824897766113281,-0.03982618451118469,-0.20271381735801697
1771680911027399700,0.865399658203125,0.06425285339355469,-0.05813649296760559,0.1768365502357483
1771680911037756400,0.87575634765625,-0.08739471435546875,0.030290305614471436,0.35904642939567566
1771680911048113400,0.886113525390625,0.3022756576538086,0.0011428594589233398,0.3398863971233368
1771680911058470100,0.89647021484375,-0.19220352172851562,0.12361884117126465,-0.09355947375297546
1771680911068827100,0.9068271484375,0.06275558471679688,0.08839690685272217,-0.3739056885242462
1771680911079184000,0.917183837890625,-0.3735618591308594,-0.028214097023010254,-0.3330472707748413
1771680911089540600,0.92754052734375,0.06326484680175781,0.017302334308624268,0.00830724835395813
1771680911099897600,0.937897705078125,0.041047096252441406,-0.034477412700653076,0.2710992991924286
1771680911110254300,0.94825439453125,-0.006714820861816406,0.025127053260803223,0.2784896194934845
1771680911120611300,0.958611328125,0.22867584228515625,0.04348397254943848,0.09542402625083923
1771680911130968000,0.968968017578125,-0.1610393524169922,-0.030285537242889404,-0.11029529571533203
1771680911141324800,0.97932470703125,0.14280986785888672,-0.03210866451263428,-0.27531397342681885
1771680911151681800,0.989681884765625,-0.1442699432373047,0.029756546020507812,-0.3110211491584778
1771680911162038500,1.00003857421875,0.044036865234375,-0.09510493278503418,-0.10198274254798889
1771680911172395500,1.0103955078125,-0.006093025207519531,-0.1286633312702179,0.2544734477996826
1771680911182752300,1.020752197265625,0.14929866790771484,-0.07702359557151794,0.36554762721061707
1771680911193109000,1.03110888671875,0.13737869262695312,0.03003901243209839,0.12702953815460205
1771680911203466000,1.041466064453125,-0.031998634338378906,0.020268678665161133,-0.19933930039405823
1771680911213822700,1.05182275390625,0.008548736572265625,0.04089254140853882,-0.4690084457397461
1771680911224179500,1.062179443359375,-0.14449787139892578,-0.17393174767494202,-0.29257339239120483
1771680911234536400,1.072536376953125,0.28852272033691406,0.04305976629257202,0.11181658506393433
1771680911244893200,1.08289306640625,-0.12333488464355469,-0.044440388679504395,0.3423527777194977
1771680911255250000,1.09325,0.1822347640991211,0.04078859090805054,0.31839054822921753
1771680911265607000,1.10360693359375,-0.03022480010986328,0.07530224323272705,0.03811809420585632
1771680911275963600,1.113963623046875,-0.029738426208496094,-0.05323511362075806,-0.11482304334640503
1771680911286320600,1.124320556640625,-0.11159420013427734,0.08873379230499268,-0.23753926157951355
1771680911296677400,1.134677490234375,-0.1003122329711914,0.021587491035461426,-0.21288375556468964
1771680911307034000,1.1450341796875,0.023738861083984375,-0.02580326795578003,0.051241546869277954
1771680911317391000,1.15539111328125,-0.0731210708618164,-0.03469562530517578,0.38192135095596313
1771680911327747800,1.165747802734375,0.22690200805664062,0.03872328996658325,0.39724481105804443
1771680911338104600,1.1761044921875,-0.05456352233886719,0.07327139377593994,0.07385781407356262
1771680911348461600,1.186461669921875,-0.030145645141601562,0.10489368438720703,-0.2891557812690735
1771680911358818300,1.196818359375,-0.20847034454345703,0.05617880821228027,-0.38321027159690857
1771680911369175300,1.20717529296875,-0.06384849548339844,-0.057112693786621094,-0.12981808185577393
1771680911379532000,1.217531982421875,-0.036963462829589844,-0.010378003120422363,0.19476786255836487
1771680911389888800,1.227888671875,0.12359237670898438,-0.05680927634239197,0.3334525525569916
1771680911400245800,1.238245849609375,0.20386695861816406,0.054873645305633545,0.1445675790309906
1771680911410602500,1.2486025390625,-0.060721397399902344,-0.04521071910858154,0.025207698345184326
1771680911420959200,1.258959228515625,-0.012642860412597656,0.025971949100494385,-0.2528417110443115
1771680911431316200,1.269316162109375,-0.06890106201171875,0.07027578353881836,-0.3004426062107086
1771680911441673000,1.2796728515625,0.005230903625488281,-0.07197415828704834,-0.216474249958992
1771680911452030000,1.290030029296875,0.07343769073486328,-0.12293544411659241,0.16281428933143616
1771680911462386700,1.30038671875,0.11695003509521484,-0.08116558194160461,0.3339259922504425
1771680911472743400,1.310743408203125,-0.019153594970703125,-0.03756335377693176,0.23748010396957397
1771680911483100400,1.321100341796875,0.1999807357788086,0.05918717384338379,-0.12119835615158081
1771680911493457200,1.33145703125,-0.1468791961669922,0.04615682363510132,-0.41068294644355774
1771680911503814000,1.34181396484375,-0.03378009796142578,-0.10782715678215027,-0.28722715377807617
1771680911514171000,1.3521708984375,0.013890266418457031,-0.061659038066864014,0.048657238483428955
1771680911524527600,1.362527587890625,0.10782623291015625,-0.08196422457695007,0.28458690643310547
1771680911534884600,1.372884521484375,0.047219276428222656,0.05299186706542969,0.242521733045578
1771680911545241300,1.383241455078125,0.01114654541015625,0.06364703178405762,0.057389140129089355
1771680911555598300,1.393598388671875,-0.09963417053222656,0.04564356803894043,-0.08404365181922913
1771680911565955000,1.403955078125,-0.1332683563232422,0.018964171409606934,-0.24497802555561066
1771680911576311800,1.414311767578125,-0.051032066345214844,0.09861743450164795,-0.2411908358335495
1771680911586668800,1.424668701171875,-0.1160421371459961,0.06895625591278076,-0.0990762710571289
1771680911597025500,1.435025634765625,-0.022325515747070312,0.004305481910705566,0.2527482807636261
1771680911607382300,1.44538232421875,-0.0054874420166015625,-0.052270352840423584,0.4086731970310211
1771680911617739300,1.4557392578125,0.23928260803222656,0.1367940902709961,0.16014736890792847
1771680911628096000,1.466095947265625,-0.19061660766601562,0.0497661828994751,-0.1854126751422882
1771680911638452700,1.47645263671875,-0.029788970947265625,0.09360343217849731,-0.3800097405910492
1771680911648809700,1.486809814453125,-0.22222518920898438,-0.06545305252075195,-0.2140299528837204
1771680911659166500,1.49716650390625,0.22149944305419922,0.07467055320739746,0.1652895212173462
1771680911669523500,1.5075234375,-0.12808704376220703,-0.10525256395339966,0.3249703347682953
1771680911679880200,1.517880126953125,0.2269725799560547,0.075406014919281,0.2492360770702362
1771680911690237000,1.52823681640625,-0.10155296325683594,-0.05759623646736145,0.027019858360290527
1771680911700594000,1.538593994140625,0.03187751770019531,-0.002376556396484375,-0.10244938731193542
1771680911710950700,1.54895068359375,-0.15693092346191406,-0.07067000865936279,-0.33268308639526367
1771680911721307600,1.5593076171875,0.13511943817138672,-0.019427359104156494,-0.21542342007160187
1771680911731664400,1.569664306640625,-0.04833221435546875,-0.24990668892860413,0.11832669377326965
1771680911742021000,1.580021240234375,0.21131324768066406,-0.08516114950180054,0.3317963778972626
1771680911752378000,1.590378173828125,0.19832897186279297,-0.07486328482627869,0.415007621049881
1771680911762734800,1.60073486328125,0.060898780822753906,0.013585448265075684,-0.036590754985809326
1771680911773091600,1.611091552734375,0.10220909118652344,0.10212308168411255,-0.3334999680519104
1771680911783448600,1.621448486328125,-0.2782917022705078,-0.0712486207485199,-0.4580213129520416
1771680911793805300,1.631805419921875,0.3051729202270508,0.12496238946914673,-0.005431234836578369
1771680911804162300,1.642162353515625,-0.11638736724853516,-0.02984374761581421,0.21095353364944458
1771680911814519000,1.65251904296875,0.20318889617919922,-0.046096086502075195,0.280946284532547
1771680911824875800,1.662875732421875,-0.1484537124633789,0.06497550010681152,0.12643420696258545
1771680911835232800,1.673232666015625,0.12931442260742188,-0.0020905137062072754,-0.02376428246498108
1771680911845589500,1.683589599609375,-0.22815704345703125,0.0069539546966552734,-0.27419671416282654
1771680911855946500,1.693946533203125,0.022722244262695312,0.07541406154632568,-0.2774762511253357
1771680911866303200,1.70430322265625,-0.13058948516845703,0.06223893165588379,-0.08695796132087708
1771680911876660000,1.714659912109375,-0.10956001281738281,-0.060693562030792236,0.18151304125785828
1771680911887017000,1.725016845703125,0.186370849609375,0.09762173891067505,0.38624006509780884
1771680911897373700,1.735373779296875,-0.1344003677368164,0.08678370714187622,0.15877693891525269
1771680911907730400,1.74573046875,0.17134666442871094,0.10152304172515869,-0.13952046632766724
1771680911918087400,1.75608740234375,-0.34679508209228516,0.050570011138916016,-0.43166691064834595
1771680911928444200,1.766444091796875,-0.013936042785644531,-0.1524081528186798,-0.29808109998703003
1771680911938801200,1.77680126953125,0.04512977600097656,0.09963864088058472,0.07123246788978577
1771680911949158000,1.787157958984375,-0.02620983123779297,-0.17221683263778687,0.29310157895088196
1771680911959515000,1.797514892578125,0.1106882095336914,0.04696226119995117,0.2862531840801239
1771680911969871600,1.80787158203125,-0.046466827392578125,0.008616030216217041,0.06057256460189819
1771680911980228400,1.818228271484375,0.053114891052246094,-0.017571866512298584,-0.0975717306137085
1771680911990585300,1.82858544921875,-0.13129711151123047,0.020454585552215576,-0.27728837728500366
1771680912000942000,1.838942138671875,-0.004382133483886719,-0.012735366821289062,-0.20732584595680237
1771680912011298800,1.849298828125,-0.04192543029785156,-0.06184279918670654,0.021225184202194214
1771680912021655800,1.85965576171875,0.09525775909423828,-0.14319860935211182,0.33352044224739075
1771680912032012500,1.870012451171875,0.1571941375732422,0.0026170015335083008,0.38705211877822876
1771680912042369500,1.88036962890625,0.10514450073242188,-0.030717074871063232,0.13195088505744934
1771680912052726300,1.890726318359375,0.025742530822753906,0.09421592950820923,-0.24868227541446686
1771680912063083300,1.901083251953125,-0.11114025115966797,-0.027569234371185303,-0.37170806527137756
1771680912073440000,1.91143994140625,-0.10220050811767578,-0.10948768258094788,-0.14024004340171814
1771680912083796700,1.921796630859375,0.1254129409790039,0.0875391960144043,0.2216174602508545
1771680912094153700,1.93215380859375,-0.0013818740844726562,-0.09519690275192261,0.3168300986289978
1771680912104510500,1.942510498046875,0.1774587631225586,0.1414547562599182,0.2131223976612091
1771680912114867200,1.9528671875,-0.1949329376220703,-0.0704796314239502,0.019620954990386963
1771680912125224200,1.96322412109375,0.0836038589477539,0.06694221496582031,-0.21090465784072876
1771680912135581000,1.973580810546875,-0.14838027954101562,0.08467799425125122,-0.3344338834285736
1771680912145938000,1.98393798828125,-0.014120101928710938,0.07159423828125,-0.2400510460138321
1771680912156294700,1.994294677734375,-0.12210369110107422,-0.11056342720985413,0.1092328131198883
1771680912166651600,2.004651611328125,0.06110858917236328,0.048892974853515625,0.3944857716560364
1771680912177008400,2.01500830078125,0.053009986877441406,0.0035143494606018066,0.3199458420276642
1771680912187365000,2.025365234375,0.042682647705078125,0.14663612842559814,-0.013729959726333618
1771680912197722000,2.03572216796875,-0.17921733856201172,0.10439860820770264,-0.40171533823013306
1771680912208078800,2.046078857421875,-0.13622665405273438,-0.06442806124687195,-0.3009560704231262
1771680912218435600,2.056435546875,-0.15512466430664062,-0.02524399757385254,-0.08960995078086853
1771680912228792600,2.06679248046875,0.16982269287109375,0.031797945499420166,0.3844712972640991
1771680912239149300,2.0771494140625,-0.016562461853027344,-0.09099569916725159,0.2749781906604767
1771680912249506300,2.08750634765625,0.32252025604248047,0.08230787515640259,0.01660555601119995
1771680912259863000,2.097863037109375,-0.2334737777709961,-0.06981420516967773,0.007736653089523315
1771680912270220000,2.108219970703125,-0.04135608673095703,-0.09673231840133667,-0.27708715200424194
1771680912280576800,2.11857666015625,-0.17243099212646484,0.08614867925643921,-0.19493350386619568
1771680912290933500,2.12893359375,-0.1318817138671875,-0.1784791648387909,-0.05389299988746643
1771680912301290500,2.13929052734375,0.009153366088867188,-0.11454549431800842,0.2763703167438507
1771680912311647200,2.149647216796875,0.05842113494873047,-0.06537127494812012,0.3631206750869751
1771680912322004000,2.16000390625,0.32329654693603516,-0.062403321266174316,0.19597062468528748
1771680912332361000,2.17036083984375,-0.2091512680053711,0.0374181866645813,-0.13668292760849
1771680912342717700,2.1807177734375,0.10727596282958984,-0.07413685321807861,-0.3457835912704468
1771680912353074700,2.19107470703125,-0.35800647735595703,-0.15522053837776184,-0.15728101134300232
1771680912363431400,2.201431396484375,0.26915454864501953,0.14850682020187378,0.24028456211090088
1771680912373788400,2.211788330078125,-0.2576742172241211,-0.1647186279296875,0.41035735607147217
1771680912384145200,2.222145263671875,-0.07456302642822266,0.1343938708305359,0.2955525517463684
1771680912394502000,2.232501953125,-0.12745285034179688,-0.10354742407798767,0.1337367594242096
1771680912404859000,2.24285888671875,-0.07121753692626953,0.05566364526748657,-0.1575762927532196
1771680912415215600,2.253215576171875,0.04289817810058594,0.0074568986892700195,-0.22502988576889038
1771680912425572600,2.263572509765625,-0.2895679473876953,-0.011211812496185303,-0.2430611103773117
1771680912435929300,2.273929443359375,0.06114387512207031,-0.06282013654708862,0.055057674646377563
1771680912446286300,2.284286376953125,-0.012801170349121094,-0.07350990176200867,0.27025747299194336
1771680912456643000,2.29464306640625,0.14032459259033203,0.04526776075363159,0.2782066762447357
1771680912466999800,2.304999755859375,-0.007924079895019531,0.08912158012390137,-0.010443836450576782
1771680912477356800,2.315356689453125,-0.0901651382446289,0.08054113388061523,-0.3062934875488281
1771680912487713500,2.325713623046875,-0.10276317596435547,-0.012532174587249756,-0.32278621196746826
1771680912498070500,2.336070556640625,-0.006927490234375,-0.03092646598815918,-0.08247539401054382
1771680912508427300,2.34642724609375,0.16730880737304688,0.10379594564437866,0.1822594702243805
1771680912518784000,2.356783935546875,-0.014318466186523438,-0.03654572367668152,0.26165059208869934
1771680912529141000,2.36714111328125,0.12236881256103516,0.02972269058227539,0.1356322467327118
1771680912539497700,2.377497802734375,-0.12204265594482422,-0.02016240358352661,-0.035651057958602905
1771680912549854700,2.387854736328125,0.042316436767578125,0.005835890769958496,-0.16130095720291138
1771680912560211500,2.39821142578125,-0.06427192687988281,0.05524253845214844,-0.29284170269966125
1771680912570568200,2.408568115234375,-0.030249595642089844,-0.056113094091415405,-0.19890576601028442
1771680912580925200,2.41892529296875,-0.0038461685180664062,-0.11162349581718445,0.1639983355998993
1771680912591282000,2.429281982421875,0.04562187194824219,-0.06980505585670471,0.3261793851852417
1771680912601639000,2.439638916015625,0.17424964904785156,0.04642361402511597,0.18738874793052673
1771680912611995600,2.44999560546875,0.03956127166748047,0.05018818378448486,-0.17986080050468445
1771680912622352600,2.4603525390625,-0.01992511749267578,0.04913145303726196,-0.40947991609573364
1771680912632709400,2.47070947265625,-0.16309070587158203,-0.06683105230331421,-0.2670285701751709
1771680912643066000,2.481066162109375,0.12200164794921875,-0.023517489433288574,0.012420862913131714
1771680912653423000,2.491423095703125,0.0870513916015625,0.019436419010162354,0.2067287564277649
1771680912663779800,2.50177978515625,0.1161813735961914,-0.03293663263320923,0.22497159242630005
1771680912674136800,2.51213671875,-0.017522811889648438,0.07109969854354858,-0.004574567079544067
1771680912684493600,2.52249365234375,-0.09490203857421875,-0.04319119453430176,-0.09556382894515991
1771680912694850600,2.5328505859375,0.03374767303466797,0.09631597995758057,-0.3082549273967743
1771680912705207300,2.543207275390625,-0.15268707275390625,0.047688305377960205,-0.2986522316932678
1771680912715564000,2.55356396484375,0.016945838928222656,-0.007003903388977051,-0.10400152206420898
1771680912725921000,2.563921142578125,-0.037436485290527344,-0.09862411022186279,0.25731733441352844
1771680912736277800,2.57427783203125,0.07378005981445312,-0.02872002124786377,0.3446887135505676
1771680912746634800,2.584634765625,0.13842391967773438,0.08918553590774536,0.1276262402534485
1771680912756991500,2.594991455078125,0.03492450714111328,0.03348672389984131,-0.23641012609004974
1771680912767348500,2.605348388671875,-0.16799354553222656,0.039956867694854736,-0.41400331258773804
1771680912777705200,2.615705322265625,-0.13457298278808594,-0.13937091827392578,-0.1961957812309265
1771680912788062000,2.62606201171875,0.06298828125,0.14546102285385132,0.13811126351356506
1771680912798419000,2.6364189453125,0.04313087463378906,-0.09451854228973389,0.351800799369812
1771680912808775700,2.646775634765625,0.011844635009765625,0.3957580327987671,0.2733820080757141
1771680912819132700,2.657132568359375,0.13402366638183594,0.8451588153839111,0.3935595750808716
1771680912829489400,2.667489501953125,0.2517986297607422,0.33605116605758667,-0.042701274156570435
1771680912839846400,2.677846435546875,-0.17117691040039062,-0.12667328119277954,-0.47509363293647766
1771680912850203100,2.688203125,-0.1000051498413086,-0.07621783018112183,-0.5641328692436218
1771680912860560000,2.698559814453125,0.08059978485107422,0.6769320368766785,-0.23825182020664215
1771680912870916900,2.708916748046875,0.2487649917602539,0.585133969783783,0.4442508816719055
1771680912881273600,2.719273681640625,0.08938789367675781,-0.3506493866443634,0.8677597641944885
1771680912891630600,2.729630615234375,-0.6203069686889648,0.00444638729095459,0.3931347727775574
1771680912901987300,2.7399873046875,0.317108154296875,0.5750499963760376,-0.05717518925666809
1771680912912344300,2.75034423828125,-0.36342620849609375,0.9056771993637085,-0.4959481656551361
1771680912922701000,2.760701171875,-0.517298698425293,0.1017618179321289,-0.293109655380249
1771680912933058000,2.77105810546875,0.23492717742919922,0.4943467974662781,-0.14963185787200928
1771680912943414800,2.781414794921875,0.033408164978027344,0.27400606870651245,0.09944096207618713
1771680912953771500,2.791771484375,0.3905515670776367,0.000009238719940185547,0.21357804536819458
1771680912964128500,2.80212841796875,-0.039452552795410156,0.3402881622314453,0.3398812413215637
1771680912974485200,2.8124853515625,0.18476009368896484,0.14994150400161743,0.21522319316864014
1771680912984842200,2.82284228515625,-0.4488859176635742,0.4194188117980957,-0.17341932654380798
1771680912995199000,2.833198974609375,-0.30960655212402344,0.3603181838989258,-0.4060465097427368
1771680913005556000,2.843555908203125,-0.3255786895751953,0.5091420412063599,-0.30074384808540344
1771680913015912700,2.85391259765625,-0.2118825912475586,0.45368385314941406,0.23990029096603394
1771680913026269400,2.86426953125,0.14928054809570312,0.14465904235839844,0.41078007221221924
1771680913036626400,2.87462646484375,0.07618045806884766,-0.04609346389770508,0.15281131863594055
1771680913046983200,2.884983154296875,0.2113485336303711,0.027267813682556152,-0.1285463571548462
1771680913057340200,2.895340087890625,0.3137025833129883,0.4264681935310364,-0.3469460606575012
1771680913067697000,2.90569677734375,0.18378639221191406,0.45461833477020264,-0.242689847946167
1771680913078054000,2.916053955078125,-0.09454727172851562,-0.21670562028884888,0.050596654415130615
1771680913088410600,2.92641064453125,-0.11647319793701172,0.1701514720916748,0.1413564383983612
1771680913098767400,2.936767333984375,0.038392066955566406,0.24733781814575195,0.15344667434692383
1771680913109124400,2.947124267578125,-0.006966590881347656,0.4592822790145874,0.008235394954681396
1771680913119481000,2.957481201171875,-0.028049468994140625,0.7013038396835327,-0.022402286529541016
1771680913129838000,2.967838134765625,-0.03232002258300781,-0.08213025331497192,-0.021389514207839966
1771680913140194800,2.97819482421875,-0.09768009185791016,-0.08749181032180786,-0.22825345396995544
1771680913150551800,2.9885517578125,0.2568492889404297,-0.2010577917098999,-0.278120219707489
1771680913160908500,2.998908447265625,0.29964733123779297,0.19055652618408203,-0.3610205054283142
1771680913171265500,3.009265625,0.3252706527709961,0.6130401492118835,0.10824185609817505
1771680913181622300,3.019622314453125,0.30811119079589844,0.41212838888168335,0.4989810585975647
1771680913191979300,3.029979248046875,-0.38175487518310547,-0.38568636775016785,0.4235133230686188
1771680913202336000,3.0403359375,-0.5495548248291016,-0.24760550260543823,0.03406950831413269
1771680913212692700,3.050692626953125,0.007775306701660156,0.3001898527145386,-0.4147759974002838
1771680913223049700,3.0610498046875,-0.4276704788208008,0.36827558279037476,-0.6428942680358887
1771680913233406500,3.071406494140625,0.12299919128417969,0.8919447064399719,-0.2072020173072815
1771680913254120200,3.0921201171875,-0.05986213684082031,-0.5493754148483276,0.5448875427246094
1771680913264477200,3.102477294921875,-0.018919944763183594,-0.2389647364616394,0.2404085397720337
1771680913274834000,3.112833984375,0.5672645568847656,0.12918627262115479,-0.18834200501441956
1771680913285191000,3.12319091796875,-0.4586458206176758,0.8348617553710938,-0.47663870453834534
1771680913295547600,3.133547607421875,0.27373313903808594,0.738864541053772,-0.04154440760612488
1771680913305904600,3.143904541015625,-0.3896493911743164,-0.6522517800331116,0.23669517040252686
1771680913316261400,3.154261474609375,-0.9384679794311523,-0.6271826028823853,0.315375417470932
1771680913326618400,3.164618408203125,0.4865264892578125,0.22112351655960083,-0.21835282444953918
1771680913336975000,3.17497509765625,0.12313461303710938,0.7304046154022217,-0.26676657795906067
1771680913347331800,3.185331787109375,-0.06006908416748047,0.8099567890167236,0.06662413477897644
1771680913357688800,3.195688720703125,0.7033176422119141,0.3001871109008789,0.518561601638794
1771680913368045600,3.206045654296875,-0.44959163665771484,-1.1028265953063965,0.44723784923553467
1771680913378402600,3.216402587890625,-0.517425537109375,-0.7575662136077881,0.0619296133518219
1771680913388759300,3.22675927734375,0.6441059112548828,0.45506811141967773,-0.6042666435241699
1771680913399116300,3.2371162109375,-0.1948385238647461,1.0288021564483643,-0.47261184453964233
1771680913409473000,3.24747314453125,0.4201984405517578,0.6941530704498291,-0.011390715837478638
1771680913419830000,3.257830078125,0.1214599609375,-0.1974639892578125,0.5482236742973328
1771680913430186800,3.268186767578125,-0.8688516616821289,-0.5539228916168213,0.43386873602867126
1771680913440543700,3.278543701171875,0.33618640899658203,-0.3521120846271515,-0.09914615750312805
1771680913450900500,3.288900390625,-0.02266693115234375,0.8893758058547974,-0.3875837028026581
1771680913461257200,3.29925732421875,-0.10369205474853516,0.27608776092529297,0.0715843141078949
1771680913471614200,3.3096142578125,0.459503173828125,-0.049218177795410156,0.01621672511100769
1771680913481971200,3.31997119140625,-0.5603818893432617,-0.03235048055648804,-0.07197487354278564
1771680913492328000,3.330327880859375,0.2571287155151367,-0.12511342763900757,-0.14381766319274902
1771680913502684700,3.3406845703125,0.2634611129760742,0.5093449354171753,0.052378684282302856
1771680913513041700,3.351041748046875,-0.24780559539794922,0.12162530422210693,0.4264563024044037
1771680913523398400,3.3613984375,0.3182353973388672,-0.08437508344650269,0.2783646881580353
1771680913533755400,3.37175537109375,-0.5366811752319336,0.2093924880027771,-0.33501625061035156
1771680913544112000,3.382112060546875,0.12812232971191406,0.09902071952819824,-0.49884727597236633
1771680913554469000,3.39246923828125,-0.0654897689819336,0.3875669240951538,0.0009038448333740234
1771680913564825900,3.402825927734375,0.09927940368652344,-0.03552299737930298,0.22966229915618896
1771680913575182800,3.413182861328125,-0.02269268035888672,-0.27397865056991577,0.2865273356437683
1771680913585539600,3.42353955078125,0.13955402374267578,0.3587905168533325,-0.08819317817687988
1771680913595896600,3.433896484375,0.08664703369140625,0.5534226894378662,-0.052698612213134766
1771680913606266000,3.44426611328125,0.1650562286376953,-0.07797259092330933,0.21749606728553772
1771680913616610300,3.4546103515625,-0.3817129135131836,-0.27582359313964844,-0.075839102268219
1771680913626989600,3.464989501953125,-0.17541027069091797,0.12841767072677612,-0.37346792221069336
1771680913637323800,3.47532373046875,0.3356142044067383,0.5310781598091125,-0.31060531735420227
1771680913647682800,3.485682861328125,-0.26416492462158203,0.5154731869697571,0.34834396839141846
1771680913658059800,3.496059814453125,0.4594001770019531,-0.032385289669036865,0.5814591646194458
1771680913668406500,3.506406494140625,-0.30777835845947266,-0.11106735467910767,0.10840383172035217
1771680913678753000,3.5167529296875,-0.008663177490234375,-0.048703014850616455,-0.4426485598087311
1771680913689130000,3.5271298828125,0.2513856887817383,0.5858485698699951,-0.36501723527908325
1771680913699465000,3.53746484375,-0.018947601318359375,0.3030625581741333,-0.10225105285644531
1771680913709823200,3.5478232421875,-0.04034709930419922,-0.3610256016254425,0.22461798787117004
1771680913720200200,3.5582001953125,-0.16187191009521484,0.25039130449295044,0.1217261552810669
1771680913730547000,3.568546875,-0.025389671325683594,0.39526474475860596,0.2616020739078522
1771680913740893400,3.5788935546875,0.1320943832397461,0.30083131790161133,0.24523195624351501
1771680913751270400,3.5892705078125,-0.29836273193359375,-0.1370047926902771,-0.1633112132549286
1771680913761617200,3.5996171875,-0.22986221313476562,0.1943870186805725,-0.4612205922603607
1771680913771963100,3.609963134765625,-0.016588211059570312,0.4526320695877075,-0.24299634993076324
1771680913782340600,3.620340576171875,0.32015132904052734,0.17449986934661865,0.3565322458744049
1771680913792676900,3.6306767578125,-0.1581411361694336,-0.3882313072681427,0.31765908002853394
1771680913803033900,3.641033935546875,0.1644754409790039,0.024676918983459473,0.14914250373840332
1771680913813390600,3.651390625,-0.07354450225830078,0.6665512919425964,-0.39004912972450256
1771680913823757600,3.661757568359375,0.3041563034057617,0.5659074783325195,-0.08695423603057861
1771680913834104300,3.672104248046875,-0.33855724334716797,-0.0034607648849487305,-0.040986329317092896
1771680913844481000,3.68248095703125,-0.3823251724243164,-0.2364087700843811,0.1479998528957367
1771680913854817800,3.69281787109375,0.0499420166015625,0.3674064874649048,-0.0027572214603424072
1771680913865204700,3.703204833984375,0.22791385650634766,0.439289391040802,0.1547068953514099
1771680913875531500,3.713531494140625,0.1017313003540039,-0.1303275227546692,0.02797868847846985
1771680913885898000,3.72389794921875,-0.2787790298461914,-0.1047547459602356,-0.23359116911888123
1771680913896245200,3.734245361328125,0.1705942153930664,0.5933980345726013,-0.11946982145309448
1771680913906621400,3.744621337890625,0.2501192092895508,0.33185726404190063,0.2349282205104828
1771680913916959000,3.754958984375,-0.0034732818603515625,-0.05022305250167847,0.2620007395744324
1771680913927345200,3.76534521484375,-0.31636619567871094,-0.3224036693572998,0.11679252982139587
1771680913937672700,3.775672607421875,0.0865640640258789,0.4871756434440613,-0.23034285008907318
1771680913948038400,3.786038330078125,0.22396183013916016,0.5875886678695679,-0.07446342706680298
1771680913958386400,3.796386474609375,0.03432941436767578,0.08360463380813599,0.09670275449752808
1771680913968761900,3.806761962890625,-0.42035675048828125,-0.5082079768180847,0.10410264134407043
1771680913979100200,3.81710009765625,0.2360830307006836,0.4643399715423584,0.04183545708656311
1771680913989485600,3.827485595703125,0.25802040100097656,0.4641358256340027,0.10637450218200684
1771680913999814000,3.83781396484375,0.07721328735351562,-0.016742229461669922,0.023382961750030518
1771680914010178800,3.8481787109375,-0.5781927108764648,-0.2515828013420105,-0.16317635774612427
1771680914020555800,3.8585556640625,0.16793155670166016,0.571054220199585,-0.08247879147529602
1771680914030902300,3.86890234375,0.08277130126953125,0.46566271781921387,0.23794782161712646
1771680914041249000,3.8792490234375,0.11194324493408203,-0.193822979927063,0.24175509810447693
1771680914051598300,3.889598388671875,-0.49699878692626953,-0.4067785143852234,0.03993627429008484
1771680914061972500,3.899972412109375,0.1653919219970703,0.44679397344589233,-0.2211911827325821
1771680914072312000,3.91031201171875,0.33438682556152344,0.6964080333709717,-0.09831869602203369
1771680914082696200,3.9206962890625,-0.11123371124267578,-0.10550397634506226,0.07556235790252686
1771680914093025800,3.93102587890625,-0.38703346252441406,-0.42364439368247986,0.12134289741516113
1771680914103389400,3.941389404296875,0.08292579650878906,0.6468583345413208,0.08227652311325073
1771680914113739500,3.951739501953125,0.44855499267578125,0.4109017252922058,0.0735328197479248
1771680914124113000,3.96211279296875,-0.2625274658203125,-0.33213216066360474,-0.14543050527572632
1771680914134453200,3.972453369140625,-0.39229869842529297,-0.1920691728591919,-0.15727049112319946
1771680914144836600,3.982836669921875,0.1365652084350586,0.6136427521705627,-0.04376262426376343
1771680914155167000,3.9931669921875,0.35542869567871094,0.4652979373931885,0.36817535758018494
1771680914165529900,4.00352978515625,-0.1635122299194336,-0.35623449087142944,0.1583068072795868
1771680914175880700,4.013880615234375,-0.18905925750732422,-0.28660863637924194,-0.010913610458374023
1771680914186253300,4.02425341796875,0.11289310455322266,0.6052061319351196,-0.3960811197757721
1771680914196594200,4.03459423828125,0.41451454162597656,0.5321745276451111,-0.08650657534599304
1771680914206977000,4.04497705078125,-0.23479270935058594,-0.3680537939071655,-0.08018583059310913
1771680914217308200,4.05530810546875,-0.1932382583618164,-0.40894046425819397,0.11414128541946411
1771680914227670300,4.065670166015625,0.15821266174316406,0.5437318086624146,0.07476848363876343
1771680914238047200,4.076047119140625,0.47083377838134766,0.39624589681625366,0.1841101348400116
1771680914248393700,4.086393798828125,-0.3582296371459961,-0.21491026878356934,-0.13370171189308167
1771680914258735600,4.096735595703125,-0.13109970092773438,0.0005323290824890137,-0.16188392043113708
1771680914269117400,4.107117431640625,0.04755115509033203,0.6430931687355042,-0.07713991403579712
1771680914279449000,4.117448974609375,0.3220243453979492,0.26330065727233887,0.2793799936771393
1771680914289810700,4.127810791015625,-0.20104312896728516,-0.32892948389053345,0.1245155930519104
1771680914300187600,4.138187744140625,-0.14360713958740234,-0.30942636728286743,0.09978163242340088
1771680914310534100,4.1485341796875,0.14348602294921875,0.6062314510345459,-0.41687527298927307
1771680914320881000,4.158880859375,0.25637245178222656,0.5659387111663818,-0.05270692706108093
1771680914331257900,4.1692578125,-0.26322269439697266,-0.0668036937713623,-0.011647582054138184
1771680914341604400,4.179604248046875,-0.218841552734375,-0.23971718549728394,0.17202284932136536
1771680914351947300,4.189947265625,0.10715389251708984,0.5336555242538452,-0.0024125874042510986
1771680914362328000,4.200328125,0.1571044921875,0.28986459970474243,0.11745217442512512
1771680914372661000,4.210660888671875,-0.17968082427978516,0.009951651096343994,-0.06035599112510681
1771680914383021300,4.221021240234375,-0.2661409378051758,-0.1710495948791504,-0.20028391480445862
1771680914393374700,4.231374755859375,0.018283843994140625,0.5613682866096497,-0.312298059463501
1771680914403744800,4.241744873046875,0.19208335876464844,0.4090002179145813,0.20036160945892334
1771680914414088400,4.25208837890625,0.06178760528564453,0.06344807147979736,0.25641241669654846
1771680914424468500,4.262468505859375,-0.37223052978515625,-0.29015594720840454,0.2264571487903595
1771680914445159200,4.2831591796875,-0.04734325408935547,0.44806116819381714,-0.3222231864929199
1771680914455516000,4.293515869140625,0.1251964569091797,0.14645016193389893,-0.17766156792640686
1771680914465885200,4.30388525390625,-0.26512718200683594,-0.03670221567153931,0.03143984079360962
1771680914476229600,4.314229736328125,0.06397151947021484,0.029638826847076416,0.1964896321296692
1771680914486609000,4.32460888671875,0.19702625274658203,0.4200698733329773,-0.07345244288444519
1771680914496943400,4.334943359375,0.05254936218261719,0.21767395734786987,0.2507053315639496
1771680914507302100,4.34530224609375,-0.16716480255126953,0.1176605224609375,-0.00508996844291687
1771680914517657000,4.355656982421875,-0.08910465240478516,0.18860352039337158,-0.18566641211509705
1771680914528025600,4.366025634765625,-0.03584861755371094,0.3550245761871338,-0.3783418536186218
1771680914538370800,4.376370849609375,0.14360427856445312,0.41972917318344116,-0.1892920732498169
1771680914548749300,4.386749267578125,-0.04936504364013672,0.17759042978286743,0.3591541349887848
1771680914559084500,4.39708447265625,0.1608724594116211,-0.07493990659713745,0.318146675825119
1771680914569442600,4.407442626953125,0.0028944015502929688,-0.08790987730026245,0.11312329769134521
1771680914579798300,4.41779833984375,0.15345001220703125,0.19315648078918457,-0.2576684355735779
1771680914590166000,4.428166015625,0.2238931655883789,0.7048966288566589,-0.33391520380973816
1771680914600512800,4.4385126953125,-0.31627559661865234,0.3637726306915283,-0.07273021340370178
1771680914610889700,4.4488896484375,-0.11802387237548828,-0.04485517740249634,0.22930312156677246
1771680914621236200,4.459236328125,-0.20075321197509766,0.0970379114151001,0.23002254962921143
1771680914631582500,4.46958251953125,0.23084735870361328,0.2080831527709961,0.12757372856140137
1771680914641960000,4.4799599609375,0.0834798812866211,0.4798104763031006,-0.03693509101867676
1771680914652296400,4.49029638671875,-0.06615447998046875,-0.1046944260597229,0.07689884305000305
1771680914662683600,4.50068359375,-0.06504440307617188,0.04970860481262207,-0.13568514585494995
1771680914673010200,4.51101025390625,-0.16515254974365234,0.166861891746521,-0.12206593155860901
1771680914683376600,4.521376708984375,0.4211769104003906,0.3353300094604492,-0.2893126904964447
1771680914693724000,4.531723876953125,-0.11989402770996094,0.7250047922134399,-0.027052730321884155
1771680914704100400,4.542100341796875,0.3786144256591797,0.251348614692688,0.4628266990184784
1771680914714437600,4.552437744140625,-0.6959362030029297,-0.11529481410980225,0.4695788323879242
1771680914724824000,4.562823974609375,-0.0020198822021484375,-0.21466130018234253,0.1686168611049652
1771680914735151400,4.5731513671875,0.1956634521484375,0.023922324180603027,-0.33477285504341125
1771680914745517000,4.58351708984375,-0.08049869537353516,0.6279441118240356,-0.6446905136108398
1771680914755865000,4.593864990234375,0.8103189468383789,0.8739209175109863,-0.22350795567035675
1771680914766240800,4.60424072265625,-0.8007888793945312,-0.30327123403549194,0.2598685920238495
1771680914776578800,4.614578857421875,0.007876396179199219,0.09431326389312744,0.45596203207969666
1771680914786964500,4.624964599609375,0.5042142868041992,-0.08154815435409546,0.31232529878616333
1771680914797292500,4.63529248046875,-0.3206186294555664,0.3753131628036499,-0.19747024774551392
1771680914807657500,4.645657470703125,0.5318584442138672,0.9100104570388794,-0.5411180853843689
1771680914818034700,4.65603466796875,0.05717182159423828,0.2590855360031128,0.08651399612426758
1771680914828381200,4.666381103515625,-1.6543502807617188,-0.8984615802764893,0.4453114867210388
1771680914838720000,4.676719970703125,0.3732032775878906,0.6222884654998779,0.09973609447479248
1771680914849105000,4.68710498046875,0.5622787475585938,-0.07493793964385986,-0.09066450595855713
1771680914859451400,4.697451416015625,-0.6234645843505859,0.6966819763183594,-0.4503989517688751
1771680914869798000,4.7077978515625,1.8581695556640625,1.7426047325134277,-0.36615896224975586
1771680914880175000,4.718175048828125,-0.6907596588134766,-0.05508315563201904,0.6372610330581665
1771680914890521600,4.728521484375,-2.0399765968322754,-1.7355103492736816,0.9701939821243286
1771680914900868000,4.7388681640625,1.557302474975586,0.33307206630706787,-0.10031548142433167
1771680914911245300,4.749245361328125,-0.5231113433837891,0.13885033130645752,-0.2867739498615265
1771680914921591800,4.759591796875,-0.24486446380615234,1.3166041374206543,-0.8722326755523682
1771680914931931600,4.769931640625,2.51513671875,2.0054702758789062,-0.32300758361816406
1771680914942288600,4.78028857421875,-2.2623658180236816,-0.5166732668876648,0.7320488691329956
1771680914952645400,4.790645263671875,-1.5310373306274414,-1.317115068435669,0.7447680234909058
1771680914963008500,4.801008544921875,3.0722599029541016,0.6086463928222656,-0.2546054720878601
1771680914973359000,4.811359130859375,-2.129096031188965,-0.00886225700378418,-0.3772156834602356
1771680914983732200,4.821732177734375,1.2751436233520508,1.7617359161376953,-0.8752073049545288
1771680914994072800,4.83207275390625,2.3105478286743164,1.5796538591384888,0.0702618658542633
1771680915004456000,4.8424560546875,-4.165915489196777,-0.9681228399276733,0.7372726202011108
1771680915014786800,4.852786865234375,1.4322223663330078,-2.1206202507019043,0.2613844871520996
1771680915025149000,4.86314892578125,2.283275604248047,1.1999691724777222,-0.380632609128952
1771680915035500300,4.873500244140625,-2.6753153800964355,0.7402869462966919,-0.08824461698532104
1771680915045872600,4.88387255859375,3.1315088272094727,2.2044503688812256,-0.6931347846984863
1771680915056214300,4.89421435546875,-0.30118370056152344,0.4726167917251587,0.6342482566833496
1771680915066596400,4.904596435546875,-3.8186726570129395,-1.1345852613449097,0.47721728682518005
1771680915076928000,4.914927978515625,1.7712984085083008,-2.0389697551727295,0.04109194874763489
1771680915087289300,4.925289306640625,0.5781593322753906,0.6206262111663818,-0.25264430046081543
1771680915097641700,4.935641845703125,-1.7176284790039062,0.8991436958312988,-0.2924572825431824
1771680915108013000,4.946012939453125,3.6141586303710938,2.487269401550293,-1.204257607460022
1771680915118355500,4.95635546875,-2.4716858863830566,0.040400028228759766,0.3658013939857483
1771680915128736800,4.96673681640625,-3.15769100189209,-0.6568166017532349,-0.08106818795204163
1771680915139083300,4.977083251953125,4.602771759033203,-0.951393723487854,1.0439634323120117
1771680915149429800,4.9874296875,-1.0345849990844727,0.43269920349121094,0.963722288608551
1771680915159783000,4.997782958984375,0.19932270050048828,1.2439649105072021,0.06325611472129822
1771680915170153500,5.008153564453125,3.2112903594970703,0.7656848430633545,-1.4339876174926758
1771680915180500000,5.0185,-3.954944133758545,-0.7364541292190552,0.5910869836807251
1771680915190853400,5.028853271484375,1.5518178939819336,-1.30081045627594,0.24039751291275024
1771680915201223700,5.0392236328125,1.0468425750732422,1.4472856521606445,-0.13633319735527039
1771680915211567000,5.049567138671875,-1.966012954711914,0.8214013576507568,0.14834529161453247
1771680915221947400,5.059947509765625,2.239832878112793,1.284079909324646,-0.8890584707260132
1771680915232280800,5.07028076171875,-1.2839546203613281,-0.2743855118751526,0.7536059617996216
1771680915242640400,5.080640380859375,-2.0638484954833984,-1.0806814432144165,0.6653140783309937
1771680915252994600,5.09099462890625,3.4310617446899414,0.7018057107925415,0.2880605459213257
1771680915263364000,5.101364013671875,-2.1437792778015137,1.2805451154708862,-0.15697160363197327
1771680915273708500,5.11170849609375,0.7973241806030273,0.5135456323623657,-0.07724392414093018
1771680915284087800,5.122087890625,1.466160774230957,0.2870842218399048,0.35276922583580017
1771680915294422300,5.13242236328125,-3.1061158180236816,0.5422470569610596,0.2895556390285492
1771680915304780800,5.14278076171875,2.477354049682617,-1.0213288068771362,0.5963009595870972
1771680915315136000,5.153135986328125,-1.4337453842163086,1.2213159799575806,0.001600027084350586
1771680915325504500,5.16350439453125,0.004200935363769531,0.9918025732040405,-0.2789516746997833
1771680915335849700,5.173849609375,1.1714344024658203,0.24187254905700684,-0.03223675489425659
1771680915346228200,5.184228271484375,-2.349827766418457,0.4319194555282593,-0.49507948756217957
1771680915356563500,5.1945634765625,1.7782087326049805,-0.5200744867324829,0.19636422395706177
1771680915366921200,5.204921142578125,-0.5056495666503906,1.4995273351669312,0.27179276943206787
1771680915377277200,5.215277099609375,0.5553255081176758,-0.21456056833267212,0.24574688076972961
1771680915387645000,5.22564501953125,-0.140594482421875,-0.18997758626937866,0.23057681322097778
1771680915397991400,5.235991455078125,-0.980443000793457,0.6419631242752075,-0.5447229146957397
1771680915408368600,5.24636865234375,0.735814094543457,0.9064723253250122,-0.04032391309738159
1771680915418715100,5.256715087890625,-0.6289396286010742,1.241162896156311,-0.2983959913253784
1771680915429061600,5.2670615234375,0.2199249267578125,-0.6282263994216919,0.06299638748168945
1771680915439418400,5.27741845703125,-0.5396089553833008,-0.2050134539604187,0.03792649507522583
1771680915449785300,5.287785400390625,0.5429801940917969,0.9841241836547852,-0.03134655952453613
1771680915460162600,5.29816259765625,0.19311809539794922,0.6042670011520386,0.25877559185028076
1771680915470509000,5.308509033203125,-0.13199615478515625,-0.3903823494911194,0.07294011116027832
1771680915480855600,5.31885546875,-0.5159120559692383,0.1707305908203125,-0.19578447937965393
1771680915491232800,5.329232666015625,-0.2997474670410156,1.2274668216705322,-0.32017725706100464
1771680915501579300,5.339579345703125,0.22136306762695312,1.328961730003357,0.3709030747413635
1771680915511916500,5.34991650390625,-0.2757129669189453,-0.03212547302246094,0.1675158441066742
1771680915522303000,5.360302978515625,-0.5829687118530273,-0.9173380136489868,0.32021600008010864
1771680915532630300,5.37063037109375,0.1464853286743164,0.5905977487564087,-0.20955516397953033
1771680915542996000,5.380995849609375,0.42537975311279297,0.9544109106063843,-0.13530677556991577
1771680915553344000,5.391343994140625,0.4887685775756836,0.45284461975097656,0.008904874324798584
1771680915563719700,5.4017197265625,-0.7989349365234375,-0.3406828045845032,0.4713042974472046
1771680915574057700,5.4120576171875,0.20795917510986328,0.6857295036315918,0.3710176348686218
1771680915584443400,5.422443359375,-0.3725738525390625,1.2163640260696411,0.06699389219284058
1771680915594771500,5.432771484375,0.29422664642333984,0.6075193881988525,0.14813587069511414
1771680915605136400,5.443136474609375,-0.7973880767822266,-0.5367756485939026,-0.15226730704307556
1771680915615485200,5.453485107421875,-0.22494125366210938,-0.05032634735107422,-0.25358790159225464
1771680915625860000,5.463860107421875,0.23382854461669922,1.002851963043213,0.1912798285484314
1771680915636199000,5.474198974609375,0.6317243576049805,0.5983455181121826,0.29023000597953796
1771680915646583800,5.484583740234375,-0.04067802429199219,-0.6295417547225952,0.4222734868526459
1771680915656912600,5.49491259765625,-0.4678974151611328,0.22702515125274658,-0.07487419247627258
1771680915667276800,5.50527685546875,0.4903097152709961,1.448957920074463,0.06928235292434692
1771680915677626400,5.51562646484375,0.18339252471923828,1.1386206150054932,0.1248127818107605
1771680915688000500,5.52600048828125,-1.0035276412963867,-0.8293575644493103,0.1605529487133026
1771680915698347000,5.536346923828125,0.13498783111572266,-0.4111675024032593,0.18001142144203186
1771680915708724200,5.54672412109375,0.17741107940673828,1.028163194656372,0.14215311408042908
1771680915719070700,5.55707080078125,1.2365026473999023,0.8267018795013428,0.056657880544662476
1771680915729417200,5.567417236328125,-0.42803382873535156,-0.5132114887237549,0.1988084316253662
1771680915739794400,5.57779443359375,-0.2575855255126953,-0.0817415714263916,-0.14486119151115417
1771680915750141000,5.588140869140625,0.18931007385253906,1.3823840618133545,0.2850172519683838
1771680915760487400,5.5984873046875,1.0718193054199219,1.1294101476669312,0.26325955986976624
1771680915770864600,5.60886474609375,-0.7712411880493164,-1.0394985675811768,0.10727337002754211
1771680915781211100,5.619211181640625,-0.35404205322265625,-0.5806595683097839,-0.04580545425415039
1771680915791552000,5.629552001953125,0.007168769836425781,1.3599356412887573,-0.22303761541843414
1771680915801934800,5.639934814453125,1.0715551376342773,1.2409247159957886,0.16114097833633423
1771680915812265700,5.650265625,-0.735687255859375,-0.8186033964157104,0.32287460565567017
1771680915822627800,5.6606279296875,-0.0321044921875,-0.21988576650619507,0.11899706721305847
1771680915832979500,5.6709794921875,0.24476909637451172,1.3876476287841797,0.12121465802192688
1771680915843351600,5.6813515625,1.0197572708129883,1.074725866317749,-0.07904013991355896
1771680915853693200,5.691693115234375,-1.2933788299560547,-0.8530505299568176,0.07865151762962341
1771680915864075300,5.7020751953125,-0.3139629364013672,-0.3948158025741577,-0.012013107538223267
1771680915874407000,5.712406982421875,-0.0722188949584961,1.6834739446640015,0.3561185300350189
1771680915884768300,5.722768310546875,0.7082586288452148,0.971824049949646,0.4561566412448883
1771680915895120600,5.73312060546875,-0.8284149169921875,-1.1563918590545654,0.2582170069217682
1771680915905492000,5.743491943359375,-0.3180046081542969,-0.11276435852050781,-0.14233529567718506
1771680915915834600,5.753834716796875,0.7090358734130859,1.9933427572250366,-0.31569716334342957
1771680915926215700,5.764215576171875,0.9171895980834961,0.8719755411148071,0.0248640775680542
1771680915936548400,5.77454833984375,-1.2500457763671875,-1.3327240943908691,0.3187182545661926
1771680915946905000,5.784905029296875,-0.09642601013183594,-0.05314970016479492,0.008615881204605103
1771680915957262000,5.795261962890625,0.5123777389526367,1.7092435359954834,0.22560188174247742
1771680915967632400,5.80563232421875,0.6374912261962891,0.43036890029907227,0.04132750630378723
1771680915977979000,5.815978759765625,-1.2974491119384766,-1.0620709657669067,-0.18642964959144592
1771680915988356000,5.826356201171875,-0.017208099365234375,0.5081535577774048,-0.09460967779159546
1771680915998702600,5.83670263671875,0.6726350784301758,1.466553807258606,-0.13070064783096313
1771680916009049000,5.847049072265625,0.28902244567871094,0.06424117088317871,0.30473262071609497
1771680916019426300,5.85742626953125,-0.8478002548217773,-1.2107013463974,0.5089553594589233
1771680916029772800,5.867772705078125,0.4599761962890625,0.679163932800293,-0.1374150812625885
1771680916040119300,5.878119384765625,0.3991966247558594,1.0952646732330322,-0.31723523139953613
1771680916050496500,5.88849658203125,0.10465717315673828,0.13224828243255615,0.11666116118431091
1771680916060843000,5.898843017578125,-1.2059450149536133,-0.8178896903991699,0.43740347027778625
1771680916071189500,5.909189453125,0.44405364990234375,0.6916071176528931,0.2012617290019989
1771680916081566700,5.919566650390625,-0.2278003692626953,0.5591214895248413,0.10963389277458191
1771680916091901400,5.9299013671875,0.11886024475097656,-0.015779495239257812,0.03950616717338562
1771680916102259700,5.940259765625,-0.9412422180175781,-0.12739956378936768,-0.1948094367980957
1771680916112615200,5.950615234375,0.49797916412353516,0.24027001857757568,-0.21976785361766815
1771680916122983400,5.9609833984375,-0.41273021697998047,0.025743722915649414,0.1978760063648224
1771680916133329000,5.971328857421875,0.15868282318115234,-0.49212372303009033,0.5495113730430603
1771680916143707100,5.98170703125,-0.5077877044677734,0.018326401710510254,0.13862764835357666
1771680916154042600,5.992042724609375,0.36692047119140625,-0.10978078842163086,-0.06115156412124634
1771680916164400000,6.002400146484375,-0.16639995574951172,0.04898786544799805,-0.4351869225502014
1771680916174756400,6.01275634765625,-0.17093849182128906,-0.19558191299438477,0.12716776132583618
1771680916185123800,6.023123779296875,-0.40940189361572266,-0.18176263570785522,0.273434042930603
1771680916195470000,6.033469970703125,0.08069229125976562,-0.2249552607536316,0.08731314539909363
1771680916205847600,6.04384765625,-0.07491207122802734,-0.43976521492004395,0.12389072775840759
1771680916216183800,6.054183837890625,0.28543949127197266,-0.5588698983192444,-0.08249565958976746
1771680916226571000,6.064571044921875,-0.14517879486083984,0.10106921195983887,-0.49469977617263794
1771680916236897500,6.0748974609375,0.22964191436767578,-0.2456262707710266,-0.13213646411895752
1771680916247264300,6.08526416015625,-0.25097084045410156,-0.7559465169906616,0.06450632214546204
1771680916257611300,6.095611328125,0.350860595703125,-0.3824809789657593,0.07363680005073547
1771680916267988000,6.105988037109375,-0.04174232482910156,-0.04052937030792236,0.14134284853935242
1771680916278325200,6.1163251953125,0.1752758026123047,-0.3538651466369629,-0.2886814475059509
1771680916288711400,6.12671142578125,-0.10465812683105469,-0.8213587403297424,-0.22530771791934967
1771680916299039000,6.1370390625,0.16509342193603516,0.07206594944000244,-0.06251108646392822
1771680916309404700,6.14740478515625,0.3171977996826172,-0.3292827606201172,0.037655532360076904
1771680916319752700,6.157752685546875,0.12763214111328125,-0.6642851829528809,0.06685847043991089
1771680916330128400,6.16812841796875,0.18203067779541016,-0.7590770125389099,-0.2478782683610916
1771680916340475000,6.178474853515625,0.3341684341430664,0.05708932876586914,-0.2968737781047821
1771680916350851800,6.188851806640625,0.0992889404296875,-0.1876567006111145,-0.3511452078819275
1771680916361198600,6.199198486328125,-0.16361045837402344,-0.3040207624435425,-0.1072043776512146
1771680916371537200,6.209537109375,0.3188629150390625,-0.7129316329956055,0.052493780851364136
1771680916381922000,6.219922119140625,0.37529563903808594,0.22869348526000977,0.10293546319007874
1771680916392251000,6.2302509765625,0.31226062774658203,-0.5134387612342834,-0.404391348361969
1771680916402615300,6.240615234375,0.0346221923828125,-0.3174917697906494,-0.22193728387355804
1771680916412964600,6.250964599609375,-0.013149261474609375,-0.037557363510131836,-0.269994854927063
1771680916423339000,6.261339111328125,0.2208414077758789,0.19808411598205566,0.07049605250358582
1771680916433678300,6.27167822265625,0.07956600189208984,-0.4594721794128418,0.017251670360565186
1771680916444035000,6.28203515625,-0.092376708984375,-0.30681079626083374,-0.04409012198448181
1771680916454392000,6.29239208984375,0.16813278198242188,0.20130252838134766,-0.36847278475761414
1771680916464755700,6.302755615234375,-0.419342041015625,0.12839365005493164,-0.3226499855518341
1771680916475105800,6.313105712890625,-0.33941078186035156,-0.3478265404701233,-0.07394933700561523
1771680916485479400,6.3234794921875,-0.059169769287109375,-0.2597504258155823,0.07161909341812134
1771680916495819500,6.333819580078125,0.05484199523925781,0.35320377349853516,-0.07064172625541687
1771680916506203000,6.344202880859375,-0.2941884994506836,-0.5334020256996155,-0.31036293506622314
1771680916516533200,6.354533203125,-0.28681468963623047,-0.028933167457580566,-0.2609046697616577
1771680916526896000,6.364896240234375,0.5416250228881836,0.2861356735229492,-0.25777968764305115
1771680916537247200,6.375247314453125,-0.6508655548095703,-0.26237815618515015,-0.028646856546401978
1771680916547619800,6.385619873046875,-0.23050594329833984,-0.5431668758392334,0.27888235449790955
1771680916557996800,6.395996826171875,-0.17251968383789062,-0.014513850212097168,-0.08534523844718933
1771680916568343300,6.40634326171875,0.04683685302734375,-0.02086770534515381,-0.32070988416671753
1771680916578674700,6.4166748046875,-0.4080648422241211,-0.3310668468475342,0.011652112007141113
1771680916589036500,6.42703662109375,-0.10953521728515625,-0.252011775970459,0.1777886152267456
1771680916599413500,6.43741357421875,0.36046695709228516,-0.15805280208587646,0.31415608525276184
1771680916609760300,6.44776025390625,-0.43152332305908203,-0.44647181034088135,0.30707257986068726
1771680916620106800,6.458106689453125,0.2273550033569336,-0.11391377449035645,-0.00548514723777771
1771680916630483700,6.468483642578125,0.07053375244140625,-0.5581114888191223,-0.08811095356941223
1771680916640830500,6.47883056640625,0.44107913970947266,-0.09452188014984131,0.0551392138004303
1771680916651177000,6.489177001953125,-0.2793149948120117,-0.5246217250823975,0.12866127490997314
1771680916661554000,6.499553955078125,0.3417367935180664,-0.4519975185394287,0.150903582572937
1771680916671886600,6.509886474609375,-0.12989330291748047,-0.4881473779678345,-0.10001850128173828
1771680916682247200,6.5202470703125,0.5310602188110352,-0.08201372623443604,-0.23017866909503937
1771680916692600300,6.530600341796875,0.037497520446777344,-0.45131951570510864,-0.1959894746541977
1771680916702971000,6.540970947265625,0.029786109924316406,-0.5917373895645142,0.12955373525619507
1771680916713314000,6.55131396484375,0.5587005615234375,-0.013974308967590332,0.17478090524673462
1771680916723694300,6.5616943359375,-0.37772369384765625,-0.5119707584381104,0.34345129132270813
1771680916734027800,6.57202783203125,0.34624290466308594,-0.28426504135131836,0.02337735891342163
1771680916744387600,6.5823876953125,0.3169069290161133,-0.19441264867782593,-0.07831010222434998
1771680916754741500,6.592741455078125,0.4010648727416992,-0.3672981262207031,0.10741478204727173
1771680916765111300,6.603111328125,0.1284780502319336,-0.2343243956565857,0.19125714898109436
1771680916775455200,6.613455322265625,-0.2642679214477539,-0.5945968627929688,0.10957083106040955
1771680916785834800,6.623834716796875,0.24602508544921875,0.05672723054885864,-0.10435408353805542
1771680916796169200,6.634169189453125,-0.4169321060180664,-0.11044353246688843,-0.19318422675132751
1771680916806528000,6.644528076171875,0.08177566528320312,-0.6695314645767212,0.057044029235839844
1771680916816883000,6.654883056640625,-0.3478422164916992,-0.03219294548034668,0.1547064185142517
1771680916827251700,6.665251708984375,0.6743898391723633,-0.18281114101409912,0.14720004796981812
1771680916837596700,6.6755966796875,-0.42861461639404297,-0.5822440385818481,-0.1891038417816162
1771680916847975200,6.68597509765625,0.7291669845581055,-0.1994643211364746,-0.3047758638858795
1771680916858322000,6.696322021484375,-0.1958780288696289,0.39401882886886597,0.10013571381568909
1771680916868668400,6.70666845703125,-0.06547927856445312,-0.7570513486862183,0.009481966495513916
1771680916879024000,6.717024169921875,-0.3231029510498047,-0.206706702709198,-0.07073965668678284
1771680916889392000,6.72739208984375,0.34117698669433594,0.09507828950881958,-0.14311760663986206
1771680916899737900,6.73773779296875,-0.2408733367919922,0.10874634981155396,-0.18048962950706482
1771680916910115600,6.748115478515625,-0.6532611846923828,-0.49076002836227417,-0.19550704956054688
1771680916920462300,6.75846240234375,0.03538322448730469,-0.18497300148010254,0.3067561686038971
1771680916930808800,6.768808837890625,-0.054574012756347656,0.22511202096939087,0.08190596103668213
1771680916941165600,6.77916552734375,0.2781534194946289,-0.5392507314682007,0.14420205354690552
1771680916951522300,6.789522216796875,-0.24406814575195312,-0.11694258451461792,-0.3684689700603485
1771680916961909500,6.799909423828125,0.7106485366821289,0.29428964853286743,-0.16582083702087402
1771680916972236000,6.810236083984375,-0.1270294189453125,-0.16764426231384277,0.09350687265396118
1771680916982602800,6.820602783203125,-0.7625226974487305,-0.5605822205543518,0.021453678607940674
1771680916992949800,6.83094970703125,0.19608592987060547,0.286152720451355,-0.13168567419052124
1771680917003326200,6.841326171875,-0.266021728515625,0.06991970539093018,0.030228614807128906
1771680917013663700,6.851663818359375,-0.38393592834472656,-0.5337268114089966,-0.2830682694911957
1771680917024050000,6.8620498046875,0.06479454040527344,0.3157181143760681,0.13740429282188416
1771680917034377500,6.87237744140625,0.39074039459228516,-0.5573533773422241,0.15847504138946533
1771680917044743200,6.8827431640625,-0.053414344787597656,-0.07778263092041016,-0.1212485134601593
1771680917055091200,6.89309130859375,0.42510223388671875,-0.0074517130851745605,-0.21227407455444336
1771680917065466600,6.903466552734375,0.30510425567626953,-0.3655118942260742,-0.17761646211147308
1771680917075805000,6.913804931640625,-0.39644336700439453,0.12344229221343994,-0.004207611083984375
1771680917086190300,6.9241904296875,0.47606563568115234,-0.41543424129486084,0.1914929747581482
1771680917096518700,6.9345185546875,-0.4377431869506836,-0.29066002368927,0.013540595769882202
1771680917106883600,6.944883544921875,0.6307287216186523,0.18708693981170654,0.0533997118473053
1771680917117232400,6.955232421875,-0.30449771881103516,-0.16387414932250977,-0.14579322934150696
1771680917127607300,6.965607177734375,0.16882038116455078,-0.5281768441200256,0.20699754357337952
1771680917137984300,6.975984375,0.5989608764648438,-0.09854048490524292,-0.03600481152534485
1771680917148330800,6.986330810546875,-0.12631797790527344,-0.12722396850585938,0.09584295749664307
1771680917158660000,6.99666015625,-0.21598148345947266,-0.5605512857437134,0.031151145696640015
1771680917169024000,7.00702392578125,0.665308952331543,0.1963132619857788,-0.13597413897514343
1771680917179373800,7.017373779296875,-0.21164798736572266,-0.14551973342895508,-0.016946405172348022
1771680917189747700,7.027747802734375,0.14959335327148438,-0.5418304204940796,0.461693674325943
1771680917200087600,7.038087646484375,-0.4670143127441406,0.047959983348846436,0.21007290482521057
1771680917210471200,7.04847119140625,0.5313940048217773,-0.059268295764923096,0.08687353134155273
1771680917220818000,7.05881787109375,-0.7974529266357422,0.10822278261184692,-0.026579737663269043
1771680917231164400,7.069164306640625,0.022907257080078125,-0.23240315914154053,0.30068278312683105
1771680917241541400,7.079541259765625,0.3095817565917969,-0.15415555238723755,0.1140509843826294
1771680917251872000,7.0898720703125,-0.45557212829589844,0.1801106333732605,0.16393616795539856
1771680917262234600,7.100234619140625,0.24380207061767578,-0.2120426893234253,-0.15026602149009705
1771680917272585700,7.110585693359375,0.04919910430908203,0.4568825364112854,-0.23257945477962494
1771680917282958300,7.120958251953125,0.15193653106689453,0.19930988550186157,0.051782965660095215
1771680917293299500,7.131299560546875,-0.45758724212646484,-0.2591027617454529,0.3125200867652893
1771680917303681800,7.141681884765625,-0.34639739990234375,0.18182778358459473,-0.03723037242889404
1771680917314013200,7.15201318359375,0.4618206024169922,0.7826573848724365,-0.22992809116840363
1771680917324375000,7.162375,-1.1481943130493164,-0.20974814891815186,0.014189571142196655
1771680917334727000,7.172726806640625,0.5510654449462891,-0.026395797729492188,0.07273334264755249
1771680917345098800,7.1830986328125,0.00782012939453125,1.001323938369751,-0.10425722599029541
1771680917355440600,7.193440673828125,-0.14281463623046875,-0.30536603927612305,0.030887991189956665
1771680917365822200,7.203822265625,0.15378952026367188,0.4928981065750122,-0.08988156914710999
1771680917376154600,7.214154541015625,0.09247970581054688,0.8583959341049194,-0.1810409128665924
1771680917386515500,7.224515380859375,-0.04779338836669922,0.06604558229446411,0.4679984450340271
1771680917396868400,7.234868408203125,-0.2210216522216797,-0.0025702714920043945,0.15810611844062805
1771680917407239200,7.2452392578125,0.4227447509765625,1.0030755996704102,-0.4196716248989105
1771680917417582000,7.25558203125,-0.23363876342773438,0.4234073758125305,0.09281894564628601
1771680917427962600,7.265962646484375,-0.24375057220458984,-0.1434859037399292,0.05369502305984497
1771680917438295800,7.2762958984375,0.16745853424072266,1.1122446060180664,-0.08158114552497864
1771680917448656000,7.28665576171875,0.2259359359741211,0.29248666763305664,0.1746366322040558
1771680917459009500,7.297009521484375,-0.7706413269042969,0.0036792755126953125,-0.10055449604988098
1771680917469379600,7.307379638671875,0.7764415740966797,1.2567633390426636,-0.17707693576812744
1771680917479723500,7.3177236328125,-0.15641403198242188,0.317438006401062,0.27505502104759216
1771680917490103000,7.32810302734375,-0.5842676162719727,-0.32913434505462646,0.4964769184589386
1771680917500449800,7.33844970703125,0.24439620971679688,0.9620039463043213,-0.1508006751537323
1771680917510796300,7.34879638671875,0.06482315063476562,0.8453340530395508,-0.021097272634506226
1771680917521173200,7.35917333984375,-0.8374996185302734,-0.4373140335083008,0.20233401656150818
1771680917531508000,7.369508056640625,0.24590206146240234,0.6351519823074341,0.005281269550323486
1771680917541866500,7.379866455078125,0.326446533203125,0.7979931831359863,0.1513538956642151
1771680917552221700,7.3902216796875,-0.7484264373779297,-0.5479859113693237,-0.11399123072624207
1771680917562590200,7.400590087890625,0.9028129577636719,0.6914023160934448,-0.27560412883758545
1771680917572935400,7.410935302734375,0.1248331069946289,0.8140308856964111,-0.13945040106773376
1771680917583313700,7.421313720703125,-0.2096233367919922,-0.6584857702255249,0.355120450258255
1771680917593649200,7.431649169921875,0.46883392333984375,0.3849080801010132,-0.08098936080932617
1771680917604007000,7.4420068359375,0.43663787841796875,0.7614997625350952,-0.5855677723884583
1771680917614363000,7.45236279296875,-0.6002788543701172,-0.2532271146774292,-0.03939896821975708
1771680917624730600,7.462730712890625,0.27246570587158203,0.45599365234375,0.11547356843948364
1771680917635076600,7.47307666015625,0.4651613235473633,0.5354552268981934,-0.21143803000450134
1771680917645454000,7.4834541015625,-1.309391975402832,-0.16999459266662598,0.14875948429107666
1771680917655790600,7.49379052734375,1.0044288635253906,0.49525630474090576,-0.04898795485496521
1771680917666177800,7.504177734375,-0.16281414031982422,0.696906328201294,-0.09533354640007019
1771680917676504300,7.51450439453125,-0.6492729187011719,-0.6945246458053589,0.16286513209342957
1771680917686871000,7.52487109375,0.5029258728027344,0.7071837186813354,-0.09056463837623596
1771680917697218000,7.535218017578125,-0.2860107421875,1.0020135641098022,-0.36349618434906006
1771680917707594500,7.545594482421875,-0.5669231414794922,-0.6879730820655823,0.05936858057975769
1771680917717931800,7.555931884765625,0.16729259490966797,1.0294662714004517,0.10473865270614624
1771680917728318200,7.566318115234375,0.15725421905517578,0.7796716690063477,0.015337377786636353
1771680917738645500,7.5766455078125,-0.8074312210083008,-0.5853344798088074,-0.07479932904243469
1771680917749011500,7.587011474609375,0.23048782348632812,1.516487956047058,-0.1367783546447754
1771680917759359200,7.597359130859375,-0.1830883026123047,0.21072828769683838,0.3801470696926117
1771680917769735000,7.60773486328125,-0.4045877456665039,-0.23707139492034912,-0.07718923687934875
1771680917780081700,7.61808154296875,0.5750541687011719,1.2921541929244995,-0.3713972568511963
1771680917790458600,7.628458740234375,0.3396902084350586,0.3316234350204468,0.21749833226203918
1771680917800805000,7.63880517578125,-0.7781534194946289,0.015611648559570312,-0.25882279872894287
1771680917811152000,7.64915185546875,1.1572113037109375,1.122766137123108,0.01764047145843506
1771680917821528800,7.65952880859375,-1.3160552978515625,0.2655388116836548,0.01490175724029541
1771680917831857700,7.669857666015625,0.1027078628540039,0.12369191646575928,0.11900913715362549
1771680917842222000,7.68022216796875,0.15978431701660156,1.2950148582458496,0.294975221157074
1771680917852571400,7.6905712890625,-0.26789379119873047,-0.34773313999176025,0.11775240302085876
1771680917862945500,7.700945556640625,0.5945301055908203,0.5041207075119019,-0.18766795098781586
1771680917873285000,7.71128515625,-0.017991065979003906,0.873258113861084,-0.2311427891254425
1771680917883669200,7.721669189453125,-0.22316741943359375,-0.23214727640151978,0.17057934403419495
1771680917893998800,7.731998779296875,0.16887187957763672,0.6748095750808716,0.03475219011306763
1771680917904362500,7.742362548828125,-0.33036327362060547,0.1839374303817749,-0.0022793710231781006
1771680917914712600,7.752712646484375,-0.4560127258300781,0.2831650972366333,0.06055206060409546
1771680917925086000,7.7630859375,0.47603893280029297,0.9200471639633179,0.1517234444618225
1771680917935426600,7.773426513671875,-0.7854547500610352,-0.03919994831085205,0.22128826379776
1771680917945783300,7.783783203125,0.2882118225097656,0.38103950023651123,-0.07086274027824402
1771680917956140300,7.794140380859375,0.35188770294189453,0.962781548500061,-0.23981015384197235
1771680917966503000,7.8045029296875,-1.3079376220703125,-0.6141888499259949,0.1190054714679718
1771680917976854000,7.81485400390625,0.5880575180053711,0.7072137594223022,0.11499175429344177
1771680917987226400,7.825226318359375,-0.06754112243652344,0.3341636657714844,-0.006654918193817139
1771680917997567700,7.835567626953125,-0.31809139251708984,-0.48497188091278076,-0.17714495956897736
1771680918007950000,7.8459501953125,1.1505651473999023,0.9939042329788208,0.017154335975646973
1771680918018296600,7.856296630859375,-0.7619733810424805,0.4555751085281372,0.5578774809837341
1771680918028643300,7.866643310546875,0.1062469482421875,-0.19482386112213135,-0.025665730237960815
1771680918038995500,7.876995361328125,0.0032329559326171875,1.1168619394302368,-0.22556161880493164
1771680918049366800,7.88736669921875,-0.6485929489135742,-0.02796173095703125,0.35193297266960144
1771680918059709200,7.897709228515625,0.8566455841064453,0.3133869171142578,-0.14076834917068481
1771680918070090500,7.908090576171875,-0.718571662902832,0.20394551753997803,-0.19000394642353058
1771680918080437000,7.91843701171875,0.6985445022583008,0.32757389545440674,-0.04455867409706116
1771680918090783700,7.92878369140625,0.3912353515625,0.8572089672088623,0.012441694736480713
1771680918101160700,7.93916064453125,-0.0060253143310546875,-0.385819673538208,0.12548738718032837
1771680918111493600,7.94949365234375,0.5191335678100586,1.0134124755859375,-0.31860271096229553
1771680918121854000,7.95985400390625,-0.14098548889160156,0.5656071901321411,0.0005310773849487305
1771680918132207400,7.970207275390625,-0.19788360595703125,-0.009070396423339844,0.17745649814605713
1771680918142577400,7.980577392578125,0.00787353515625,0.8602554798126221,-0.00553584098815918
1771680918152921000,7.990921142578125,-0.011239051818847656,0.09211647510528564,0.020193368196487427
1771680918163301000,8.001301025390624,-0.15202808380126953,0.932047963142395,0.010509729385375977
1771680918173634800,8.011634765625,0.4999732971191406,0.3689843416213989,0.401110976934433
1771680918183994400,8.021994384765625,-0.6589450836181641,0.07892429828643799,0.16109642386436462
1771680918194348800,8.032348876953124,1.2808332443237305,0.7230898141860962,-0.32161614298820496
1771680918204717800,8.0427177734375,-0.7536115646362305,0.283976674079895,0.1063489317893982
1771680918215062500,8.0530625,0.39632606506347656,0.35950767993927,-0.32758063077926636
1771680918225441500,8.063441650390626,-0.4161710739135742,0.5059627294540405,-0.22767356038093567
1771680918235776300,8.0737763671875,-0.3412189483642578,0.354878306388855,-0.3149449825286865
1771680918246134800,8.084134765625,0.7194395065307617,0.7424765825271606,0.02513706684112549
1771680918256490000,8.094489990234376,-1.707484245300293,0.027507901191711426,0.36956319212913513
1771680918266858200,8.104858154296876,1.3066530227661133,0.6638556718826294,-0.40625110268592834
1771680918277203700,8.11520361328125,-0.8352556228637695,0.7822813987731934,-0.11286807060241699
1771680918287582000,8.12558203125,0.1740865707397461,-1.0195832252502441,-0.06682384014129639
1771680918297917700,8.135917724609374,0.04006767272949219,1.3453235626220703,-0.12417688965797424
1771680918308275200,8.146275146484374,-0.8026723861694336,-0.3945848345756531,-0.11038187146186829
1771680918318631400,8.15663134765625,0.6625757217407227,0.731889009475708,-0.16226035356521606
1771680918328998700,8.16699853515625,-0.8046855926513672,0.20634078979492188,0.2684568166732788
1771680918339345200,8.17734521484375,0.9660282135009766,0.23819983005523682,0.10702052712440491
1771680918349722400,8.187722412109375,-0.587885856628418,0.6872130632400513,-0.2285325825214386
1771680918360068900,8.19806884765625,0.35400390625,0.029004812240600586,-0.11083605885505676
1771680918370446000,8.208446044921875,-0.26270484924316406,0.36354005336761475,-0.1757655143737793
1771680918380792600,8.21879248046875,0.4158601760864258,0.17867374420166016,-0.273822158575058
1771680918391139000,8.22913916015625,-0.3418283462524414,0.4268453121185303,-0.15675610303878784
1771680918401516300,8.239516357421875,0.711669921875,0.3729771375656128,0.3373711109161377
1771680918411843300,8.24984326171875,-0.8678350448608398,0.30981361865997314,0.11320751905441284
1771680918422209300,8.260209228515626,1.3588924407958984,0.6623685359954834,0.17899519205093384
1771680918432557300,8.270557373046875,-0.6112842559814453,0.08242249488830566,0.1690366268157959
1771680918442914000,8.2809140625,1.1923294067382812,0.7575753927230835,0.17082008719444275
1771680918453271000,8.29127099609375,-1.0065679550170898,0.18442440032958984,-0.1490873098373413
1771680918463656700,8.30165673828125,0.28726768493652344,0.38452231884002686,0.002942979335784912
1771680918473984800,8.31198486328125,-0.15497970581054688,0.6376479864120483,0.4853919446468353
1771680918484349700,8.322349609375,-0.05191802978515625,0.15108788013458252,-0.300871878862381
1771680918494698500,8.332698486328125,0.602330207824707,1.0253089666366577,0.13985112309455872
1771680918505073400,8.343073486328125,-0.9816617965698242,-0.23530346155166626,-0.0005560815334320068
1771680918515412500,8.35341259765625,1.214442253112793,1.1959000825881958,-0.27438783645629883
1771680918525797000,8.363797119140624,-1.7101469039916992,0.06928110122680664,-0.0876610279083252
1771680918536126200,8.374126220703126,0.8720188140869141,0.5931118726730347,-0.19662608206272125
1771680918546490000,8.384489990234375,-1.3022403717041016,0.38925957679748535,0.09492051601409912
1771680918556840000,8.39483984375,0.8993244171142578,0.47619354724884033,-0.4586189389228821
1771680918567213800,8.4052138671875,-1.1078987121582031,0.37062621116638184,0.12382358312606812
1771680918577553700,8.4155537109375,0.49879932403564453,0.4482506513595581,-0.13296785950660706
1771680918587937500,8.4259375,-0.1469278335571289,0.6745893955230713,0.15972039103507996
1771680918598284000,8.436283935546875,-0.7529220581054688,-0.12169373035430908,-0.09654739499092102
1771680918608630500,8.446630615234374,0.61419677734375,0.6001507043838501,0.05772009491920471
1771680918618981400,8.4569814453125,-0.2920799255371094,0.43172574043273926,0.11997807025909424
1771680918629354200,8.467354248046876,-0.019295692443847656,0.06385135650634766,0.01837143301963806
1771680918639695000,8.477695068359376,-0.5921850204467773,0.483736515045166,0.2189355194568634
1771680918650078000,8.488077880859375,0.8341789245605469,0.38801395893096924,-0.3580727279186249
1771680918660424400,8.498424560546875,0.03721904754638672,0.3656470775604248,-0.08871075510978699
1771680918670771000,8.50877099609375,-0.5310096740722656,0.12480270862579346,-0.3239922821521759
1771680918681148200,8.519148193359374,0.5849571228027344,0.6784369945526123,0.44518592953681946
1771680918691479600,8.5294794921875,-0.9250478744506836,0.1547236442565918,-0.08155632019042969
1771680918701841200,8.539841064453125,0.7504472732543945,0.02608323097229004,0.2651258111000061
1771680918712193300,8.550193359375,-0.12028694152832031,0.5223671197891235,0.029652953147888184
1771680918722564900,8.56056494140625,0.7965517044067383,0.04224538803100586,-0.04205530881881714
1771680918732907000,8.570906982421874,-0.6828784942626953,0.16049814224243164,-0.12545397877693176
1771680918743288600,8.58128857421875,0.6268157958984375,0.45216941833496094,-0.17290842533111572
1771680918753621000,8.59162109375,0.14075374603271484,0.2277759313583374,0.07382059097290039
1771680918763981600,8.601981689453124,-0.2605772018432617,0.04876971244812012,-0.3363977372646332
1771680918774334700,8.612334716796875,0.7522029876708984,0.350055456161499,0.43528521060943604
1771680918784705300,8.622705322265626,-0.2377796173095703,0.358432412147522,-0.3084981441497803
1771680918795048400,8.63304833984375,0.29763317108154297,-0.10226070880889893,-0.01626640558242798
1771680918805429000,8.643428955078125,-0.3116493225097656,0.6801009178161621,-0.3698475658893585
1771680918815762200,8.65376220703125,0.43876171112060547,0.04235529899597168,0.1936323046684265
1771680918826122000,8.6641220703125,-0.29016971588134766,0.745099663734436,-0.7545005083084106
1771680918836476200,8.67447607421875,-0.19386863708496094,-0.10393202304840088,0.2707393169403076
1771680918846845700,8.684845703125,0.4583749771118164,0.7393198013305664,-0.1982380747795105
1771680918857190000,8.69518994140625,-0.9413862228393555,0.34435975551605225,-0.032129645347595215
1771680918867569400,8.7055693359375,0.483642578125,0.4205673933029175,-0.3427073061466217
1771680918877903600,8.715903564453125,-0.9543905258178711,0.21283483505249023,0.08842891454696655
1771680918888262400,8.726262451171875,0.7737293243408203,0.5783710479736328,-0.20218858122825623
1771680918898617300,8.736617431640624,-1.156702995300293,0.12201452255249023,-0.24199144542217255
1771680918908986000,8.746986083984375,0.5551729202270508,0.37603485584259033,0.5181665420532227
1771680918919331300,8.757331298828126,0.1074991226196289,0.6616929769515991,-0.3059992492198944
1771680918929709800,8.767709716796874,0.14301013946533203,0.3827139139175415,0.08325755596160889
1771680918940045000,8.778045166015625,-0.23444843292236328,-0.04293620586395264,0.020037144422531128
1771680918950402800,8.78840283203125,0.3748025894165039,0.8439974784851074,-0.06329083442687988
1771680918960780000,8.798780029296875,-0.2538642883300781,0.3315790891647339,0.10707786679267883
1771680918971126500,8.80912646484375,-0.14340877532958984,0.07647931575775146,0.46314913034439087
1771680918981473000,8.81947314453125,-0.0713949203491211,0.33171558380126953,-0.13125774264335632
1771680918991829500,8.82982958984375,-0.05925273895263672,0.8095552921295166,0.2057119607925415
1771680919002196700,8.84019677734375,-0.13313770294189453,0.26668262481689453,-0.07109332084655762
1771680919012543200,8.850543212890624,0.15364837646484375,0.013886690139770508,-0.06011888384819031
1771680919022920400,8.86092041015625,-0.6034326553344727,1.1799730062484741,-0.615971565246582
1771680919033257200,8.87125732421875,0.03051471710205078,-0.25270336866378784,0.1870148777961731
1771680919043644200,8.88164404296875,-0.7238521575927734,0.36177754402160645,-0.3983074426651001
1771680919053971000,8.891970947265625,0.633601188659668,0.2853630781173706,-0.13529247045516968
1771680919064337200,8.902337158203125,0.2762641906738281,0.5933002233505249,-0.20597772300243378
1771680919074684700,8.9126845703125,-0.21619606018066406,-0.40763914585113525,0.042893290519714355
1771680919085060900,8.923060791015626,-0.03147697448730469,0.7426904439926147,-0.012806832790374756
1771680919095398400,8.9333984375,-0.3651580810546875,0.030117034912109375,0.4336867034435272
1771680919105784600,8.94378466796875,-0.19910335540771484,0.16319262981414795,-0.029976695775985718
1771680919116112400,8.9541123046875,-0.10882282257080078,0.43959248065948486,-0.1561935991048813
1771680919126477600,8.9644775390625,0.09518241882324219,0.45881903171539307,0.1424572765827179
1771680919136826000,8.974826171875,-0.29010009765625,0.015292882919311523,0.1388365924358368
1771680919147201300,8.985201171875,0.043982505798339844,0.6041184663772583,-0.010241270065307617
1771680919157539800,8.995539794921875,0.17247676849365234,0.13010621070861816,0.021533429622650146
1771680919167925000,9.005925048828125,0.39067935943603516,-0.1658264398574829,-0.14687931537628174
1771680919178271500,9.016271484375,-0.17597103118896484,0.05962371826171875,0.14613133668899536
1771680919188618000,9.026617919921875,0.7845382690429688,-0.1553208827972412,-0.008006185293197632
1771680919198995200,9.0369951171875,-0.08271980285644531,0.39603865146636963,-0.21262100338935852
1771680919209341700,9.047341796875,-0.26262855529785156,-0.30848580598831177,-0.030235081911087036
1771680919219681300,9.057681396484375,0.3770151138305664,0.2471081018447876,-0.07803300023078918
1771680919230065400,9.0680654296875,-0.7070722579956055,-0.13673162460327148,-0.12203288078308105
1771680919240412000,9.078411865234376,1.1917705535888672,0.46974360942840576,-0.200731098651886
1771680919250758400,9.08875830078125,-1.2729482650756836,-0.5222773551940918,0.04811674356460571
1771680919261135600,9.099135498046875,2.040830612182617,0.5090707540512085,-0.19333086907863617
1771680919271465700,9.1094658203125,-1.2223939895629883,-0.462307333946228,0.055764079093933105
1771680919281828600,9.11982861328125,1.4467954635620117,0.10590958595275879,-0.1544976532459259
1771680919292179500,9.130179443359374,-0.43048667907714844,-0.0729442834854126,-0.2748824656009674
1771680919302552300,9.14055224609375,-0.06421375274658203,0.11296975612640381,0.02765306830406189
1771680919312893400,9.1508935546875,-0.7299480438232422,-0.0737389326095581,-0.19208620488643646
1771680919323276000,9.161276123046875,0.38413429260253906,0.6808685064315796,-0.561896026134491
1771680919333607200,9.171607177734375,-0.19683837890625,-0.5355429649353027,0.011984169483184814
1771680919343969000,9.181968994140625,0.15935707092285156,0.4483773708343506,-0.50989830493927
1771680919354321000,9.19232080078125,-0.06063365936279297,0.2351466417312622,-0.1968798041343689
1771680919364692700,9.202692626953125,-0.16303539276123047,-0.17425954341888428,0.0590481162071228
1771680919375034600,9.21303466796875,0.08332157135009766,0.5005543231964111,-0.06921011209487915
1771680919385416400,9.22341650390625,0.20729446411132812,0.4896430969238281,-0.10138192772865295
1771680919395748600,9.23374853515625,0.2952451705932617,-0.2842554450035095,0.029249370098114014
1771680919406109400,9.244109375,-0.34501171112060547,0.44112634658813477,-0.13655072450637817
1771680919416462300,9.25446240234375,0.8566093444824219,0.7795491218566895,-0.008579939603805542
1771680919426833200,9.264833251953124,-0.5345401763916016,0.02016901969909668,-0.1406927853822708
1771680919437176000,9.275176025390625,0.10430335998535156,0.7625265121459961,-0.2532269358634949
1771680919447533000,9.285532958984374,-0.6668491363525391,0.421697735786438,-0.12048551440238953
1771680919457889800,9.295889892578124,0.02719402313232422,0.48274683952331543,-0.27745798230171204
1771680919468249900,9.306249755859374,-0.9466218948364258,0.4956313371658325,-0.30203330516815186
1771680919478603800,9.316603759765625,0.3638486862182617,0.5740214586257935,-0.12982839345932007
1771680919488973600,9.3269736328125,-0.450897216796875,0.6221863031387329,-0.6405657529830933
1771680919499317500,9.3373173828125,0.049149513244628906,0.13778996467590332,-0.40455836057662964
1771680919509697300,9.347697265625,0.2901945114135742,0.8407375812530518,-0.3078867793083191
1771680919520031200,9.35803125,-0.7344808578491211,0.4137023687362671,-0.025362133979797363
1771680919530390300,9.368390380859376,0.1839761734008789,0.11135196685791016,0.08210065960884094
1771680919540767500,9.378767578125,-0.24845600128173828,0.5283175706863403,-0.05623173713684082
1771680919551114000,9.389114013671875,0.6376962661743164,1.0690382719039917,-0.4271666407585144
1771680919561460500,9.39946044921875,-0.26851749420166016,-0.07186174392700195,0.1101183295249939
1771680919571816000,9.40981591796875,-0.9743518829345703,0.37476253509521484,-0.2198522537946701
1771680919582184200,9.42018408203125,0.28113460540771484,0.7183804512023926,0.12260234355926514
1771680919592529700,9.43052978515625,-0.30681896209716797,0.47366321086883545,-0.2089739590883255
1771680919602908000,9.440907958984376,0.2834482192993164,-0.6364864110946655,-0.43694934248924255
1771680919613243400,9.451243408203124,0.2540597915649414,0.36749768257141113,-0.14342743158340454
1771680919623601000,9.461600830078124,0.8524284362792969,0.42252063751220703,-0.2109248787164688
1771680919633957000,9.47195703125,-0.09254646301269531,-0.5069708228111267,-0.40758535265922546
1771680919644324600,9.48232470703125,0.38736438751220703,0.4378310441970825,-0.13015206158161163
1771680919654670800,9.4926708984375,0.3696165084838867,-0.013945341110229492,-0.23673373460769653
1771680919665048300,9.50304833984375,-0.5050573348999023,0.166390061378479,0.19831609725952148
1771680919675384800,9.513384765625,0.8279542922973633,0.049684882164001465,-0.36009863018989563
1771680919685771800,9.523771728515625,-0.4966096878051758,-0.02735912799835205,-0.40346789360046387
1771680919696098600,9.5340986328125,0.4425220489501953,-0.74223792552948,0.019971996545791626
1771680919706465000,9.544465087890625,-0.11961174011230469,-0.13320410251617432,-0.2902742624282837
1771680919716812300,9.554812255859375,-0.5276689529418945,-0.03792929649353027,-0.2329997718334198
1771680919727188700,9.565188720703125,0.0797109603881836,-0.9479198455810547,-0.11826011538505554
1771680919737526300,9.5755263671875,-0.27631187438964844,-0.35700827836990356,-0.6642402410507202
1771680919747912200,9.585912109375,0.06058979034423828,-0.2621636986732483,-0.42105427384376526
1771680919758259000,9.596259033203125,0.7022485733032227,-0.701306164264679,-0.1376001536846161
1771680919768605400,9.60660546875,-1.1258430480957031,-0.6483760476112366,-0.235785111784935
1771680919778953700,9.61695361328125,0.8815746307373047,-0.8373949527740479,-0.07262066006660461
1771680919789329200,9.6273291015625,-0.7584371566772461,-0.06354725360870361,0.06471362709999084
1771680919799667700,9.637667724609376,-0.1507434844970703,-1.4985408782958984,0.15643388032913208
1771680919810052600,9.648052490234376,0.13808155059814453,-0.5666320323944092,-0.10363909602165222
1771680919820399400,9.6583994140625,-0.060868263244628906,-0.6820992231369019,-0.06054908037185669
1771680919830745900,9.668745849609374,0.20865535736083984,-1.237170696258545,0.19849947094917297
1771680919841122800,9.679122802734375,-0.5107316970825195,-0.6192432641983032,-0.4091002643108368
1771680919851452200,9.6894521484375,0.49743175506591797,-0.7514393329620361,-0.29365986585617065
1771680919861816000,9.699816162109375,-0.8074331283569336,-1.089895486831665,-0.44316819310188293
1771680919872166000,9.710165771484375,0.7146701812744141,-0.7602996826171875,-0.390170693397522
1771680919882539800,9.720539794921875,-0.17542171478271484,-0.3802192807197571,-0.20562396943569183
1771680919892879600,9.730879638671874,0.16356182098388672,-1.4458775520324707,0.009195983409881592
1771680919903263200,9.74126318359375,-0.22863197326660156,-0.08860659599304199,0.04330223798751831
1771680919913593600,9.751593505859375,0.6474895477294922,-0.956273078918457,-0.022741049528121948
1771680919923956500,9.76195654296875,0.4260110855102539,-0.9925687909126282,-0.023665815591812134
1771680919934307300,9.772307373046875,-0.3391733169555664,-0.9541620016098022,-0.2707497477531433
1771680919944664300,9.782664306640624,0.18178653717041016,-0.9356850981712341,-0.23387645184993744
1771680919955021000,9.79302099609375,-0.5135011672973633,-0.4803321957588196,-0.5089227557182312
1771680919965403600,9.803403564453125,-0.037468910217285156,-1.1139490604400635,-0.2871156930923462
1771680919975735000,9.813735107421875,-0.2691221237182617,-1.1383973360061646,-0.21540845930576324
1771680919986097000,9.824096923828124,-0.2758350372314453,-0.8014307618141174,-0.3927179276943207
1771680919996448800,9.83444873046875,0.3881702423095703,-0.6188108921051025,-0.4095698595046997
1771680920006820600,9.844820556640625,0.7784347534179688,-1.123549461364746,-0.32355692982673645
1771680920017162500,9.85516259765625,0.1724538803100586,-1.2509667873382568,-0.42885100841522217
1771680920027544000,9.8655439453125,0.6874313354492188,-1.105587124824524,-0.41376999020576477
1771680920037876200,9.875876220703125,-0.30735015869140625,-0.9419828653335571,-0.33296456933021545
1771680920048237300,9.8862373046875,-0.23273658752441406,-1.3797729015350342,-0.2465621680021286
1771680920058590200,9.896590087890624,-0.43277454376220703,-1.0769855976104736,-0.04737856984138489
1771680920068961000,9.9069609375,-0.040429115295410156,-1.1609340906143188,-0.29805153608322144
1771680920079304000,9.917303955078125,0.3294658660888672,-1.5765681266784668,-0.6673890352249146
1771680920089684500,9.9276845703125,0.44542503356933594,-1.3516671657562256,-0.8488946557044983
1771680920100031200,9.93803125,0.1409769058227539,-1.2673475742340088,-0.690129280090332
1771680920110377700,9.948377685546875,-0.4634571075439453,-1.4391250610351562,-0.16013062000274658
1771680920120754700,9.958754638671875,-0.40760231018066406,-1.5980929136276245,0.07332974672317505
1771680920131101400,9.969101318359375,0.14458751678466797,-1.1272318363189697,-0.3936392664909363
1771680920141448000,9.979447998046876,0.6667270660400391,-1.1552200317382812,-0.24887222051620483
1771680920151802000,9.989802001953125,-0.08458709716796875,-1.7667617797851562,-0.42391031980514526
1771680920162171600,10.000171630859375,-0.02249431610107422,-0.9987581968307495,-0.2478640377521515
1771680920172516000,10.01051611328125,-0.07510948181152344,-1.2429373264312744,0.09632822871208191
1771680920182895000,10.02089501953125,-0.21351337432861328,-1.0019699335098267,-0.2096896469593048
1771680920193229800,10.031229736328125,0.6771621704101562,-1.3078285455703735,-0.35392820835113525
1771680920203588400,10.04158837890625,0.4581899642944336,-1.3161087036132812,-0.2803414762020111
1771680920213943600,10.051943603515625,0.5858564376831055,-0.6215823292732239,-0.5634793043136597
1771680920224312000,10.06231201171875,0.05449962615966797,-1.6106139421463013,0.2357255518436432
1771680920234657500,10.072657470703126,0.037139892578125,-0.3201637864112854,-0.1737319380044937
1771680920245035500,10.083035400390624,0.49056434631347656,-1.4698081016540527,-0.10465814173221588
1771680920255371300,10.093371337890625,0.6946983337402344,0.07949578762054443,-0.2424100637435913
1771680920265728800,10.103728759765625,-0.5887336730957031,-1.603154182434082,-0.40608400106430054
1771680920276085000,10.1140849609375,0.5943918228149414,-0.09013104438781738,0.056209564208984375
1771680920286452500,10.124452392578124,-0.31876373291015625,-0.8135970830917358,-0.24632471799850464
1771680920296799000,10.134799072265626,0.30788707733154297,-0.8652034401893616,-0.04441019892692566
1771680920307176000,10.145176025390626,-0.09476089477539062,-0.7906934022903442,-0.17372237145900726
1771680920317512700,10.1555126953125,0.716404914855957,-0.4708501398563385,-0.02552095055580139
1771680920327899600,10.165899658203125,-0.12130451202392578,-0.7748042345046997,-0.23198610544204712
1771680920338246100,10.17624609375,0.48325347900390625,-0.8224719166755676,-0.049685269594192505
1771680920348593000,10.186593017578126,-0.8893556594848633,-0.45728158950805664,-0.0868690013885498
1771680920358940400,10.1969404296875,0.3044166564941406,-0.5613402128219604,0.1374465823173523
1771680920369316400,10.20731640625,-0.8064079284667969,-0.4590875506401062,-0.3100751042366028
1771680920379663000,10.2176630859375,-0.25406455993652344,-0.8469082117080688,-0.0738920271396637
1771680920390040000,10.2280400390625,0.16440963745117188,-0.49513426423072815,-0.12015503644943237
1771680920400386600,10.238386474609374,-0.5112228393554688,-0.465710312128067,-0.114966481924057
1771680920410733300,10.2487333984375,0.9515180587768555,-0.5926206111907959,-0.30286210775375366
1771680920421110300,10.2591103515625,-0.2924938201904297,-0.6961864829063416,-0.033130943775177
1771680920431438600,10.2694384765625,0.686614990234375,-0.3911491632461548,-0.2625458538532257
1771680920441795600,10.279795654296874,-0.41181468963623047,-0.6532525420188904,-0.04998689889907837
1771680920452152300,10.29015234375,0.1927776336669922,-0.33698970079421997,-0.06914474070072174
1771680920462527000,10.30052685546875,-0.48801612854003906,-0.4329391419887543,-0.1302027851343155
1771680920472866300,10.3108662109375,-0.20693492889404297,-0.3008577227592468,0.16778314113616943
1771680920483250700,10.321250732421875,-0.16347503662109375,-0.6135128140449524,0.15764078497886658
1771680920493580000,10.331580078125,-0.10194206237792969,-0.05507087707519531,0.051990807056427
1771680920503944000,10.34194384765625,0.36090087890625,-0.6794441938400269,0.02706843614578247
1771680920514293800,10.352293701171876,0.7219581604003906,-0.5818748474121094,-0.26347172260284424
1771680920524667400,10.36266748046875,-0.045368194580078125,-0.20229309797286987,-0.3826981484889984
1771680920535007700,10.3730078125,0.4636516571044922,-0.8232607245445251,-0.09273757040500641
1771680920545391000,10.38339111328125,-1.026388168334961,-0.23066771030426025,-0.15383639931678772
1771680920555721500,10.393721435546874,0.5930986404418945,-0.5844840407371521,-0.09094206988811493
1771680920566084400,10.40408447265625,-0.2897071838378906,-0.13216018676757812,-0.017753899097442627
1771680920576435200,10.414435302734375,0.04454803466796875,-0.9510254859924316,-0.11706241965293884
1771680920586807800,10.424807861328125,-0.05265045166015625,-0.14466583728790283,0.1034376323223114
1771680920597149000,10.43514892578125,-0.002391815185546875,-0.7391315698623657,0.08902254700660706
1771680920607531500,10.445531494140624,0.47296810150146484,-0.7676346898078918,0.025172263383865356
1771680920617863000,10.45586279296875,0.3309946060180664,0.068844735622406,-0.1906377375125885
1771680920628224800,10.466224853515625,0.3961029052734375,-0.46984562277793884,0.5009593963623047
1771680920638576600,10.47657666015625,0.06482219696044922,-0.07157886028289795,-0.07726958394050598
1771680920648948200,10.4869482421875,0.4638195037841797,-0.8954787254333496,-0.020681917667388916
1771680920659295000,10.497294921875,-0.6003608703613281,0.4696357846260071,-0.3848297595977783
1771680920669672000,10.507671875,0.1367473602294922,-1.0070645809173584,-0.06770575046539307
1771680920680018400,10.518018310546875,-1.0546112060546875,1.0926387310028076,0.08185774087905884
1771680920690361000,10.528361083984375,-0.05667304992675781,-1.6752831935882568,-0.14984045922756195
1771680920700742100,10.5387421875,0.5067787170410156,0.5852012634277344,0.14267748594284058
1771680920711088600,10.549088623046876,0.1211843490600586,-0.9705740809440613,-0.40241739153862
1771680920721435400,10.559435302734375,0.3930015563964844,-0.09143286943435669,-0.3290092349052429
1771680920731788800,10.569788818359376,-0.3336315155029297,0.018359065055847168,-0.15730483829975128
1771680920742158800,10.580158935546875,0.10637092590332031,-0.527153730392456,0.03733855485916138
1771680920752502500,10.59050244140625,-1.7676258087158203,-0.11577993631362915,-0.09884285926818848
1771680920762882600,10.600882568359374,0.7142667770385742,-0.49238067865371704,0.3661313056945801
1771680920773216500,10.611216552734374,-0.7245025634765625,0.33616286516189575,0.004875302314758301
1771680920783575800,10.621575927734375,0.2152090072631836,-1.0997110605239868,-0.2720664441585541
1771680920793930200,10.63193017578125,-0.01454925537109375,0.4670761823654175,-0.08872522413730621
1771680920804299300,10.64229931640625,-0.3321495056152344,-0.8125537633895874,0.015172570943832397
1771680920814644000,10.65264404296875,1.069706916809082,0.019758403301239014,-0.049249738454818726
1771680920825023000,10.66302294921875,-1.5801448822021484,-0.554635763168335,0.13998591899871826
1771680920835358000,10.67335791015625,2.581650733947754,-0.6611865162849426,0.14190462231636047
1771680920845716200,10.68371630859375,-1.334547996520996,-0.5530571937561035,-0.2642279267311096
1771680920856071700,10.69407177734375,1.8408746719360352,-0.3129713535308838,-0.3343690037727356
1771680920866439700,10.704439697265625,-1.3836212158203125,-0.6768600940704346,0.13459861278533936
1771680920876785400,10.714785400390625,0.2404775619506836,-0.025811731815338135,0.44751057028770447
1771680920887163400,10.725163330078125,-0.35448646545410156,-0.24017906188964844,0.06495106220245361
1771680920897499100,10.7354990234375,0.6750993728637695,-0.47536933422088623,0.04075133800506592
1771680920907856600,10.745856689453126,0.36308956146240234,-0.6388689875602722,-0.29957956075668335
1771680920918233600,10.756233642578126,1.3336400985717773,-0.1266055703163147,-0.32531246542930603
1771680920928580000,10.766580078125,-0.2784299850463867,-0.3051726222038269,-0.5799883604049683
1771680920938926800,10.7769267578125,0.34291744232177734,-0.8705180287361145,-0.15038123726844788
1771680920949303800,10.7873037109375,-0.0039825439453125,0.026350557804107666,-0.14606867730617523
1771680920959640800,10.797640869140626,-0.07075786590576172,-0.7757468819618225,-0.08511801064014435
1771680920970027500,10.808027587890624,-0.056199073791503906,0.1782996654510498,-0.06728507578372955
1771680920980374000,10.8183740234375,-0.4785146713256836,-0.4112556278705597,-0.13308440148830414
1771680920990720500,10.828720458984375,-0.035719871520996094,-0.3026977479457855,0.3957458734512329
1771680921001097700,10.83909765625,-0.6490421295166016,-0.4066481292247772,0.1694994866847992
1771680921011425300,10.84942529296875,0.04239177703857422,-0.37165817618370056,0.0862351655960083
1771680921021790700,10.859790771484375,0.6676425933837891,0.030312180519104004,0.05707553029060364
1771680921032139000,10.870138916015625,-0.06915664672851562,-0.8359517455101013,0.36618220806121826
1771680921042514400,10.880514404296875,-0.021228790283203125,-0.3596465587615967,0.2852016091346741
1771680921052852700,10.890852783203124,0.382232666015625,-0.14646589756011963,0.34577760100364685
1771680921063238100,10.901238037109374,-0.3992185592651367,-0.4667692184448242,0.42068901658058167
1771680921073566700,10.911566650390625,-0.016307830810546875,-0.282024621963501,0.257185161113739
1771680921083931100,10.92193115234375,0.32503223419189453,-0.059677839279174805,0.07887744903564453
1771680921094280400,10.932280517578125,-0.7928466796875,-0.3550841212272644,-0.17202292382717133
1771680921104654800,10.94265478515625,0.09704875946044922,-0.5998144149780273,0.08302819728851318
1771680921114994200,10.952994140625,-0.37819957733154297,0.20149868726730347,0.46507444977760315
1771680921125378600,10.963378662109376,0.19557857513427734,-0.738884687423706,0.34845560789108276
1771680921135708200,10.973708251953125,-0.5042638778686523,0.2961241602897644,0.3437993824481964
1771680921146071600,10.984071533203124,0.5256996154785156,-0.6272318363189697,0.2913159132003784
1771680921156422000,10.994421875,0.2164926528930664,-0.6580269932746887,0.16901421546936035
1771680921166795300,11.004795166015626,-0.4667081832885742,-0.3261584937572479,0.2033376395702362
1771680921177135600,11.015135498046876,0.6514778137207031,0.10338443517684937,0.16970351338386536
1771680921187519000,11.02551904296875,-1.3766231536865234,-0.3611575663089752,0.017917275428771973
1771680921197849600,11.035849609375,0.5386371612548828,-0.3317723572254181,-0.0354023277759552
1771680921208212000,11.0462119140625,-0.4055814743041992,0.1382085084915161,0.05006834864616394
1771680921218563300,11.056563232421874,0.1920452117919922,-0.7420498132705688,0.20647335052490234
1771680921228935700,11.066935791015625,-0.4219017028808594,0.08385086059570312,-0.18277287483215332
1771680921239277000,11.077277099609375,0.02065277099609375,-0.6666955351829529,0.005197048187255859
1771680921249659400,11.087659423828125,0.6077537536621094,-0.33599475026130676,0.12560078501701355
1771680921259991000,11.097990966796875,0.11932373046875,-0.48261386156082153,-0.217329740524292
1771680921270352400,11.108352294921875,0.6345920562744141,-0.1737898886203766,0.01505887508392334
1771680921280729600,11.1187294921875,0.03156566619873047,-0.5530861616134644,-0.21987712383270264
1771680921291076000,11.129076171875,-0.18089962005615234,0.368644118309021,-0.10173165798187256
1771680921301422600,11.139422607421874,0.25403690338134766,0.31920140981674194,0.15060874819755554
1771680921311775500,11.149775390625,-0.24539852142333984,0.2881634831428528,0.292820543050766
1771680921322146300,11.160146240234376,0.22792434692382812,0.03265422582626343,-0.022961199283599854
1771680921332489200,11.1704892578125,0.022190093994140625,0.9064491391181946,-0.24141505360603333
1771680921342870000,11.1808701171875,1.3756380081176758,-0.1291491985321045,-0.33690962195396423
1771680921353203000,11.191202880859375,0.479705810546875,-0.24194753170013428,-0.3254021108150482
1771680921363563000,11.20156298828125,0.7460479736328125,0.5528396964073181,-0.24155321717262268
1771680921373917000,11.2119169921875,-0.5039558410644531,-0.084011971950531,0.11768907308578491
1771680921384286700,11.22228662109375,-0.7125310897827148,-0.2708561420440674,-0.08984747529029846
1771680921394630700,11.232630615234376,-1.1068029403686523,0.4530911445617676,-0.06595709919929504
1771680921405010400,11.243010498046875,-0.15635395050048828,-0.019647717475891113,-0.023224562406539917
1771680921415344600,11.2533447265625,-0.8981914520263672,-0.5410717725753784,0.04596436023712158
1771680921425703400,11.263703369140625,-0.07959651947021484,-0.17744290828704834,-0.004731208086013794
1771680921436058400,11.274058349609374,0.12110042572021484,-0.08143222332000732,-0.014586478471755981
1771680921446415400,11.284415283203124,0.16377830505371094,-0.34128791093826294,0.04491382837295532
1771680921456772000,11.294772216796876,-0.41307640075683594,-0.392171710729599,0.21872615814208984
1771680921467150800,11.30515087890625,-0.21327972412109375,-0.5760806798934937,0.3898318409919739
1771680921477485800,11.31548583984375,-0.09682273864746094,-0.23258891701698303,0.3403705358505249
1771680921487843800,11.32584375,-0.1611461639404297,-0.06597340106964111,-0.42200082540512085
1771680921498221000,11.336220947265625,0.3732452392578125,0.18560457229614258,-0.4905511140823364
1771680921508567600,11.346567626953124,-0.06364917755126953,-0.21673107147216797,-0.5117861032485962
1771680921518913500,11.35691357421875,0.014985084533691406,0.20502686500549316,0.010826975107192993
1771680921529291300,11.367291259765626,-0.30301475524902344,-0.0915634036064148,0.5391287803649902
1771680921539627300,11.377627197265625,-0.13338279724121094,-0.2765390872955322,0.380001425743103
1771680921549984300,11.387984375,0.473419189453125,-0.7766802310943604,-0.04808053374290466
1771680921560361500,11.398361572265625,-0.11504840850830078,-0.9710109829902649,-0.3102523982524872
1771680921570708000,11.4087080078125,0.5796871185302734,-0.6614172458648682,-0.3183438181877136
1771680921581085200,11.419085205078124,-0.19044208526611328,-1.10884690284729,0.46269693970680237
1771680921591412000,11.429411865234375,-0.11133670806884766,-0.4768158793449402,0.2815733850002289
1771680921601778200,11.439778076171875,0.2921762466430664,-0.20125490427017212,0.56742924451828
1771680921612125700,11.450125732421874,-0.8735265731811523,-1.1439861059188843,0.09836706519126892
1771680921622502000,11.460501953125,0.3314704895019531,-0.2700454592704773,0.060570985078811646
1771680921632839400,11.47083935546875,-0.533595085144043,-0.4456880986690521,-0.06237158179283142
1771680921643225600,11.4812255859375,0.10485076904296875,-0.9909003973007202,0.14840534329414368
1771680921653553400,11.491553466796875,0.040009498596191406,-0.592332661151886,-0.21946224570274353
1771680921663918600,11.501918701171874,0.5935087203979492,-0.3404128849506378,-0.27078568935394287
1771680921684642300,11.522642333984376,-0.22634601593017578,-0.805756151676178,0.26318657398223877
1771680921694980900,11.53298095703125,1.1681175231933594,0.25439631938934326,-0.1059485673904419
1771680921705366000,11.543365966796875,-0.4149656295776367,-0.5052365064620972,0.2477145791053772
1771680921715694800,11.55369482421875,-0.07021808624267578,-0.6449615359306335,-0.306499183177948
1771680921726059000,11.56405908203125,0.03497314453125,0.11286485195159912,-0.41933804750442505
1771680921736408600,11.57440869140625,0.48601722717285156,-0.6583454608917236,-0.015569239854812622
1771680921746782700,11.58478271484375,-0.08085250854492188,-0.14488500356674194,0.08644044399261475
1771680921757122300,11.595122314453125,0.1270275115966797,-0.24933978915214539,0.1685565710067749
1771680921767506400,11.60550634765625,1.0910272598266602,-0.014274239540100098,-0.13246063888072968
1771680921777836300,11.615836181640624,-1.0359477996826172,-0.8477202653884888,-0.2113671600818634
1771680921788199400,11.626199462890625,0.5754251480102539,-0.2962135672569275,-0.0941857248544693
1771680921798550000,11.636550048828125,-0.19931888580322266,0.26220208406448364,-0.2532905638217926
1771680921808923100,11.646923095703125,-0.8122043609619141,-0.667846143245697,0.12749511003494263
1771680921819263700,11.657263671875,-0.44730567932128906,-0.4411966800689697,-0.1867022067308426
1771680921829646800,11.667646728515624,0.5945606231689453,1.0052942037582397,-0.017684578895568848
1771680921839977700,11.677977783203126,0.46663951873779297,1.2819640636444092,0.17116865515708923
1771680921850339800,11.68833984375,-0.3578624725341797,0.584722638130188,-0.04227735102176666
1771680921860717000,11.698717041015625,0.8151359558105469,1.2734811305999756,-0.2728680372238159
1771680921871063600,11.7090634765625,0.049523353576660156,2.0334389209747314,-0.667161226272583
1771680921881410000,11.71941015625,0.07114887237548828,-1.077218770980835,-0.37771186232566833
1771680921891762200,11.72976220703125,1.2075233459472656,1.8860619068145752,-0.4091082513332367
1771680921902133800,11.7401337890625,1.1571683883666992,2.2712345123291016,-0.19598370790481567
1771680921912476000,11.750475830078125,-0.4492034912109375,0.8929130434989929,0.25278240442276
1771680921922857500,11.760857421875,0.5071802139282227,2.1432130336761475,0.2129065990447998
1771680921933190000,11.77118994140625,0.2175741195678711,2.2308521270751953,0.5490514039993286
1771680921943546600,11.781546630859374,-1.1931390762329102,0.09911805391311646,-0.4432322680950165
1771680921953903600,11.791903564453126,-0.9438228607177734,-1.0154472589492798,-0.6174305081367493
1771680921964274200,11.802274169921875,0.7369060516357422,2.394439935684204,-0.09166401624679565
1771680921974617300,11.812617431640625,-0.7922382354736328,0.8592591285705566,-0.12005659937858582
1771680921984998000,11.822997802734376,-0.5799121856689453,-0.8513562679290771,0.20222753286361694
1771680921995331300,11.833331298828124,-0.29658031463623047,0.14906412363052368,0.39705243706703186
1771680922005691000,11.84369091796875,-0.2742023468017578,1.5973107814788818,0.14878779649734497
1771680922016045000,11.854045166015625,-0.4810962677001953,0.16936719417572021,0.008416295051574707
1771680922026414600,11.86441455078125,-1.095621109008789,-0.3670431673526764,0.11883217096328735
1771680922036758800,11.8747587890625,-0.8971595764160156,0.70572429895401,0.09896707534790039
1771680922047138300,11.88513818359375,0.08361339569091797,0.6287301778793335,0.5280805230140686
1771680922057472500,11.895472412109376,-1.000356674194336,-0.015280485153198242,0.1207413375377655
1771680922067831300,11.905831298828126,0.520050048828125,-0.08495944738388062,0.08186951279640198
1771680922078208500,11.91620849609375,-0.11390972137451172,1.6861604452133179,-0.5012120008468628
1771680922088555000,11.926554931640625,0.42322635650634766,0.0997765064239502,-0.2637311816215515
1771680922098900200,11.936900146484374,-0.2701253890991211,0.28985273838043213,-0.3709922432899475
1771680922109278700,11.94727880859375,0.7089948654174805,1.0430060625076294,-0.18567907810211182
1771680922119614200,11.9576142578125,0.1294698715209961,0.17372971773147583,-0.16187158226966858
1771680922129971700,11.9679716796875,-0.13831424713134766,-0.06888771057128906,0.09074035286903381
1771680922140349000,11.978348876953126,0.6471967697143555,1.3434317111968994,0.0021144449710845947
1771680922150695400,11.9886953125,0.10839080810546875,0.42993587255477905,0.5427759885787964
1771680922161042000,11.9990419921875,-0.4290199279785156,-0.6608468890190125,0.2654094099998474
1771680922171398700,12.009398681640626,0.8394002914428711,1.0602214336395264,-0.06219060719013214
1771680922181765600,12.019765625,0.35503196716308594,0.9659311771392822,0.2396523356437683
1771680922192112400,12.0301123046875,-0.08746337890625,-1.3559132814407349,0.009976685047149658
1771680922202489300,12.0404892578125,0.12275409698486328,0.6693374514579773,-0.1561308354139328
1771680922212826000,12.050826171875,1.4494647979736328,1.3083524703979492,0.0946856141090393
1771680922223212800,12.061212890625,-1.124873161315918,-0.9144075512886047,-0.13697503507137299
1771680922233540000,12.0715400390625,0.32198238372802734,0.17165923118591309,-0.299466073513031
1771680922243906000,12.081906005859375,0.12537288665771484,1.3749761581420898,-0.2379571944475174
1771680922254253800,12.09225390625,-0.328521728515625,-0.3243567943572998,0.3163565993309021
1771680922264629800,12.102629638671875,-0.21794795989990234,-0.11353230476379395,-0.160160094499588
1771680922274967800,12.1129677734375,0.6871547698974609,1.2551867961883545,-0.20030590891838074
1771680922285353200,12.123353271484374,-0.3099546432495117,0.481934130191803,0.29739150404930115
1771680922295681500,12.133681640625,-0.4667510986328125,-0.6720882654190063,0.2384425699710846
1771680922306046500,12.14404638671875,-0.131439208984375,1.1292846202850342,0.18094289302825928
1771680922316395300,12.154395263671875,-0.023787498474121094,0.5138009786605835,0.49197646975517273
1771680922326770200,12.164770263671874,-0.8997173309326172,-0.554765522480011,0.1439080834388733
1771680922337109000,12.17510888671875,-0.34137821197509766,0.9411036372184753,-0.11579029262065887
1771680922347493600,12.18549365234375,0.6666555404663086,1.2567698955535889,0.44397926330566406
1771680922357823000,12.195822998046875,-1.2660636901855469,-1.1735904216766357,0.24077585339546204
1771680922368187000,12.206186767578124,-0.1148519515991211,0.3924219012260437,-0.24975313246250153
1771680922378563800,12.216563720703125,0.2743682861328125,1.9724150896072388,-0.275458961725235
1771680922388910600,12.22691064453125,-0.4496307373046875,-0.6454005241394043,-0.09140326082706451
1771680922399250400,12.23725048828125,-0.7445306777954102,-0.698971688747406,-0.22420726716518402
1771680922409634000,12.247634033203125,0.8301792144775391,1.7262458801269531,0.1662113517522812
1771680922419964400,12.25796435546875,0.10716915130615234,0.08268475532531738,0.10657936334609985
1771680922430327300,12.268327392578126,-0.7165737152099609,-0.5882084369659424,-0.03867007791996002
1771680922440678100,12.27867822265625,0.1492023468017578,1.6670069694519043,-0.05728086829185486
1771680922451051000,12.289051025390625,0.3205986022949219,0.5565974712371826,0.6706176996231079
1771680922461397500,12.2993974609375,-0.8092021942138672,-0.8483800888061523,0.1881401538848877
1771680922471748900,12.309748779296875,0.3098325729370117,1.1498188972473145,-0.12815174460411072
1771680922482121200,12.320121337890624,0.5333700180053711,0.5606446862220764,-0.3072800636291504
1771680922492462600,12.330462646484374,-0.23177814483642578,-1.0136876106262207,-0.3006998300552368
1771680922502844700,12.3408447265625,1.1221551895141602,1.215956211090088,-0.45862796902656555
1771680922513176600,12.351176513671875,0.23854446411132812,0.5040850043296814,0.010288968682289124
1771680922523538000,12.361537841796874,-0.1463155746459961,-0.9272603988647461,-0.16835859417915344
1771680922533890300,12.371890380859375,0.0020551681518554688,0.9955931901931763,-0.01823866367340088
1771680922544261600,12.38226171875,1.1572904586791992,1.6395635604858398,0.3596484661102295
1771680922554604000,12.39260400390625,-0.7431602478027344,-0.9448988437652588,0.207397922873497
1771680922564985000,12.402985107421875,0.30661487579345703,0.18468278646469116,0.043496787548065186
1771680922575318000,12.413318115234375,0.5158815383911133,1.9392220973968506,-0.6551840901374817
1771680922585678300,12.42367822265625,0.5766935348510742,-0.4941691756248474,0.29557132720947266
1771680922596031700,12.43403173828125,-1.2004756927490234,-0.17881262302398682,-0.5387405157089233
1771680922606402000,12.444402099609375,1.545074462890625,1.5394049882888794,-0.18709908425807953
1771680922616745500,12.454745361328126,-0.6450843811035156,-0.02348548173904419,-0.6385236978530884
1771680922627125500,12.46512548828125,0.17533588409423828,-0.010471880435943604,-0.48741933703422546
1771680922637459500,12.47545947265625,0.4613924026489258,1.6288865804672241,-0.3065962791442871
1771680922647818800,12.48581884765625,-0.4467144012451172,-0.2686882019042969,0.25777608156204224
1771680922658173200,12.496173095703124,-0.22589683532714844,-0.1503453254699707,-0.12187816947698593
1771680922668542500,12.50654248046875,0.1685504913330078,1.818864345550537,-0.37825098633766174
1771680922678889000,12.516888916015626,0.04644584655761719,-0.07183891534805298,0.6416926383972168
1771680922689266000,12.527265869140624,0.32808685302734375,-0.04225122928619385,0.28013867139816284
1771680922699612700,12.53761279296875,0.34163475036621094,1.3581721782684326,0.5113363265991211
1771680922709959200,12.547959228515625,-0.06732463836669922,-0.006416201591491699,0.5199125409126282
1771680922720336100,12.558336181640625,-0.07423019409179688,0.5217207670211792,0.3247637152671814
1771680922730683000,12.568682861328124,0.13363265991210938,1.0810625553131104,-0.2728152573108673
1771680922741029400,12.579029296875,-0.4634256362915039,-0.22994667291641235,0.18529406189918518
1771680922751385300,12.58938525390625,-0.16150188446044922,0.35477912425994873,-0.2915073335170746
1771680922761753000,12.599753173828125,0.1372051239013672,1.5069246292114258,-0.4658273458480835
1771680922772099000,12.61009912109375,-0.672327995300293,-0.2575780153274536,0.19624373316764832
1771680922782476500,12.6204765625,-0.30545902252197266,-0.3294009268283844,0.3225986063480377
1771680922792813000,12.63081298828125,0.9221267700195312,1.8150590658187866,0.04235073924064636
1771680922803200300,12.6412001953125,-0.34046077728271484,-0.323555588722229,0.1708022803068161
1771680922813526800,12.65152685546875,-0.05550670623779297,0.2803223729133606,0.2655431628227234
1771680922823893500,12.6618935546875,-0.16993999481201172,1.5087785720825195,0.03376248478889465
1771680922834240500,12.672240478515626,-0.680302619934082,-0.11057823896408081,0.7441232800483704
1771680922844617000,12.682616943359376,-0.342010498046875,0.4424343705177307,0.20414979755878448
1771680922854954500,12.69295458984375,0.1600799560546875,1.396234393119812,-0.3029165267944336
1771680922865340700,12.703340576171875,-0.26277923583984375,-0.5644817352294922,-0.04719117283821106
1771680922875668200,12.713668212890624,0.20578861236572266,0.26360028982162476,-0.14124563336372375
1771680922886034000,12.724033935546874,0.973876953125,1.3106305599212646,-0.5741674304008484
1771680922896382000,12.7343818359375,0.1265697479248047,-0.6586388349533081,-0.08328877389431
1771680922906757400,12.74475732421875,-0.11227989196777344,0.2052321434020996,-0.2625613808631897
1771680922917096000,12.755095947265625,0.9144420623779297,1.6997706890106201,0.025301560759544373
1771680922927481000,12.765481201171875,-0.6248903274536133,-0.2508261203765869,0.5863251686096191
1771680922937809700,12.7758095703125,-0.6661624908447266,0.11072206497192383,0.02960599958896637
1771680922948174300,12.78617431640625,-0.13692760467529297,1.3055508136749268,0.4008944034576416
1771680922958523400,12.7965234375,-0.5590057373046875,-0.03259819746017456,0.36411052942276
1771680922968897800,12.806897705078125,0.02724170684814453,0.3961561322212219,-0.054398685693740845
1771680922979237400,12.8172373046875,0.15847015380859375,0.483706533908844,-0.3804619312286377
1771680922989621500,12.82762158203125,-0.21183395385742188,-0.520988941192627,-0.3067145347595215
1771680922999951000,12.837951171875,0.40694332122802734,1.0316236019134521,-0.4057356119155884
1771680923010314800,12.848314697265625,-0.15260028839111328,0.47949719429016113,0.05340707302093506
1771680923020664800,12.858664794921875,-0.7154722213745117,-0.9181979894638062,0.011558711528778076
1771680923031038200,12.8690380859375,-0.011911392211914062,1.0903632640838623,0.03492334485054016
1771680923041385000,12.879385009765626,0.3580760955810547,1.1431479454040527,-0.31803759932518005
1771680923051735600,12.889735595703126,-0.9770526885986328,-0.8769162893295288,0.5045195817947388
1771680923062108400,12.9001083984375,0.3191194534301758,1.129643440246582,0.5431647300720215
1771680923072449500,12.910449462890625,-0.10418701171875,0.9866536855697632,0.2356482297182083
1771680923082832100,12.92083203125,0.47612762451171875,-0.39134421944618225,0.1302652806043625
1771680923093163300,12.931163330078125,0.1694622039794922,1.1082954406738281,-0.1596296727657318
1771680923103525400,12.941525390625,0.1905231475830078,0.46093249320983887,0.12520159780979156
1771680923113877000,12.951876953125,0.0612030029296875,-0.12324410676956177,-0.29256048798561096
1771680923124248800,12.962248779296875,0.1780252456665039,1.146230936050415,-0.5220603942871094
1771680923134591000,12.972591064453125,-0.2019491195678711,0.18422740697860718,-0.23230484127998352
1771680923144972500,12.98297265625,-0.2300558090209961,0.020590603351593018,0.2736503779888153
1771680923155304700,12.9933046875,-0.055243492126464844,0.8844515681266785,0.10168223083019257
