time,seconds_elapsed,z,y,x
1771680910354205700,0.192205810546875,-0.0012216945178806782,0.0032069480512291193,0.0009926267666742206
1771680910364562400,0.2025625,0.0006108472589403391,-0.0029015245381742716,-0.00022906772210262716
1771680910374919400,0.21291943359375,0.0012216945178806782,-0.009009997360408306,-0.0014507622690871358
1771680910395633200,0.233633056640625,0,-0.0004581354442052543,0.00038177953683771193
1771680910416346600,0.2543466796875,-0.0024433890357613564,0.0068720318377017975,-0.0008399150101467967
1771680910426703600,0.26470361328125,-0.0012216945178806782,0.009315420873463154,-0.0014507622690871358
1771680910437060400,0.275060302734375,0.0006108472589403391,-0.0004581354442052543,-0.002672456670552492
1771680910447417300,0.285417236328125,0.0018325417768210173,-0.0065666078589856625,-0.00022906772210262716
1771680910457774000,0.295774169921875,0.0012216945178806782,-0.008399149402976036,0.0009926267666742206
1771680910468130800,0.306130859375,0,-0.0029015245381742716,0.0022143214009702206
1771680910478487800,0.31648779296875,-0.0012216945178806782,0.0050394898280501366,0.004046862944960594
1771680910488844500,0.326844482421875,-0.0018325417768210173,0.006261184345930815,0.0028251686599105597
1771680910509558300,0.347558349609375,0,-0.005955760832875967,-0.0008399150101467967
1771680910519915000,0.3579150390625,0.0018325417768210173,-0.009009997360408306,0.0016034740256145597
1771680910530271700,0.368271728515625,0.0006108472589403391,-0.005955760832875967,0.0009926267666742206
1771680910540628700,0.378628662109375,0,-0.0035123717971146107,0.0016034740256145597
1771680910550985500,0.3889853515625,-0.0006108472589403391,0.0050394898280501366,0.005879404954612255
1771680910561342200,0.39934228515625,-0.0012216945178806782,0.0007635590736754239,0.0009926267666742206
1771680910571699200,0.40969921875,0,0.005650337319821119,0.0034360159188508987
1771680910582056000,0.420055908203125,0.0018325417768210173,-0.007788302376866341,-0.0014507622690871358
1771680910592413000,0.430412841796875,0.0024433890357613564,-0.005955760832875967,0.0016034740256145597
1771680910602769700,0.440769775390625,0.0012216945178806782,-0.009009997360408306,0.00038177953683771193
1771680910613126400,0.45112646484375,0,0.0007635590736754239,0.0034360159188508987
1771680910623483400,0.4614833984375,-0.0018325417768210173,0.0032069480512291193,0.0034360159188508987
1771680910633840000,0.471840087890625,-0.0018325417768210173,0.009315420873463154,0.004046862944960594
1771680910644196900,0.48219677734375,-0.0006108472589403391,0.001985253533348441,0.0009926267666742206
1771680910654553900,0.492553955078125,0.0012216945178806782,-0.005344913341104984,0.0016034740256145597
1771680910664910600,0.50291064453125,0.0012216945178806782,-0.005344913341104984,-0.0008399150101467967
1771680910675267600,0.513267578125,0,-0.004123218823224306,0.00038177953683771193
1771680910685624300,0.523624267578125,-0.0012216945178806782,0.0050394898280501366,0.0016034740256145597
1771680910695981000,0.53398095703125,-0.0024433890357613564,0.0038177953101694584,0.0022143214009702206
1771680910706338000,0.544338134765625,-0.0024433890357613564,0.007482878863811493,0.0022143214009702206
1771680910716694800,0.55469482421875,-0.0006108472589403391,0.001374406274408102,0.0009926267666742206
1771680910727051500,0.565051513671875,0.0012216945178806782,-0.0022906772792339325,-0.00022906772210262716
1771680910737408500,0.575408447265625,0.0012216945178806782,-0.007177455350756645,-0.0014507622690871358
1771680910747765200,0.58576513671875,0,-0.0010689827613532543,0.00038177953683771193
1771680910758122200,0.596122314453125,-0.0006108472589403391,0.00259610079228878,0.00038177953683771193
1771680910768479000,0.60647900390625,-0.0018325417768210173,0.009315420873463154,0.0028251686599105597
1771680910778835700,0.616835693359375,0,0.005650337319821119,0.0009926267666742206
1771680910789192700,0.627192626953125,0.0006108472589403391,0.001374406274408102,0.0016034740256145597
1771680910799549400,0.637549560546875,0.0024433890357613564,-0.008399149402976036,-0.002672456670552492
1771680910809906200,0.64790625,0.0030542362947016954,-0.005344913341104984,-0.0008399150101467967
1771680910820263200,0.65826318359375,0.0018325417768210173,-0.0029015245381742716,-0.0014507622690871358
1771680910830620000,0.668619873046875,0.0006108472589403391,0.007482878863811493,0.0022143214009702206
1771680910840976600,0.6789765625,-0.0006108472589403391,0.005650337319821119,0.00038177953683771193
1771680910851333600,0.689333740234375,0,0.00992626789957285,0.0028251686599105597
1771680910861690400,0.6996904296875,0.0012216945178806782,0.0032069480512291193,-0.0008399150101467967
1771680910872047400,0.71004736328125,0.0018325417768210173,-0.0022906772792339325,-0.002672456670552492
1771680910882404000,0.720404052734375,0.0012216945178806782,-0.004734066314995289,-0.0014507622690871358
1771680910892760800,0.7307607421875,0,-0.0022906772792339325,-0.0014507622690871358
1771680910903117800,0.741117919921875,-0.0006108472589403391,0.0032069480512291193,0.0009926267666742206
1771680910913474600,0.751474609375,-0.0012216945178806782,0.005650337319821119,0.0016034740256145597
1771680910923831600,0.76183154296875,-0.0006108472589403391,0.001985253533348441,0.0022143214009702206
1771680910934188300,0.772188232421875,0.0006108472589403391,-0.004734066314995289,0.0009926267666742206
1771680910944545000,0.782544921875,0.0012216945178806782,-0.007788302376866341,-0.0008399150101467967
1771680910954902000,0.792902099609375,0.0006108472589403391,-0.005344913341104984,-0.0014507622690871358
1771680910965258800,0.8032587890625,-0.0006108472589403391,0.00015271181473508477,-0.00022906772210262716
1771680910975615500,0.813615478515625,0,0.005650337319821119,0.0028251686599105597
1771680910985972500,0.823972412109375,-0.0018325417768210173,0.0068720318377017975,0.0016034740256145597
1771680910996329200,0.8343291015625,0,0.001374406274408102,0.0009926267666742206
1771680911006686000,0.84468603515625,0.0006108472589403391,0.001985253533348441,0.00038177953683771193
1771680911017043000,0.85504296875,0.0018325417768210173,-0.011453386396169662,-0.004504998680204153
1771680911027399700,0.865399658203125,0.0018325417768210173,-0.0029015245381742716,0.0016034740256145597
1771680911037756400,0.87575634765625,0.0012216945178806782,-0.007177455350756645,-0.0038941511884331703
1771680911048113400,0.886113525390625,-0.0006108472589403391,0.009315420873463154,0.004046862944960594
1771680911058470100,0.89647021484375,-0.0012216945178806782,0.004428642801940441,-0.0014507622690871358
1771680911068827100,0.9068271484375,0,0.004428642801940441,0.0022143214009702206
1771680911079184000,0.917183837890625,0.0018325417768210173,-0.0065666078589856625,-0.0014507622690871358
1771680911089540600,0.92754052734375,0.0018325417768210173,-0.0065666078589856625,-0.0032833039294928312
1771680911099897600,0.937897705078125,0.0006108472589403391,-0.005955760832875967,-0.002672456670552492
1771680911110254300,0.94825439453125,-0.0006108472589403391,0.001374406274408102,-0.002061609411612153
1771680911120611300,0.958611328125,-0.0024433890357613564,0.0038177953101694584,0.00038177953683771193
1771680911130968000,0.968968017578125,-0.0012216945178806782,0.005650337319821119,0.0009926267666742206
1771680911141324800,0.97932470703125,0,0.001985253533348441,-0.00022906772210262716
1771680911151681800,0.989681884765625,0.0012216945178806782,-0.0029015245381742716,-0.0014507622690871358
1771680911162038500,1.00003857421875,0.0018325417768210173,-0.008399149402976036,-0.0032833039294928312
1771680911172395500,1.0103955078125,0.0006108472589403391,-0.005344913341104984,-0.0014507622690871358
1771680911182752300,1.020752197265625,-0.0006108472589403391,0.00015271181473508477,-0.0008399150101467967
1771680911193109000,1.03110888671875,-0.0012216945178806782,0.0050394898280501366,0.0009926267666742206
1771680911203466000,1.041466064453125,-0.0012216945178806782,0.004428642801940441,-0.0014507622690871358
1771680911213822700,1.05182275390625,0.0012216945178806782,-0.0004581354442052543,0.0022143214009702206
1771680911224179500,1.062179443359375,0.0024433890357613564,-0.007788302376866341,0.00038177953683771193
1771680911234536400,1.072536376953125,0.0024433890357613564,-0.004734066314995289,0.00038177953683771193
1771680911244893200,1.08289306640625,0.0012216945178806782,-0.005344913341104984,-0.002672456670552492
1771680911255250000,1.09325,0.0006108472589403391,0.005650337319821119,0.0022143214009702206
1771680911265607000,1.10360693359375,-0.0006108472589403391,0.0032069480512291193,0.0009926267666742206
1771680911275963600,1.113963623046875,-0.0006108472589403391,0.006261184345930815,0.0022143214009702206
1771680911286320600,1.124320556640625,0.0006108472589403391,0.0007635590736754239,0.0009926267666742206
1771680911296677400,1.134677490234375,0.0012216945178806782,-0.004734066314995289,-0.002061609411612153
1771680911307034000,1.1450341796875,0.0006108472589403391,-0.005955760832875967,-0.00022906772210262716
1771680911317391000,1.15539111328125,0.0006108472589403391,-0.0022906772792339325,-0.0008399150101467967
1771680911327747800,1.165747802734375,-0.0006108472589403391,0.0050394898280501366,0.0009926267666742206
1771680911338104600,1.1761044921875,-0.0006108472589403391,0.008704573847353458,0.0009926267666742206
1771680911348461600,1.186461669921875,0,0.005650337319821119,0.0009926267666742206
1771680911358818300,1.196818359375,0.0012216945178806782,-0.0004581354442052543,-0.0008399150101467967
1771680911369175300,1.20717529296875,0.0018325417768210173,-0.0004581354442052543,-0.005726693198084831
1771680911379532000,1.217531982421875,0.0018325417768210173,0.0007635590736754239,-0.010613471269607544
1771680911389888800,1.227888671875,0,0.007482878863811493,-0.004504998680204153
1771680911400245800,1.238245849609375,0,0.001985253533348441,-0.0014507622690871358
1771680911410602500,1.2486025390625,-0.0006108472589403391,0.0068720318377017975,0.0034360159188508987
1771680911420959200,1.258959228515625,0,0.00015271181473508477,0.0016034740256145597
1771680911431316200,1.269316162109375,0.0012216945178806782,-0.0004581354442052543,-0.00022906772210262716
1771680911441673000,1.2796728515625,0.0024433890357613564,-0.010231691412627697,-0.0008399150101467967
1771680911452030000,1.290030029296875,0.0018325417768210173,-0.007788302376866341,0.004046862944960594
1771680911462386700,1.30038671875,0.0006108472589403391,-0.0029015245381742716,0.0028251686599105597
1771680911472743400,1.310743408203125,-0.0012216945178806782,0.008704573847353458,0.0009926267666742206
1771680911483100400,1.321100341796875,-0.0006108472589403391,0.005650337319821119,0.0034360159188508987
1771680911493457200,1.33145703125,0.0006108472589403391,0.00259610079228878,0.0028251686599105597
1771680911503814000,1.34181396484375,0.0018325417768210173,-0.010231691412627697,0.0028251686599105597
1771680911514171000,1.3521708984375,0.0018325417768210173,-0.0065666078589856625,0.0034360159188508987
1771680911524527600,1.362527587890625,0.0006108472589403391,-0.009009997360408306,0.0016034740256145597
1771680911534884600,1.372884521484375,0,0.0032069480512291193,0.005268557462841272
1771680911545241300,1.383241455078125,-0.0012216945178806782,0.0007635590736754239,0.0022143214009702206
1771680911555598300,1.393598388671875,-0.0012216945178806782,0.0068720318377017975,0.004657710436731577
1771680911565955000,1.403955078125,0,0.00015271181473508477,0.00038177953683771193
1771680911576311800,1.414311767578125,0.0012216945178806782,-0.0029015245381742716,0.00038177953683771193
1771680911586668800,1.424668701171875,0.0018325417768210173,-0.007177455350756645,-0.002061609411612153
1771680911597025500,1.435025634765625,0.0006108472589403391,-0.004123218823224306,-0.00022906772210262716
1771680911607382300,1.44538232421875,0.0006108472589403391,0.001374406274408102,0.00038177953683771193
1771680911617739300,1.4557392578125,-0.0012216945178806782,0.006261184345930815,0.00038177953683771193
1771680911628096000,1.466095947265625,-0.0012216945178806782,0.006261184345930815,0.00038177953683771193
1771680911638452700,1.47645263671875,-0.0006108472589403391,-0.0004581354442052543,0.00038177953683771193
1771680911648809700,1.486809814453125,0.0006108472589403391,-0.0035123717971146107,-0.0014507622690871358
1771680911659166500,1.49716650390625,0,-0.007177455350756645,-0.002061609411612153
1771680911669523500,1.5075234375,-0.0006108472589403391,0.0007635590736754239,-0.0014507622690871358
1771680911679880200,1.517880126953125,-0.0012216945178806782,0.00259610079228878,-0.0008399150101467967
1771680911690237000,1.52823681640625,-0.0012216945178806782,0.007482878863811493,-0.00022906772210262716
1771680911700594000,1.538593994140625,-0.0012216945178806782,0.0038177953101694584,-0.0014507622690871358
1771680911710950700,1.54895068359375,0,0.00992626789957285,0.0009926267666742206
1771680911721307600,1.5593076171875,0.0030542362947016954,-0.012064233422279358,-0.006337540224194527
1771680911731664400,1.569664306640625,0.0012216945178806782,0.007482878863811493,0.0022143214009702206
1771680911742021000,1.580021240234375,0.0006108472589403391,-0.010231691412627697,-0.005726693198084831
1771680911752378000,1.590378173828125,-0.0012216945178806782,0.016645587980747223,0.005268557462841272
1771680911762734800,1.60073486328125,-0.0012216945178806782,0.00015271181473508477,-0.0014507622690871358
1771680911773091600,1.611091552734375,0.0006108472589403391,0.012980503961443901,0.0064902519807219505
1771680911783448600,1.621448486328125,0.0018325417768210173,-0.0065666078589856625,-0.0008399150101467967
1771680911793805300,1.631805419921875,0.0024433890357613564,0.00259610079228878,0.0028251686599105597
1771680911804162300,1.642162353515625,0.0018325417768210173,-0.0016798300202935934,-0.002061609411612153
1771680911814519000,1.65251904296875,0.0006108472589403391,0.005650337319821119,0.0028251686599105597
1771680911824875800,1.662875732421875,-0.0006108472589403391,0.007482878863811493,0.0028251686599105597
1771680911835232800,1.673232666015625,-0.0006108472589403391,0.001374406274408102,0.0009926267666742206
1771680911845589500,1.683589599609375,0.0006108472589403391,0.009315420873463154,0.004046862944960594
1771680911855946500,1.693946533203125,0.0018325417768210173,-0.007788302376866341,-0.0032833039294928312
1771680911866303200,1.70430322265625,0.0012216945178806782,0.00015271181473508477,0.0016034740256145597
1771680911876660000,1.714659912109375,0.0006108472589403391,-0.012064233422279358,-0.004504998680204153
1771680911887017000,1.725016845703125,0,0.0068720318377017975,0.0034360159188508987
1771680911897373700,1.735373779296875,-0.0018325417768210173,0.001374406274408102,-0.002061609411612153
1771680911907730400,1.74573046875,-0.0006108472589403391,0.008093725889921188,0.0028251686599105597
1771680911918087400,1.75608740234375,0.0006108472589403391,-0.0035123717971146107,-0.0014507622690871358
1771680911928444200,1.766444091796875,0.0018325417768210173,-0.0065666078589856625,-0.002061609411612153
1771680911938801200,1.77680126953125,0.0018325417768210173,-0.0035123717971146107,-0.0008399150101467967
1771680911949158000,1.787157958984375,0,-0.004734066314995289,-0.0038941511884331703
1771680911959515000,1.797514892578125,-0.0006108472589403391,0.0038177953101694584,0.0016034740256145597
1771680911969871600,1.80787158203125,-0.0006108472589403391,0.00259610079228878,-0.0008399150101467967
1771680911980228400,1.818228271484375,-0.0006108472589403391,0.0050394898280501366,0.0016034740256145597
1771680911990585300,1.82858544921875,0,-0.0016798300202935934,-0.0008399150101467967
1771680912000942000,1.838942138671875,0.0012216945178806782,-0.005344913341104984,-0.0008399150101467967
1771680912011298800,1.849298828125,0.0012216945178806782,-0.007788302376866341,-0.0008399150101467967
1771680912021655800,1.85965576171875,0.0006108472589403391,-0.0029015245381742716,0.00038177953683771193
1771680912032012500,1.870012451171875,-0.0006108472589403391,0.00259610079228878,0.0009926267666742206
1771680912042369500,1.88036962890625,-0.0012216945178806782,0.007482878863811493,0.0034360159188508987
1771680912052726300,1.890726318359375,-0.0006108472589403391,0.0038177953101694584,0.0028251686599105597
1771680912063083300,1.901083251953125,0.0012216945178806782,-0.0010689827613532543,0.0022143214009702206
1771680912073440000,1.91143994140625,0.0024433890357613564,-0.005955760832875967,0.00038177953683771193
1771680912083796700,1.921796630859375,0.0012216945178806782,-0.004734066314995289,0.0009926267666742206
1771680912094153700,1.93215380859375,-0.0006108472589403391,0.0007635590736754239,0.0009926267666742206
1771680912104510500,1.942510498046875,-0.0018325417768210173,0.0038177953101694584,0.0022143214009702206
1771680912114867200,1.9528671875,-0.0012216945178806782,0.006261184345930815,0.0016034740256145597
1771680912125224200,1.96322412109375,-0.0006108472589403391,0.0038177953101694584,0.0022143214009702206
1771680912135581000,1.973580810546875,0.0006108472589403391,0.00015271181473508477,-0.00022906772210262716
1771680912145938000,1.98393798828125,0.0012216945178806782,-0.005955760832875967,-0.0008399150101467967
1771680912156294700,1.994294677734375,0.0006108472589403391,-0.005955760832875967,-0.002061609411612153
1771680912166651600,2.004651611328125,0.0006108472589403391,0.00015271181473508477,0.00038177953683771193
1771680912177008400,2.01500830078125,-0.0012216945178806782,0.00259610079228878,-0.0014507622690871358
1771680912187365000,2.025365234375,-0.0012216945178806782,0.010537114925682545,0.0034360159188508987
1771680912197722000,2.03572216796875,-0.0006108472589403391,0.00015271181473508477,-0.002061609411612153
1771680912208078800,2.046078857421875,0.0018325417768210173,-0.0004581354442052543,0.00038177953683771193
1771680912218435600,2.056435546875,0.0018325417768210173,-0.007177455350756645,-0.004504998680204153
1771680912228792600,2.06679248046875,0.0006108472589403391,-0.0035123717971146107,-0.0014507622690871358
1771680912239149300,2.0771494140625,0.0006108472589403391,0.004428642801940441,-0.0008399150101467967
1771680912249506300,2.08750634765625,-0.0006108472589403391,0.0032069480512291193,-0.00022906772210262716
1771680912259863000,2.097863037109375,-0.0006108472589403391,0.008093725889921188,0.0016034740256145597
1771680912270220000,2.108219970703125,0.0012216945178806782,0.00015271181473508477,-0.0014507622690871358
1771680912280576800,2.11857666015625,0.0012216945178806782,-0.0010689827613532543,-0.0008399150101467967
1771680912290933500,2.12893359375,0.0012216945178806782,-0.010231691412627697,-0.0032833039294928312
1771680912301290500,2.13929052734375,0.0006108472589403391,-0.0004581354442052543,0.0022143214009702206
1771680912311647200,2.149647216796875,-0.0006108472589403391,-0.004123218823224306,-0.002061609411612153
1771680912322004000,2.16000390625,-0.0018325417768210173,0.012369656935334206,0.004657710436731577
1771680912332361000,2.17036083984375,-0.0012216945178806782,0.00015271181473508477,0.00038177953683771193
1771680912342717700,2.1807177734375,0,0.0038177953101694584,0.0034360159188508987
1771680912353074700,2.19107470703125,0.0018325417768210173,-0.007788302376866341,-0.00022906772210262716
1771680912363431400,2.201431396484375,0,-0.0035123717971146107,0.00038177953683771193
1771680912373788400,2.211788330078125,-0.0006108472589403391,-0.0004581354442052543,0.0016034740256145597
1771680912384145200,2.222145263671875,-0.0012216945178806782,0.00259610079228878,0.0009926267666742206
1771680912394502000,2.232501953125,-0.0006108472589403391,0.007482878863811493,0.004046862944960594
1771680912404859000,2.24285888671875,-0.0006108472589403391,0.0032069480512291193,0.0016034740256145597
1771680912415215600,2.253215576171875,0,0.0050394898280501366,0.0022143214009702206
1771680912425572600,2.263572509765625,0.0018325417768210173,-0.005955760832875967,-0.002672456670552492
1771680912435929300,2.273929443359375,0.0012216945178806782,-0.0004581354442052543,0.00038177953683771193
1771680912446286300,2.284286376953125,0.0006108472589403391,-0.0035123717971146107,-0.00022906772210262716
1771680912456643000,2.29464306640625,0.0006108472589403391,0.0068720318377017975,0.0009926267666742206
1771680912466999800,2.304999755859375,0,0.0068720318377017975,0.0009926267666742206
1771680912477356800,2.315356689453125,0,0.004428642801940441,0.00038177953683771193
1771680912487713500,2.325713623046875,0.0018325417768210173,-0.004123218823224306,-0.00022906772210262716
1771680912498070500,2.336070556640625,0.0024433890357613564,-0.0035123717971146107,-0.002061609411612153
1771680912508427300,2.34642724609375,0.0006108472589403391,-0.0016798300202935934,-0.0008399150101467967
1771680912518784000,2.356783935546875,0.0006108472589403391,0.0007635590736754239,-0.002061609411612153
1771680912529141000,2.36714111328125,-0.0006108472589403391,0.0068720318377017975,0.0022143214009702206
1771680912539497700,2.377497802734375,-0.0006108472589403391,0.0038177953101694584,-0.00022906772210262716
1771680912549854700,2.387854736328125,0,0.008093725889921188,0.0022143214009702206
1771680912560211500,2.39821142578125,0.0012216945178806782,-0.0010689827613532543,-0.0008399150101467967
1771680912570568200,2.408568115234375,0.0012216945178806782,-0.0035123717971146107,-0.0014507622690871358
1771680912580925200,2.41892529296875,0,-0.004123218823224306,-0.00022906772210262716
1771680912591282000,2.429281982421875,-0.0012216945178806782,0.001985253533348441,0.00038177953683771193
1771680912601639000,2.439638916015625,-0.0018325417768210173,0.007482878863811493,0.0022143214009702206
1771680912611995600,2.44999560546875,-0.0018325417768210173,0.005650337319821119,0.0016034740256145597
1771680912622352600,2.4603525390625,0,0.0032069480512291193,0.0022143214009702206
1771680912632709400,2.47070947265625,0.0006108472589403391,-0.008399149402976036,-0.0014507622690871358
1771680912643066000,2.481066162109375,0.0012216945178806782,-0.0029015245381742716,0.0016034740256145597
1771680912653423000,2.491423095703125,0,-0.007788302376866341,-0.002061609411612153
1771680912663779800,2.50177978515625,-0.0006108472589403391,0.0050394898280501366,0.0028251686599105597
1771680912674136800,2.51213671875,-0.0012216945178806782,0.0007635590736754239,0.00038177953683771193
1771680912684493600,2.52249365234375,-0.0012216945178806782,0.0068720318377017975,0.0016034740256145597
1771680912694850600,2.5328505859375,0,-0.0016798300202935934,0.00038177953683771193
1771680912705207300,2.543207275390625,0.0024433890357613564,-0.0022906772792339325,-0.00022906772210262716
1771680912715564000,2.55356396484375,0.0024433890357613564,-0.009009997360408306,-0.002061609411612153
1771680912725921000,2.563921142578125,0.0006108472589403391,-0.004123218823224306,-0.00022906772210262716
1771680912736277800,2.57427783203125,0,-0.0010689827613532543,-0.00022906772210262716
1771680912746634800,2.584634765625,0,0.004428642801940441,0.0022143214009702206
1771680912756991500,2.594991455078125,0.0006108472589403391,0.004428642801940441,0.0009926267666742206
1771680912767348500,2.605348388671875,0.0012216945178806782,-0.0035123717971146107,0.00038177953683771193
1771680912777705200,2.615705322265625,0.0030542362947016954,-0.008399149402976036,-0.0014507622690871358
1771680912788062000,2.62606201171875,0.0018325417768210173,-0.007177455350756645,-0.0014507622690871358
1771680912798419000,2.6364189453125,0.0012216945178806782,-0.004734066314995289,-0.0008399150101467967
1771680912808775700,2.646775634765625,0,0.0038177953101694584,0.007101099472492933
1771680912819132700,2.657132568359375,-0.0018325417768210173,0.00015271181473508477,0.004657710436731577
1771680912829489400,2.667489501953125,-0.0018325417768210173,0.008704573847353458,0.008933641016483307
1771680912839846400,2.677846435546875,-0.0006108472589403391,-0.0016798300202935934,0.0064902519807219505
1771680912850203100,2.688203125,0.0024433890357613564,-0.004734066314995289,0.010766183026134968
1771680912860560000,2.698559814453125,0.0036650835536420345,-0.011453386396169662,0.010766183026134968
1771680912870916900,2.708916748046875,0.0024433890357613564,-0.014507622458040714,0.005268557462841272
1771680912881273600,2.719273681640625,0,0.0032069480512291193,0.013209572061896324
1771680912891630600,2.729630615234375,-0.0024433890357613564,0.00992626789957285,0.013209572061896324
1771680912901987300,2.7399873046875,-0.0018325417768210173,0.009315420873463154,0.010766183026134968
1771680912912344300,2.75034423828125,-0.0018325417768210173,0.00259610079228878,0.009544488042593002
1771680912922701000,2.760701171875,0.0006108472589403391,-0.007177455350756645,0.005879404954612255
1771680912933058000,2.77105810546875,0.0006108472589403391,-0.0022906772792339325,0.010155336000025272
1771680912943414800,2.781414794921875,0.0012216945178806782,-0.004734066314995289,0.0034360159188508987
1771680912953771500,2.791771484375,0.0012216945178806782,0.0050394898280501366,0.011987877078354359
1771680912964128500,2.80212841796875,-0.0006108472589403391,0.004428642801940441,0.008933641016483307
1771680912974485200,2.8124853515625,-0.0012216945178806782,0.00992626789957285,0.011377030052244663
1771680912984842200,2.82284228515625,-0.0018325417768210173,0.008093725889921188,0.009544488042593002
1771680912995199000,2.833198974609375,-0.0006108472589403391,-0.0022906772792339325,0.0034360159188508987
1771680913005556000,2.843555908203125,0,-0.0029015245381742716,0.004657710436731577
1771680913015912700,2.85391259765625,0,-0.008399149402976036,-0.0008399150101467967
1771680913026269400,2.86426953125,-0.0012216945178806782,0.007482878863811493,0.0028251686599105597
1771680913036626400,2.87462646484375,-0.0018325417768210173,0.006261184345930815,0.0009926267666742206
1771680913046983200,2.884983154296875,-0.0012216945178806782,0.01175880990922451,0.0034360159188508987
1771680913057340200,2.895340087890625,-0.0006108472589403391,0.006261184345930815,0.0034360159188508987
1771680913067697000,2.90569677734375,0,-0.0035123717971146107,0.00038177953683771193
1771680913078054000,2.916053955078125,0.0006108472589403391,-0.0016798300202935934,0.0022143214009702206
1771680913088410600,2.92641064453125,-0.0006108472589403391,-0.0016798300202935934,0.0028251686599105597
1771680913098767400,2.936767333984375,-0.0006108472589403391,0.0032069480512291193,-0.00022906772210262716
1771680913109124400,2.947124267578125,0,0.008704573847353458,0.004046862944960594
1771680913119481000,2.957481201171875,-0.0012216945178806782,0.0007635590736754239,-0.002672456670552492
1771680913129838000,2.967838134765625,-0.0012216945178806782,0.006261184345930815,-0.00022906772210262716
1771680913140194800,2.97819482421875,-0.0006108472589403391,-0.0016798300202935934,-0.0032833039294928312
1771680913150551800,2.9885517578125,0,0.004428642801940441,-0.002672456670552492
1771680913160908500,2.998908447265625,0.0006108472589403391,-0.004734066314995289,-0.00022906772210262716
1771680913171265500,3.009265625,-0.0006108472589403391,-0.0029015245381742716,0.0022143214009702206
1771680913181622300,3.019622314453125,-0.0018325417768210173,-0.004123218823224306,0.0009926267666742206
1771680913191979300,3.029979248046875,-0.0030542362947016954,0.010537114925682545,0.0034360159188508987
1771680913202336000,3.0403359375,-0.0030542362947016954,0.011147962883114815,0.0009926267666742206
1771680913212692700,3.050692626953125,-0.0018325417768210173,0.011147962883114815,-0.0014507622690871358
1771680913223049700,3.0610498046875,0,0.00259610079228878,-0.0014507622690871358
1771680913233406500,3.071406494140625,0.0006108472589403391,-0.009009997360408306,-0.0038941511884331703
1771680913254120200,3.0921201171875,-0.0012216945178806782,0.0038177953101694584,0.0016034740256145597
1771680913264477200,3.102477294921875,-0.0018325417768210173,0.010537114925682545,-0.0008399150101467967
1771680913274834000,3.112833984375,-0.0024433890357613564,0.011147962883114815,0.005268557462841272
1771680913285191000,3.12319091796875,-0.0006108472589403391,0.0032069480512291193,0.004046862944960594
1771680913295547600,3.133547607421875,0,-0.010842538438737392,-0.002672456670552492
1771680913305904600,3.143904541015625,-0.0006108472589403391,-0.0010689827613532543,-0.00022906772210262716
1771680913316261400,3.154261474609375,-0.0012216945178806782,0.00259610079228878,-0.0008399150101467967
1771680913326618400,3.164618408203125,-0.0006108472589403391,0.009315420873463154,-0.002061609411612153
1771680913336975000,3.17497509765625,0,-0.0029015245381742716,-0.00022906772210262716
1771680913347331800,3.185331787109375,-0.0006108472589403391,-0.004734066314995289,0.00038177953683771193
1771680913357688800,3.195688720703125,-0.0018325417768210173,-0.010842538438737392,-0.002061609411612153
1771680913368045600,3.206045654296875,-0.004275931045413017,0.008093725889921188,0.0034360159188508987
1771680913378402600,3.216402587890625,-0.004275931045413017,0.009315420873463154,0.0016034740256145597
1771680913388759300,3.22675927734375,-0.0036650835536420345,0.0068720318377017975,-0.00022906772210262716
1771680913399116300,3.2371162109375,-0.0012216945178806782,-0.007788302376866341,-0.0014507622690871358
1771680913409473000,3.24747314453125,-0.0006108472589403391,-0.007788302376866341,-0.0014507622690871358
1771680913419830000,3.257830078125,-0.0024433890357613564,-0.005955760832875967,0.00038177953683771193
1771680913430186800,3.268186767578125,-0.004275931045413017,0.006261184345930815,-0.002672456670552492
1771680913440543700,3.278543701171875,-0.004275931045413017,0.012369656935334206,0.0034360159188508987
1771680913450900500,3.288900390625,-0.0036650835536420345,-0.0022906772792339325,-0.002061609411612153
1771680913461257200,3.29925732421875,-0.0036650835536420345,-0.0004581354442052543,-0.002061609411612153
1771680913471614200,3.3096142578125,-0.0018325417768210173,-0.0029015245381742716,0.00038177953683771193
1771680913481971200,3.31997119140625,-0.0030542362947016954,0.0007635590736754239,-0.00022906772210262716
1771680913492328000,3.330327880859375,-0.0012216945178806782,-0.005344913341104984,-0.0014507622690871358
1771680913502684700,3.3406845703125,-0.0018325417768210173,0.001374406274408102,0.0034360159188508987
1771680913513041700,3.351041748046875,-0.004275931045413017,-0.0022906772792339325,-0.0032833039294928312
1771680913523398400,3.3613984375,-0.004275931045413017,0.011147962883114815,0.004657710436731577
1771680913533755400,3.37175537109375,-0.0036650835536420345,0.004428642801940441,-0.0014507622690871358
1771680913544112000,3.382112060546875,-0.0012216945178806782,-0.0035123717971146107,-0.00022906772210262716
1771680913554469000,3.39246923828125,-0.0012216945178806782,-0.0035123717971146107,-0.002672456670552492
1771680913564825900,3.402825927734375,-0.0024433890357613564,-0.0022906772792339325,-0.0032833039294928312
1771680913575182800,3.413182861328125,-0.0036650835536420345,0.0032069480512291193,0.00038177953683771193
1771680913585539600,3.42353955078125,-0.0036650835536420345,0.006261184345930815,0.0016034740256145597
1771680913595896600,3.433896484375,-0.004886778071522713,-0.005955760832875967,-0.002061609411612153
1771680913606266000,3.44426611328125,-0.005497625097632408,0.004428642801940441,-0.0008399150101467967
1771680913616610300,3.4546103515625,-0.004886778071522713,0.0068720318377017975,0.0009926267666742206
1771680913626989600,3.464989501953125,-0.0030542362947016954,0.00259610079228878,-0.002672456670552492
1771680913637323800,3.47532373046875,-0.0030542362947016954,-0.0035123717971146107,0.00038177953683771193
1771680913647682800,3.485682861328125,-0.005497625097632408,-0.004123218823224306,-0.0038941511884331703
1771680913658059800,3.496059814453125,-0.006108472589403391,0.0038177953101694584,-0.00022906772210262716
1771680913668406500,3.506406494140625,-0.006108472589403391,0.00992626789957285,0.00038177953683771193
1771680913678753000,3.5167529296875,-0.005497625097632408,0.00259610079228878,-0.00022906772210262716
1771680913689130000,3.5271298828125,-0.004275931045413017,-0.0010689827613532543,0.0009926267666742206
1771680913699465000,3.53746484375,-0.0036650835536420345,-0.007788302376866341,-0.0051158457063138485
1771680913709823200,3.5478232421875,-0.004886778071522713,-0.0029015245381742716,-0.00022906772210262716
1771680913720200200,3.5582001953125,-0.005497625097632408,0.0032069480512291193,0.0034360159188508987
1771680913730547000,3.568546875,-0.005497625097632408,-0.005344913341104984,-0.0014507622690871358
1771680913740893400,3.5788935546875,-0.006719320081174374,0.010537114925682545,0.0016034740256145597
1771680913751270400,3.5892705078125,-0.006108472589403391,0.001985253533348441,-0.0014507622690871358
1771680913761617200,3.5996171875,-0.004886778071522713,0.0050394898280501366,0.0028251686599105597
1771680913771963100,3.609963134765625,-0.004886778071522713,-0.012675080448389053,-0.0032833039294928312
1771680913782340600,3.620340576171875,-0.005497625097632408,0.001374406274408102,-0.00022906772210262716
1771680913792676900,3.6306767578125,-0.006719320081174374,-0.0004581354442052543,-0.002061609411612153
1771680913803033900,3.641033935546875,-0.007330167107284069,0.014202198944985867,0.005879404954612255
1771680913813390600,3.651390625,-0.006719320081174374,-0.0029015245381742716,0.00038177953683771193
1771680913823757600,3.661757568359375,-0.005497625097632408,0.0007635590736754239,0.0009926267666742206
1771680913834104300,3.672104248046875,-0.004886778071522713,-0.0022906772792339325,-0.0008399150101467967
1771680913844481000,3.68248095703125,-0.006108472589403391,0.00015271181473508477,0.00038177953683771193
1771680913854817800,3.69281787109375,-0.006108472589403391,-0.0010689827613532543,0.0009926267666742206
1771680913865204700,3.703204833984375,-0.007330167107284069,-0.0029015245381742716,-0.0038941511884331703
1771680913875531500,3.713531494140625,-0.006108472589403391,0.0050394898280501366,-0.0008399150101467967
1771680913885898000,3.72389794921875,-0.006719320081174374,0.00015271181473508477,0.0009926267666742206
1771680913896245200,3.734245361328125,-0.006108472589403391,-0.004123218823224306,0.00038177953683771193
1771680913906621400,3.744621337890625,-0.007330167107284069,-0.005955760832875967,-0.0014507622690871358
1771680913916959000,3.754958984375,-0.00916270911693573,0.0032069480512291193,0.00038177953683771193
1771680913927345200,3.76534521484375,-0.008551862090826035,0.00259610079228878,0.00038177953683771193
1771680913937672700,3.775672607421875,-0.007941014133393764,0.006261184345930815,0.004657710436731577
1771680913948038400,3.786038330078125,-0.007330167107284069,-0.009620844386518002,-0.0032833039294928312
1771680913958386400,3.796386474609375,-0.007941014133393764,0.004428642801940441,0.00038177953683771193
1771680913968761900,3.806761962890625,-0.008551862090826035,-0.004734066314995289,-0.002061609411612153
1771680913979100200,3.81710009765625,-0.00916270911693573,0.005650337319821119,0.005879404954612255
1771680913989485600,3.827485595703125,-0.008551862090826035,-0.007177455350756645,-0.0051158457063138485
1771680913999814000,3.83781396484375,-0.00916270911693573,0.010537114925682545,0.0016034740256145597
1771680914010178800,3.8481787109375,-0.007330167107284069,-0.0035123717971146107,-0.002061609411612153
1771680914020555800,3.8585556640625,-0.007941014133393764,0.00259610079228878,0.0034360159188508987
1771680914030902300,3.86890234375,-0.008551862090826035,-0.010231691412627697,-0.006337540224194527
1771680914041249000,3.8792490234375,-0.009773556143045425,0.006261184345930815,-0.0008399150101467967
1771680914051598300,3.889598388671875,-0.009773556143045425,-0.0022906772792339325,-0.0032833039294928312
1771680914061972500,3.899972412109375,-0.009773556143045425,0.006261184345930815,0.0022143214009702206
1771680914072312000,3.91031201171875,-0.009773556143045425,-0.009009997360408306,-0.006337540224194527
1771680914082696200,3.9206962890625,-0.01038440316915512,0.0038177953101694584,-0.0032833039294928312
1771680914093025800,3.93102587890625,-0.009773556143045425,-0.0010689827613532543,-0.0014507622690871358
1771680914103389400,3.941389404296875,-0.010995250195264816,0.0050394898280501366,0.00038177953683771193
1771680914113739500,3.951739501953125,-0.010995250195264816,-0.004123218823224306,-0.007559234742075205
1771680914124113000,3.96211279296875,-0.009773556143045425,0.00992626789957285,-0.0032833039294928312
1771680914134453200,3.972453369140625,-0.00916270911693573,-0.0022906772792339325,-0.004504998680204153
1771680914144836600,3.982836669921875,-0.010995250195264816,0.001985253533348441,-0.002061609411612153
1771680914155167000,3.9931669921875,-0.010995250195264816,-0.0065666078589856625,-0.007559234742075205
1771680914165529900,4.00352978515625,-0.010995250195264816,0.008704573847353458,-0.0038941511884331703
1771680914175880700,4.013880615234375,-0.01038440316915512,0.0038177953101694584,-0.002061609411612153
1771680914186253300,4.02425341796875,-0.009773556143045425,0.004428642801940441,-0.00022906772210262716
1771680914196594200,4.03459423828125,-0.010995250195264816,-0.0065666078589856625,-0.006337540224194527
1771680914206977000,4.04497705078125,-0.01038440316915512,0.0007635590736754239,-0.004504998680204153
1771680914217308200,4.05530810546875,-0.01038440316915512,-0.0004581354442052543,-0.0008399150101467967
1771680914227670300,4.065670166015625,-0.010995250195264816,0.0007635590736754239,-0.00022906772210262716
1771680914238047200,4.076047119140625,-0.011606098152697086,-0.0010689827613532543,-0.004504998680204153
1771680914248393700,4.086393798828125,-0.011606098152697086,0.004428642801940441,-0.002061609411612153
1771680914258735600,4.096735595703125,-0.010995250195264816,0.0007635590736754239,-0.0014507622690871358
1771680914269117400,4.107117431640625,-0.011606098152697086,-0.004123218823224306,-0.002672456670552492
1771680914279449000,4.117448974609375,-0.011606098152697086,-0.0016798300202935934,-0.0038941511884331703
1771680914289810700,4.127810791015625,-0.012827792204916477,0.00259610079228878,-0.004504998680204153
1771680914300187600,4.138187744140625,-0.012827792204916477,0.007482878863811493,0.00038177953683771193
1771680914310534100,4.1485341796875,-0.010995250195264816,0.001985253533348441,0.00038177953683771193
1771680914320881000,4.158880859375,-0.011606098152697086,-0.005344913341104984,-0.004504998680204153
1771680914331257900,4.1692578125,-0.010995250195264816,0.0007635590736754239,-0.002672456670552492
1771680914341604400,4.179604248046875,-0.012216945178806782,-0.0016798300202935934,-0.0014507622690871358
1771680914351947300,4.189947265625,-0.012827792204916477,0.0007635590736754239,-0.00022906772210262716
1771680914362328000,4.200328125,-0.012216945178806782,-0.0029015245381742716,-0.004504998680204153
1771680914372661000,4.210660888671875,-0.012216945178806782,0.0050394898280501366,-0.002672456670552492
1771680914383021300,4.221021240234375,-0.010995250195264816,0.001374406274408102,-0.0038941511884331703
1771680914393374700,4.231374755859375,-0.011606098152697086,-0.0016798300202935934,-0.002061609411612153
1771680914403744800,4.241744873046875,-0.012827792204916477,-0.009009997360408306,-0.005726693198084831
1771680914414088400,4.25208837890625,-0.012827792204916477,0.004428642801940441,-0.0014507622690871358
1771680914424468500,4.262468505859375,-0.012827792204916477,0.0007635590736754239,-0.004504998680204153
1771680914434802200,4.27280224609375,-0.011606098152697086,0.009315420873463154,0.0009926267666742206
1771680914445159200,4.2831591796875,-0.011606098152697086,-0.008399149402976036,-0.0051158457063138485
1771680914455516000,4.293515869140625,-0.010995250195264816,0.00259610079228878,-0.00022906772210262716
1771680914465885200,4.30388525390625,-0.010995250195264816,-0.010231691412627697,-0.0051158457063138485
1771680914476229600,4.314229736328125,-0.012216945178806782,0.007482878863811493,0.0009926267666742206
1771680914486609000,4.32460888671875,-0.012216945178806782,-0.009009997360408306,-0.0038941511884331703
1771680914496943400,4.334943359375,-0.014049487188458443,0.004428642801940441,0.00038177953683771193
1771680914507302100,4.34530224609375,-0.013438640162348747,0.00015271181473508477,-0.0014507622690871358
1771680914517657000,4.355656982421875,-0.013438640162348747,0.0038177953101694584,-0.00022906772210262716
1771680914528025600,4.366025634765625,-0.012216945178806782,-0.005955760832875967,-0.002061609411612153
1771680914538370800,4.376370849609375,-0.011606098152697086,-0.009009997360408306,-0.0008399150101467967
1771680914548749300,4.386749267578125,-0.012827792204916477,-0.007177455350756645,-0.002061609411612153
1771680914559084500,4.39708447265625,-0.013438640162348747,0.001374406274408102,0.0009926267666742206
1771680914569442600,4.407442626953125,-0.014049487188458443,0.001374406274408102,0.00038177953683771193
1771680914579798300,4.41779833984375,-0.012216945178806782,0.0038177953101694584,0.0034360159188508987
1771680914590166000,4.428166015625,-0.011606098152697086,-0.0065666078589856625,0.0028251686599105597
1771680914600512800,4.4385126953125,-0.010995250195264816,-0.009620844386518002,-0.0008399150101467967
1771680914610889700,4.4488896484375,-0.011606098152697086,-0.004734066314995289,0.0016034740256145597
1771680914621236200,4.459236328125,-0.012216945178806782,-0.0029015245381742716,-0.00022906772210262716
1771680914631582500,4.46958251953125,-0.012827792204916477,0.0007635590736754239,0.0022143214009702206
1771680914641960000,4.4799599609375,-0.013438640162348747,-0.0016798300202935934,0.00038177953683771193
1771680914652296400,4.49029638671875,-0.013438640162348747,0.001374406274408102,-0.00022906772210262716
1771680914662683600,4.50068359375,-0.013438640162348747,0.0032069480512291193,0.0022143214009702206
1771680914673010200,4.51101025390625,-0.012216945178806782,-0.005344913341104984,-0.0038941511884331703
1771680914683376600,4.521376708984375,-0.010995250195264816,0.00015271181473508477,0.004657710436731577
1771680914693724000,4.531723876953125,-0.012216945178806782,-0.01511846948415041,-0.00022906772210262716
1771680914704100400,4.542100341796875,-0.011606098152697086,-0.0010689827613532543,0.0034360159188508987
1771680914714437600,4.552437744140625,-0.014049487188458443,0.001985253533348441,0.00038177953683771193
1771680914724824000,4.562823974609375,-0.01588202826678753,0.008093725889921188,0.00038177953683771193
1771680914735151400,4.5731513671875,-0.014660334214568138,0.004428642801940441,0.0022143214009702206
1771680914745517000,4.58351708984375,-0.014049487188458443,-0.0035123717971146107,0.0022143214009702206
1771680914755865000,4.593864990234375,-0.011606098152697086,-0.014507622458040714,-0.00022906772210262716
1771680914766240800,4.60424072265625,-0.011606098152697086,-0.004734066314995289,0.0022143214009702206
1771680914776578800,4.614578857421875,-0.015271181240677834,0.00259610079228878,0.0034360159188508987
1771680914786964500,4.624964599609375,-0.01588202826678753,0.00259610079228878,0.0009926267666742206
1771680914797292500,4.63529248046875,-0.016492875292897224,0.011147962883114815,0.008933641016483307
1771680914807657500,4.645657470703125,-0.014049487188458443,-0.012064233422279358,0.0016034740256145597
1771680914818034700,4.65603466796875,-0.012827792204916477,-0.0035123717971146107,0.004046862944960594
1771680914828381200,4.666381103515625,-0.014660334214568138,0.0007635590736754239,0.0022143214009702206
1771680914838720000,4.676719970703125,-0.015271181240677834,0.0050394898280501366,0.00038177953683771193
1771680914849105000,4.68710498046875,-0.014049487188458443,-0.0065666078589856625,-0.002672456670552492
1771680914859451400,4.697451416015625,-0.01588202826678753,0.009315420873463154,0.013209572061896324
1771680914869798000,4.7077978515625,-0.012827792204916477,-0.029167955741286278,0.0009926267666742206
1771680914880175000,4.718175048828125,-0.006719320081174374,-0.0004581354442052543,0.007711946498602629
1771680914890521600,4.728521484375,-0.014660334214568138,0.001985253533348441,0.0016034740256145597
1771680914900868000,4.7388681640625,-0.018936265259981155,0.00992626789957285,0.0028251686599105597
1771680914911245300,4.749245361328125,-0.01710372418165207,-0.007177455350756645,-0.00022906772210262716
1771680914921591800,4.759591796875,-0.020157959312200546,0.007482878863811493,0.008933641016483307
1771680914931931600,4.769931640625,-0.010995250195264816,-0.043828289955854416,-0.00022906772210262716
1771680914942288600,4.78028857421875,-0.012827792204916477,0.014813045971095562,0.013209572061896324
1771680914952645400,4.790645263671875,-0.03237490355968475,-0.02489202655851841,-0.0038941511884331703
1771680914963008500,4.801008544921875,-0.023212196305394173,0.022754060104489326,0.011987877078354359
1771680914973359000,4.811359130859375,-0.017714571207761765,-0.01695101149380207,0.0009926267666742206
1771680914983732200,4.821732177734375,-0.023823043331503868,-0.0035123717971146107,0.0034360159188508987
1771680914994072800,4.83207275390625,-0.01832541823387146,-0.04443913698196411,0.009544488042593002
1771680915004456000,4.8424560546875,-0.0397050715982914,0.03130592033267021,0.01626380905508995
1771680915014786800,4.852786865234375,-0.04703523963689804,0.07467607408761978,0.041919391602277756
1771680915025149000,4.86314892578125,-0.03298575058579445,-0.09086353331804276,-0.024662958458065987
1771680915035500300,4.873500244140625,-0.036039989441633224,-0.0016798300202935934,-0.017332790419459343
1771680915045872600,4.88387255859375,-0.045202698558568954,-0.04077405482530594,-0.006948387715965509
1771680915056214300,4.89421435546875,-0.021990500390529633,-0.04016320779919624,0.005268557462841272
1771680915066596400,4.904596435546875,-0.025655584409832954,0.1113269105553627,0.04253023862838745
1771680915076928000,4.914927978515625,0.005497625097632408,0.06612421572208405,0.026037365198135376
1771680915087289300,4.925289306640625,-0.008551862090826035,-0.16599774360656738,-0.07414158433675766
1771680915097641700,4.935641845703125,-0.037261683493852615,0.04413371533155441,-0.03321481868624687
1771680915108013000,4.946012939453125,-0.03298575058579445,-0.034665580838918686,-0.008780929259955883
1771680915118355500,4.95635546875,-0.01832541823387146,0.010537114925682545,0.011987877078354359
1771680915128736800,4.96673681640625,0.0006108472589403391,0.0038177953101694584,0.0016034740256145597
1771680915139083300,4.977083251953125,0.020157959312200546,-0.01511846948415041,0.0034360159188508987
1771680915149429800,4.9874296875,-0.054365407675504684,-0.04199574887752533,-0.023441264405846596
1771680915159783000,4.997782958984375,-0.0922379344701767,0.030695075169205666,-0.012446013279259205
1771680915170153500,5.008153564453125,-0.04459185153245926,-0.05726693198084831,-0.00022906772210262716
1771680915180500000,5.0185,-0.054365407675504684,0.03924693539738655,0.010155336000025272
1771680915190853400,5.028853271484375,-0.06169557198882103,0.009315420873463154,0.0022143214009702206
1771680915201223700,5.0392236328125,-0.04337015375494957,-0.08903098851442337,-0.025273805484175682
1771680915211567000,5.049567138671875,-0.0659715011715889,0.06612421572208405,-0.010002624243497849
1771680915221947400,5.059947509765625,-0.02993151545524597,-0.06154286116361618,-0.01794363744556904
1771680915232280800,5.07028076171875,-0.017714571207761765,0.028251685202121735,0.013209572061896324
1771680915242640400,5.080640380859375,-0.021379653364419937,-0.007177455350756645,-0.022219568490982056
1771680915252994600,5.09099462890625,-0.029320668429136276,0.01175880990922451,0.0064902519807219505
1771680915263364000,5.101364013671875,-0.045202698558568954,0.014813045971095562,-0.006948387715965509
1771680915273708500,5.11170849609375,-0.02626643143594265,-0.04443913698196411,-0.024662958458065987
1771680915284087800,5.122087890625,-0.024433890357613564,0.0459662564098835,0.030313294380903244
1771680915294422300,5.13242236328125,-0.025655584409832954,-0.029167955741286278,-0.0295497365295887
1771680915304780800,5.14278076171875,-0.028098974376916885,0.016034740954637527,0.010766183026134968
1771680915315136000,5.153135986328125,-0.038483377546072006,0.03008422814309597,0.009544488042593002
1771680915325504500,5.16350439453125,-0.02993151545524597,-0.03955236077308655,-0.027717193588614464
1771680915335849700,5.173849609375,-0.024433890357613564,0.0459662564098835,0.026037365198135376
1771680915346228200,5.184228271484375,-0.023212196305394173,-0.02489202655851841,-0.02160872146487236
1771680915356563500,5.1945634765625,-0.023212196305394173,0.001374406274408102,0.008322793990373611
1771680915366921200,5.204921142578125,-0.025655584409832954,0.016034740954637527,0.008322793990373611
1771680915377277200,5.215277099609375,-0.024433890357613564,-0.017561858519911766,-0.01122431829571724
1771680915387645000,5.22564501953125,-0.025655584409832954,0.04169032722711563,0.02053973823785782
1771680915397991400,5.235991455078125,-0.023212196305394173,-0.016340164467692375,-0.009391776286065578
1771680915408368600,5.24636865234375,-0.02504473738372326,0.014813045971095562,0.010766183026134968
1771680915418715100,5.256715087890625,-0.023212196305394173,-0.0065666078589856625,-0.0051158457063138485
1771680915429061600,5.2670615234375,-0.023823043331503868,-0.0004581354442052543,-0.0032833039294928312
1771680915439418400,5.27741845703125,-0.023212196305394173,0.010537114925682545,0.007101099472492933
1771680915449785300,5.287785400390625,-0.023212196305394173,-0.0022906772792339325,-0.0008399150101467967
1771680915460162600,5.29816259765625,-0.024433890357613564,0.009315420873463154,0.0016034740256145597
1771680915470509000,5.308509033203125,-0.024433890357613564,0.0068720318377017975,0.0009926267666742206
1771680915480855600,5.31885546875,-0.024433890357613564,0.008704573847353458,0.0064902519807219505
1771680915491232800,5.329232666015625,-0.023212196305394173,-0.010231691412627697,0.0009926267666742206
1771680915501579300,5.339579345703125,-0.023823043331503868,0.001985253533348441,0.0034360159188508987
1771680915511916500,5.34991650390625,-0.023823043331503868,0.001374406274408102,-0.004504998680204153
1771680915522303000,5.360302978515625,-0.023823043331503868,0.0007635590736754239,-0.0032833039294928312
1771680915532630300,5.37063037109375,-0.023212196305394173,0.006261184345930815,0.0034360159188508987
1771680915542996000,5.380995849609375,-0.023212196305394173,-0.005344913341104984,-0.002061609411612153
1771680915553344000,5.391343994140625,-0.023212196305394173,0.0038177953101694584,0.0022143214009702206
1771680915563719700,5.4017197265625,-0.024433890357613564,-0.009009997360408306,-0.0014507622690871358
1771680915574057700,5.4120576171875,-0.026877280324697495,0.008093725889921188,0.0064902519807219505
1771680915584443400,5.422443359375,-0.02748812735080719,-0.0029015245381742716,-0.002061609411612153
1771680915594771500,5.432771484375,-0.02748812735080719,-0.0016798300202935934,-0.005726693198084831
1771680915605136400,5.443136474609375,-0.026877280324697495,0.0038177953101694584,-0.006337540224194527
1771680915615485200,5.453485107421875,-0.02748812735080719,-0.017561858519911766,-0.006948387715965509
1771680915625860000,5.463860107421875,-0.02748812735080719,-0.0004581354442052543,-0.005726693198084831
1771680915636199000,5.474198974609375,-0.02870982140302658,-0.011453386396169662,-0.014889402315020561
1771680915646583800,5.484583740234375,-0.02993151545524597,0.011147962883114815,-0.005726693198084831
1771680915656912600,5.49491259765625,-0.02993151545524597,0.00015271181473508477,-0.006337540224194527
1771680915667276800,5.50527685546875,-0.031153209507465363,0.0038177953101694584,-0.005726693198084831
1771680915677626400,5.51562646484375,-0.02993151545524597,0.004428642801940441,-0.0130568603053689
1771680915688000500,5.52600048828125,-0.02993151545524597,-0.0010689827613532543,-0.017332790419459343
1771680915698347000,5.536346923828125,-0.03176405653357506,0.0038177953101694584,-0.009391776286065578
1771680915708724200,5.54672412109375,-0.03298575058579445,0.0038177953101694584,-0.015500249341130257
1771680915719070700,5.55707080078125,-0.033596597611904144,0.0038177953101694584,-0.017332790419459343
1771680915729417200,5.567417236328125,-0.033596597611904144,0.010537114925682545,-0.0130568603053689
1771680915739794400,5.57779443359375,-0.03298575058579445,0.001374406274408102,-0.006948387715965509
1771680915750141000,5.588140869140625,-0.036039989441633224,-0.005344913341104984,-0.009391776286065578
1771680915760487400,5.5984873046875,-0.03542914241552353,0.00015271181473508477,-0.012446013279259205
1771680915770864600,5.60886474609375,-0.03542914241552353,-0.005955760832875967,-0.0130568603053689
1771680915781211100,5.619211181640625,-0.036039989441633224,-0.004734066314995289,-0.0051158457063138485
1771680915791552000,5.629552001953125,-0.037261683493852615,-0.011453386396169662,-0.011835165321826935
1771680915801934800,5.639934814453125,-0.037261683493852615,-0.010842538438737392,-0.014889402315020561
1771680915812265700,5.650265625,-0.03665083646774292,-0.005955760832875967,-0.011835165321826935
1771680915822627800,5.6606279296875,-0.04031591862440109,-0.0065666078589856625,-0.0014507622690871358
1771680915832979500,5.6709794921875,-0.04092676565051079,-0.0035123717971146107,-0.008170082233846188
1771680915843351600,5.6813515625,-0.0390942245721817,0.0007635590736754239,-0.010002624243497849
1771680915853693200,5.691693115234375,-0.037261683493852615,-0.004734066314995289,-0.012446013279259205
1771680915864075300,5.7020751953125,-0.0390942245721817,-0.0022906772792339325,-0.0038941511884331703
1771680915874407000,5.712406982421875,-0.04337015375494957,0.00015271181473508477,-0.009391776286065578
1771680915884768300,5.722768310546875,-0.04031591862440109,0.001985253533348441,-0.016111096367239952
1771680915895120600,5.73312060546875,-0.04092676565051079,0.008093725889921188,-0.010613471269607544
1771680915905492000,5.743491943359375,-0.042759306728839874,0.005650337319821119,-0.002672456670552492
1771680915915834600,5.753834716796875,-0.042759306728839874,0.00015271181473508477,-0.008170082233846188
1771680915926215700,5.764215576171875,-0.03787253051996231,0.0038177953101694584,-0.008170082233846188
1771680915936548400,5.77454833984375,-0.037261683493852615,-0.0010689827613532543,-0.006948387715965509
1771680915946905000,5.784905029296875,-0.0397050715982914,0.0050394898280501366,0.005268557462841272
1771680915957262000,5.795261962890625,-0.0397050715982914,-0.0065666078589856625,-0.009391776286065578
1771680915967632400,5.80563232421875,-0.038483377546072006,0.01969982497394085,-0.0014507622690871358
1771680915977979000,5.815978759765625,-0.037261683493852615,-0.013285927474498749,-0.005726693198084831
1771680915988356000,5.826356201171875,-0.03787253051996231,0.001985253533348441,0.004046862944960594
1771680915998702600,5.83670263671875,-0.03787253051996231,-0.009620844386518002,-0.0032833039294928312
1771680916009049000,5.847049072265625,-0.03665083646774292,0.00259610079228878,-0.002061609411612153
1771680916019426300,5.85742626953125,-0.037261683493852615,-0.007177455350756645,0.00038177953683771193
1771680916029772800,5.867772705078125,-0.04031591862440109,0.012369656935334206,0.009544488042593002
1771680916040119300,5.878119384765625,-0.037261683493852615,-0.01572931744158268,-0.002672456670552492
1771680916050496500,5.88849658203125,-0.037261683493852615,0.006261184345930815,0.005879404954612255
1771680916060843000,5.898843017578125,-0.0390942245721817,-0.016340164467692375,-0.0032833039294928312
1771680916071189500,5.909189453125,-0.04092676565051079,0.007482878863811493,0.008322793990373611
1771680916081566700,5.919566650390625,-0.04092676565051079,-0.009009997360408306,-0.006948387715965509
1771680916091901400,5.9299013671875,-0.04153761267662048,0.012369656935334206,0.004657710436731577
1771680916102259700,5.940259765625,-0.04031591862440109,-0.007788302376866341,-0.006948387715965509
1771680916112615200,5.950615234375,-0.04031591862440109,0.0032069480512291193,0.00038177953683771193
1771680916122983400,5.9609833984375,-0.04153761267662048,-0.010842538438737392,-0.010613471269607544
1771680916133329000,5.971328857421875,-0.04214845970273018,0.007482878863811493,-0.0032833039294928312
1771680916143707100,5.98170703125,-0.042759306728839874,0.0050394898280501366,-0.010002624243497849
1771680916154042600,5.992042724609375,-0.04092676565051079,0.005650337319821119,-0.010002624243497849
1771680916164400000,6.002400146484375,-0.0390942245721817,0.0007635590736754239,-0.01122431829571724
1771680916174756400,6.01275634765625,-0.0390942245721817,-0.0010689827613532543,-0.015500249341130257
1771680916185123800,6.023123779296875,-0.0397050715982914,0.0050394898280501366,-0.015500249341130257
1771680916195470000,6.033469970703125,-0.0397050715982914,0.00259610079228878,-0.018554486334323883
1771680916205847600,6.04384765625,-0.04031591862440109,0.0050394898280501366,-0.019776180386543274
1771680916216183800,6.054183837890625,-0.03787253051996231,0.011147962883114815,-0.016721943393349648
1771680916226571000,6.064571044921875,-0.03665083646774292,0.0007635590736754239,-0.02283041551709175
1771680916236897500,6.0748974609375,-0.03420744836330414,0.0050394898280501366,-0.02160872146487236
1771680916247264300,6.08526416015625,-0.03298575058579445,0.001985253533348441,-0.023441264405846596
1771680916257611300,6.095611328125,-0.03237490355968475,0.01725643500685692,-0.017332790419459343
1771680916267988000,6.105988037109375,-0.030542362481355667,0.0068720318377017975,-0.02160872146487236
1771680916278325200,6.1163251953125,-0.02993151545524597,0.01969982497394085,-0.017332790419459343
1771680916288711400,6.12671142578125,-0.028098974376916885,0.00259610079228878,-0.01916533336043358
1771680916299039000,6.1370390625,-0.02748812735080719,0.01969982497394085,-0.011835165321826935
1771680916309404700,6.14740478515625,-0.02626643143594265,-0.005344913341104984,-0.02283041551709175
1771680916319752700,6.157752685546875,-0.025655584409832954,0.027029991149902344,-0.008170082233846188
1771680916330128400,6.16812841796875,-0.02504473738372326,0.001985253533348441,-0.014889402315020561
1771680916340475000,6.178474853515625,-0.023823043331503868,0.025808297097682953,-0.004504998680204153
1771680916350851800,6.188851806640625,-0.02076880633831024,-0.0035123717971146107,-0.0130568603053689
1771680916361198600,6.199198486328125,-0.02076880633831024,0.01725643500685692,-0.002061609411612153
1771680916371537200,6.209537109375,-0.02076880633831024,-0.007177455350756645,-0.009391776286065578
1771680916381922000,6.219922119140625,-0.023212196305394173,0.025197450071573257,0.004657710436731577
1771680916392251000,6.2302509765625,-0.01954711228609085,-0.012675080448389053,-0.008170082233846188
1771680916402615300,6.240615234375,-0.02076880633831024,0.021532366052269936,0.009544488042593002
1771680916412964600,6.250964599609375,-0.01954711228609085,-0.010842538438737392,0.00038177953683771193
1771680916423339000,6.261339111328125,-0.021379653364419937,0.006261184345930815,0.0064902519807219505
1771680916433678300,6.27167822265625,-0.020157959312200546,-0.007788302376866341,0.005879404954612255
1771680916444035000,6.28203515625,-0.021379653364419937,0.0050394898280501366,0.011377030052244663
1771680916454392000,6.29239208984375,-0.01954711228609085,-0.0010689827613532543,0.009544488042593002
1771680916464755700,6.302755615234375,-0.018936265259981155,-0.0065666078589856625,0.007101099472492933
1771680916475105800,6.313105712890625,-0.017714571207761765,-0.005344913341104984,0.008322793990373611
1771680916485479400,6.3234794921875,-0.017714571207761765,-0.004123218823224306,0.010155336000025272
1771680916495819500,6.333819580078125,-0.018936265259981155,-0.0010689827613532543,0.007101099472492933
1771680916506203000,6.344202880859375,-0.016492875292897224,-0.010842538438737392,0.0064902519807219505
1771680916516533200,6.354533203125,-0.015271181240677834,-0.005955760832875967,0.008322793990373611
1771680916526896000,6.364896240234375,-0.014660334214568138,-0.013896775431931019,0.0064902519807219505
1771680916537247200,6.375247314453125,-0.014049487188458443,-0.012064233422279358,0.0016034740256145597
1771680916547619800,6.385619873046875,-0.012827792204916477,-0.013285927474498749,0.004046862944960594
1771680916557996800,6.395996826171875,-0.014049487188458443,0.00259610079228878,0.0034360159188508987
1771680916568343300,6.40634326171875,-0.012216945178806782,-0.016340164467692375,-0.0051158457063138485
1771680916578674700,6.4166748046875,-0.010995250195264816,-0.0016798300202935934,-0.0008399150101467967
1771680916589036500,6.42703662109375,-0.009773556143045425,-0.008399149402976036,-0.006337540224194527
1771680916599413500,6.43741357421875,-0.010995250195264816,0.0038177953101694584,-0.0038941511884331703
1771680916609760300,6.44776025390625,-0.010995250195264816,0.0038177953101694584,-0.007559234742075205
1771680916620106800,6.458106689453125,-0.009773556143045425,0.0068720318377017975,-0.004504998680204153
1771680916630483700,6.468483642578125,-0.009773556143045425,-0.004734066314995289,-0.010002624243497849
1771680916640830500,6.47883056640625,-0.00916270911693573,0.0050394898280501366,-0.002061609411612153
1771680916651177000,6.489177001953125,-0.009773556143045425,-0.009620844386518002,-0.0130568603053689
1771680916661554000,6.499553955078125,-0.009773556143045425,0.007482878863811493,-0.0038941511884331703
1771680916671886600,6.509886474609375,-0.00916270911693573,-0.014507622458040714,-0.010613471269607544
1771680916682247200,6.5202470703125,-0.009773556143045425,-0.0016798300202935934,-0.0038941511884331703
1771680916692600300,6.530600341796875,-0.007941014133393764,-0.026724567636847496,-0.01122431829571724
1771680916702971000,6.540970947265625,-0.008551862090826035,-0.0016798300202935934,-0.0032833039294928312
1771680916713314000,6.55131396484375,-0.00916270911693573,-0.021226942539215088,-0.008780929259955883
1771680916723694300,6.5616943359375,-0.01038440316915512,-0.0029015245381742716,-0.006337540224194527
1771680916734027800,6.57202783203125,-0.009773556143045425,-0.01511846948415041,-0.0038941511884331703
1771680916744387600,6.5823876953125,-0.01038440316915512,-0.0022906772792339325,-0.004504998680204153
1771680916754741500,6.592741455078125,-0.010995250195264816,-0.01572931744158268,-0.0038941511884331703
1771680916765111300,6.603111328125,-0.010995250195264816,0.008093725889921188,0.0016034740256145597
1771680916775455200,6.613455322265625,-0.010995250195264816,-0.009620844386518002,-0.005726693198084831
1771680916785834800,6.623834716796875,-0.009773556143045425,0.019088976085186005,0.008933641016483307
1771680916796169200,6.634169189453125,-0.010995250195264816,-0.012675080448389053,-0.008780929259955883
1771680916806528000,6.644528076171875,-0.007941014133393764,0.02214321307837963,0.008933641016483307
1771680916816883000,6.654883056640625,-0.007941014133393764,-0.0029015245381742716,-0.0032833039294928312
1771680916827251700,6.665251708984375,-0.00916270911693573,0.020310672000050545,0.005268557462841272
1771680916837596700,6.6755966796875,-0.006719320081174374,0.001985253533348441,0.0009926267666742206
1771680916847975200,6.68597509765625,-0.005497625097632408,0.011147962883114815,0.010155336000025272
1771680916858322000,6.696322021484375,-0.006108472589403391,-0.0022906772792339325,0.004046862944960594
1771680916868668400,6.70666845703125,-0.004275931045413017,0.0038177953101694584,0.009544488042593002
1771680916879024000,6.717024169921875,-0.004275931045413017,-0.0010689827613532543,0.010766183026134968
1771680916889392000,6.72739208984375,-0.004275931045413017,-0.0065666078589856625,0.004657710436731577
1771680916899737900,6.73773779296875,-0.004275931045413017,0.001985253533348441,0.011987877078354359
1771680916910115600,6.748115478515625,-0.0024433890357613564,-0.01572931744158268,0.00038177953683771193
1771680916920462300,6.75846240234375,-0.004275931045413017,0.001374406274408102,0.011987877078354359
1771680916930808800,6.768808837890625,-0.004886778071522713,-0.009620844386518002,0.00038177953683771193
1771680916941165600,6.77916552734375,-0.005497625097632408,0.0007635590736754239,0.005879404954612255
1771680916951522300,6.789522216796875,-0.006108472589403391,0.00259610079228878,0.007711946498602629
1771680916961909500,6.799909423828125,-0.007330167107284069,-0.012064233422279358,0.0009926267666742206
1771680916972236000,6.810236083984375,-0.007941014133393764,0.00015271181473508477,0.005268557462841272
1771680916982602800,6.820602783203125,-0.007941014133393764,0.00015271181473508477,0.004046862944960594
1771680916992949800,6.83094970703125,-0.008551862090826035,0.0007635590736754239,0.0022143214009702206
1771680917003326200,6.841326171875,-0.007330167107284069,-0.0035123717971146107,-0.0032833039294928312
1771680917013663700,6.851663818359375,-0.007330167107284069,0.0007635590736754239,0.0009926267666742206
1771680917024050000,6.8620498046875,-0.006719320081174374,-0.007788302376866341,-0.005726693198084831
1771680917034377500,6.87237744140625,-0.006108472589403391,-0.0022906772792339325,-0.004504998680204153
1771680917044743200,6.8827431640625,-0.006108472589403391,0.0050394898280501366,0.0028251686599105597
1771680917055091200,6.89309130859375,-0.004886778071522713,-0.013285927474498749,-0.008170082233846188
1771680917065466600,6.903466552734375,-0.0024433890357613564,0.0050394898280501366,0.005268557462841272
1771680917075805000,6.913804931640625,-0.0012216945178806782,-0.013285927474498749,-0.0051158457063138485
1771680917086190300,6.9241904296875,-0.0012216945178806782,0.0032069480512291193,0.0034360159188508987
1771680917096518700,6.9345185546875,-0.0012216945178806782,-0.0065666078589856625,-0.002061609411612153
1771680917106883600,6.944883544921875,-0.0006108472589403391,0.0007635590736754239,0.00038177953683771193
1771680917117232400,6.955232421875,0,-0.0065666078589856625,-0.0038941511884331703
1771680917127607300,6.965607177734375,0,-0.0022906772792339325,-0.00022906772210262716
1771680917137984300,6.975984375,0,0.004428642801940441,0.0034360159188508987
1771680917148330800,6.986330810546875,-0.0018325417768210173,-0.005344913341104984,-0.002672456670552492
1771680917158660000,6.99666015625,0.0012216945178806782,0.004428642801940441,0.0016034740256145597
1771680917169024000,7.00702392578125,-0.0006108472589403391,0.004428642801940441,0.007101099472492933
1771680917179373800,7.017373779296875,-0.0018325417768210173,-0.009009997360408306,-0.002672456670552492
1771680917189747700,7.027747802734375,-0.0018325417768210173,0.0068720318377017975,0.010766183026134968
1771680917200087600,7.038087646484375,-0.0030542362947016954,0.007482878863811493,0.004046862944960594
1771680917210471200,7.04847119140625,-0.004275931045413017,0.00259610079228878,0.005268557462841272
1771680917220818000,7.05881787109375,-0.006719320081174374,0.008704573847353458,0.005268557462841272
1771680917231164400,7.069164306640625,-0.005497625097632408,-0.0029015245381742716,-0.00022906772210262716
1771680917241541400,7.079541259765625,-0.005497625097632408,0.01847812905907631,0.008933641016483307
1771680917251872000,7.0898720703125,-0.007330167107284069,-0.0004581354442052543,0.00038177953683771193
1771680917262234600,7.100234619140625,-0.004886778071522713,0.014202198944985867,0.008933641016483307
1771680917272585700,7.110585693359375,-0.006108472589403391,-0.0016798300202935934,0.004657710436731577
1771680917282958300,7.120958251953125,-0.004275931045413017,0.004428642801940441,0.005268557462841272
1771680917293299500,7.131299560546875,-0.004275931045413017,0.0038177953101694584,0.009544488042593002
1771680917303681800,7.141681884765625,-0.0036650835536420345,0.012980503961443901,0.010155336000025272
1771680917314013200,7.15201318359375,-0.0036650835536420345,-0.004123218823224306,0.008322793990373611
1771680917324375000,7.162375,-0.0024433890357613564,0.00259610079228878,0.005268557462841272
1771680917334727000,7.172726806640625,0,-0.0004581354442052543,0.013209572061896324
1771680917345098800,7.1830986328125,0,0.0068720318377017975,0.009544488042593002
1771680917355440600,7.193440673828125,-0.0006108472589403391,-0.007177455350756645,0.005879404954612255
1771680917365822200,7.203822265625,0.0006108472589403391,0.02092151902616024,0.021150587126612663
1771680917376154600,7.214154541015625,-0.0006108472589403391,-0.009009997360408306,0.004046862944960594
1771680917386515500,7.224515380859375,-0.0012216945178806782,0.012980503961443901,0.015652960166335106
1771680917396868400,7.234868408203125,-0.0012216945178806782,0.014202198944985867,0.01626380905508995
1771680917407239200,7.2452392578125,-0.0024433890357613564,0.012980503961443901,0.014431266114115715
1771680917417582000,7.25558203125,-0.0024433890357613564,-0.004123218823224306,0.005879404954612255
1771680917427962600,7.265962646484375,-0.0012216945178806782,0.023975754156708717,0.02176143415272236
1771680917438295800,7.2762958984375,-0.0024433890357613564,-0.0029015245381742716,0.007711946498602629
1771680917448656000,7.28665576171875,-0.004886778071522713,0.0068720318377017975,0.011987877078354359
1771680917459009500,7.297009521484375,-0.0030542362947016954,0.006261184345930815,0.015652960166335106
1771680917469379600,7.307379638671875,-0.004275931045413017,-0.005955760832875967,0.009544488042593002
1771680917479723500,7.3177236328125,-0.005497625097632408,-0.0029015245381742716,0.007101099472492933
1771680917490103000,7.32810302734375,-0.004275931045413017,0.0007635590736754239,0.012598725035786629
1771680917500449800,7.33844970703125,-0.006108472589403391,0.009315420873463154,0.01382041908800602
1771680917510796300,7.34879638671875,-0.007330167107284069,-0.020005248486995697,-0.0032833039294928312
1771680917521173200,7.35917333984375,-0.007330167107284069,0.012980503961443901,0.011377030052244663
1771680917531508000,7.369508056640625,-0.007941014133393764,-0.009009997360408306,0.0028251686599105597
1771680917541866500,7.379866455078125,-0.00916270911693573,0.0038177953101694584,0.0022143214009702206
1771680917552221700,7.3902216796875,-0.007330167107284069,-0.0010689827613532543,0.0016034740256145597
1771680917562590200,7.400590087890625,-0.007330167107284069,0.0032069480512291193,0.007101099472492933
1771680917572935400,7.410935302734375,-0.007330167107284069,-0.0065666078589856625,-0.002672456670552492
1771680917583313700,7.421313720703125,-0.006108472589403391,0.0007635590736754239,0.0016034740256145597
1771680917593649200,7.431649169921875,-0.006108472589403391,0.014813045971095562,0.012598725035786629
1771680917604007000,7.4420068359375,-0.006108472589403391,-0.012064233422279358,-0.004504998680204153
1771680917614363000,7.45236279296875,-0.004886778071522713,0.004428642801940441,0.007711946498602629
1771680917624730600,7.462730712890625,-0.004275931045413017,-0.004123218823224306,0.0028251686599105597
1771680917635076600,7.47307666015625,-0.004275931045413017,0.0032069480512291193,0.005268557462841272
1771680917645454000,7.4834541015625,-0.004275931045413017,-0.007788302376866341,-0.00022906772210262716
1771680917655790600,7.49379052734375,-0.0030542362947016954,0.0068720318377017975,0.010766183026134968
1771680917666177800,7.504177734375,-0.004275931045413017,-0.011453386396169662,-0.00022906772210262716
1771680917676504300,7.51450439453125,-0.0036650835536420345,0.001374406274408102,0.005268557462841272
1771680917686871000,7.52487109375,-0.0024433890357613564,-0.0004581354442052543,0.010766183026134968
1771680917697218000,7.535218017578125,-0.0036650835536420345,-0.010842538438737392,-0.006337540224194527
1771680917707594500,7.545594482421875,-0.0024433890357613564,-0.005344913341104984,-0.00022906772210262716
1771680917717931800,7.555931884765625,-0.0024433890357613564,0.001374406274408102,0.004046862944960594
1771680917728318200,7.566318115234375,-0.0024433890357613564,-0.008399149402976036,-0.010002624243497849
1771680917738645500,7.5766455078125,-0.0024433890357613564,0.005650337319821119,0.0016034740256145597
1771680917749011500,7.587011474609375,-0.005497625097632408,-0.0016798300202935934,0.00038177953683771193
1771680917759359200,7.597359130859375,-0.004275931045413017,-0.013896775431931019,-0.012446013279259205
1771680917769735000,7.60773486328125,-0.006108472589403391,0.017867282032966614,0.008933641016483307
1771680917780081700,7.61808154296875,-0.005497625097632408,-0.032222192734479904,-0.010613471269607544
1771680917790458600,7.628458740234375,-0.0036650835536420345,0.007482878863811493,0.0016034740256145597
1771680917800805000,7.63880517578125,-0.004886778071522713,-0.008399149402976036,0.0009926267666742206
1771680917811152000,7.64915185546875,-0.0036650835536420345,-0.010842538438737392,0.0028251686599105597
1771680917821528800,7.65952880859375,-0.004275931045413017,-0.0035123717971146107,-0.0008399150101467967
1771680917831857700,7.669857666015625,-0.0030542362947016954,-0.009009997360408306,0.0034360159188508987
1771680917842222000,7.68022216796875,-0.004886778071522713,-0.004123218823224306,0.0028251686599105597
1771680917852571400,7.6905712890625,-0.005497625097632408,0.0007635590736754239,-0.002672456670552492
1771680917862945500,7.700945556640625,-0.005497625097632408,0.0032069480512291193,0.010766183026134968
1771680917873285000,7.71128515625,-0.004886778071522713,-0.010231691412627697,-0.004504998680204153
1771680917883669200,7.721669189453125,-0.006719320081174374,0.0007635590736754239,0.004657710436731577
1771680917893998800,7.731998779296875,-0.006719320081174374,0.005650337319821119,0.005879404954612255
1771680917904362500,7.742362548828125,-0.007330167107284069,-0.012064233422279358,-0.0014507622690871358
1771680917914712600,7.752712646484375,-0.006108472589403391,0.0068720318377017975,0.005268557462841272
1771680917925086000,7.7630859375,-0.007330167107284069,-0.01817270554602146,-0.0032833039294928312
1771680917935426600,7.773426513671875,-0.007941014133393764,0.006261184345930815,-0.002061609411612153
1771680917945783300,7.783783203125,-0.006719320081174374,-0.004734066314995289,-0.0008399150101467967
1771680917956140300,7.794140380859375,-0.006719320081174374,0.00259610079228878,-0.0032833039294928312
1771680917966503000,7.8045029296875,-0.004275931045413017,0.001374406274408102,-0.007559234742075205
1771680917976854000,7.81485400390625,-0.004275931045413017,0.00992626789957285,0.00038177953683771193
1771680917987226400,7.825226318359375,-0.0036650835536420345,0.0032069480512291193,-0.010613471269607544
1771680917997567700,7.835567626953125,-0.0024433890357613564,0.012980503961443901,-0.0038941511884331703
1771680918007950000,7.8459501953125,-0.0006108472589403391,0.0050394898280501366,-0.002061609411612153
1771680918018296600,7.856296630859375,-0.0018325417768210173,0.012980503961443901,-0.011835165321826935
1771680918028643300,7.866643310546875,-0.0006108472589403391,0.025808297097682953,0.00038177953683771193
1771680918038995500,7.876995361328125,-0.0018325417768210173,0.0050394898280501366,-0.008170082233846188
1771680918049366800,7.88736669921875,-0.0006108472589403391,0.016645587980747223,-0.012446013279259205
1771680918059709200,7.897709228515625,-0.0006108472589403391,0.02214321307837963,0.00038177953683771193
1771680918070090500,7.908090576171875,-0.0018325417768210173,0.0050394898280501366,-0.01122431829571724
1771680918080437000,7.91843701171875,-0.0006108472589403391,0.01725643500685692,-0.00022906772210262716
1771680918090783700,7.92878369140625,-0.0018325417768210173,-0.004123218823224306,-0.005726693198084831
1771680918101160700,7.93916064453125,-0.0006108472589403391,0.008704573847353458,-0.002672456670552492
1771680918111493600,7.94949365234375,-0.0030542362947016954,0.001374406274408102,0.004046862944960594
1771680918121854000,7.95985400390625,-0.0030542362947016954,-0.01511846948415041,-0.010613471269607544
1771680918132207400,7.970207275390625,-0.0030542362947016954,0.00259610079228878,0.004046862944960594
1771680918142577400,7.980577392578125,-0.006719320081174374,-0.012064233422279358,-0.0051158457063138485
1771680918152921000,7.990921142578125,-0.005497625097632408,-0.005955760832875967,-0.002061609411612153
1771680918163301000,8.001301025390624,-0.007330167107284069,-0.0016798300202935934,-0.00022906772210262716
1771680918173634800,8.011634765625,-0.008551862090826035,-0.009009997360408306,-0.002061609411612153
1771680918183994400,8.021994384765625,-0.01038440316915512,0.019088976085186005,0.0028251686599105597
1771680918194348800,8.032348876953124,-0.010995250195264816,-0.0029015245381742716,0.00038177953683771193
1771680918204717800,8.0427177734375,-0.009773556143045425,0.021532366052269936,0.004657710436731577
1771680918215062500,8.0530625,-0.00916270911693573,0.006261184345930815,0.0009926267666742206
1771680918225441500,8.063441650390626,-0.007941014133393764,0.011147962883114815,0.005879404954612255
1771680918235776300,8.0737763671875,-0.007330167107284069,0.0038177953101694584,-0.005726693198084831
1771680918246134800,8.084134765625,-0.008551862090826035,0.00259610079228878,0.005268557462841272
1771680918256490000,8.094489990234376,-0.007330167107284069,0.0068720318377017975,-0.005726693198084831
1771680918266858200,8.104858154296876,-0.006108472589403391,0.007482878863811493,0.008322793990373611
1771680918277203700,8.11520361328125,-0.006108472589403391,-0.012675080448389053,-0.007559234742075205
1771680918287582000,8.12558203125,-0.0018325417768210173,0.0038177953101694584,0.0022143214009702206
1771680918297917700,8.135917724609374,-0.004886778071522713,-0.0029015245381742716,0.005879404954612255
1771680918308275200,8.146275146484374,-0.0012216945178806782,-0.008399149402976036,-0.010613471269607544
1771680918318631400,8.15663134765625,-0.0024433890357613564,0.0032069480512291193,0.010766183026134968
1771680918328998700,8.16699853515625,-0.0012216945178806782,-0.01695101149380207,-0.013667707331478596
1771680918339345200,8.17734521484375,-0.0030542362947016954,0.014813045971095562,0.010155336000025272
1771680918349722400,8.187722412109375,-0.0030542362947016954,-0.011453386396169662,-0.008780929259955883
1771680918360068900,8.19806884765625,-0.0024433890357613564,0.001374406274408102,0.0009926267666742206
1771680918370446000,8.208446044921875,-0.0024433890357613564,-0.007788302376866341,-0.004504998680204153
1771680918380792600,8.21879248046875,-0.0024433890357613564,-0.0065666078589856625,0.0016034740256145597
1771680918391139000,8.22913916015625,-0.0024433890357613564,-0.005955760832875967,-0.0038941511884331703
1771680918401516300,8.239516357421875,-0.0012216945178806782,-0.0035123717971146107,0.0028251686599105597
1771680918411843300,8.24984326171875,-0.0030542362947016954,0.00992626789957285,0.0016034740256145597
1771680918422209300,8.260209228515626,-0.0024433890357613564,-0.007788302376866341,-0.0008399150101467967
1771680918432557300,8.270557373046875,-0.004275931045413017,0.023364907130599022,0.0064902519807219505
1771680918442914000,8.2809140625,-0.004275931045413017,-0.0022906772792339325,0.0009926267666742206
1771680918453271000,8.29127099609375,-0.004886778071522713,0.02641914412379265,0.007711946498602629
1771680918463656700,8.30165673828125,-0.005497625097632408,-0.011453386396169662,-0.0008399150101467967
1771680918473984800,8.31198486328125,-0.007330167107284069,0.025808297097682953,0.012598725035786629
1771680918484349700,8.322349609375,-0.006719320081174374,0.001374406274408102,0.004046862944960594
1771680918494698500,8.332698486328125,-0.007941014133393764,0.0068720318377017975,0.013209572061896324
1771680918505073400,8.343073486328125,-0.005497625097632408,0.0068720318377017975,0.0016034740256145597
1771680918515412500,8.35341259765625,-0.006719320081174374,0.005650337319821119,0.014431266114115715
1771680918525797000,8.363797119140624,-0.0030542362947016954,-0.0016798300202935934,-0.005726693198084831
1771680918536126200,8.374126220703126,-0.0030542362947016954,0.005650337319821119,0.010766183026134968
1771680918546490000,8.384489990234375,-0.0024433890357613564,-0.0016798300202935934,-0.0051158457063138485
1771680918556840000,8.39483984375,0.0006108472589403391,0.004428642801940441,0.004046862944960594
1771680918567213800,8.4052138671875,-0.0006108472589403391,-0.010842538438737392,-0.006337540224194527
1771680918577553700,8.4155537109375,0.0018325417768210173,0.012980503961443901,0.0022143214009702206
1771680918587937500,8.4259375,0,-0.012064233422279358,-0.006948387715965509
1771680918598284000,8.436283935546875,0.0024433890357613564,0.019088976085186005,-0.002061609411612153
1771680918608630500,8.446630615234374,0.0018325417768210173,-0.010842538438737392,-0.006948387715965509
1771680918618981400,8.4569814453125,0.0012216945178806782,0.027029991149902344,-0.0014507622690871358
1771680918629354200,8.467354248046876,0.0018325417768210173,-0.010231691412627697,-0.007559234742075205
1771680918639695000,8.477695068359376,-0.0006108472589403391,0.024586603045463562,0.00038177953683771193
1771680918650078000,8.488077880859375,0.0006108472589403391,-0.012064233422279358,-0.009391776286065578
1771680918660424400,8.498424560546875,-0.0006108472589403391,0.011147962883114815,-0.0008399150101467967
1771680918670771000,8.50877099609375,0,-0.01572931744158268,-0.01122431829571724
1771680918681148200,8.519148193359374,-0.0030542362947016954,-0.0022906772792339325,-0.002061609411612153
1771680918691479600,8.5294794921875,-0.0012216945178806782,-0.005344913341104984,-0.006948387715965509
1771680918701841200,8.539841064453125,-0.0024433890357613564,-0.020005248486995697,-0.006337540224194527
1771680918712193300,8.550193359375,-0.0036650835536420345,0.014202198944985867,0.0009926267666742206
1771680918722564900,8.56056494140625,-0.004275931045413017,-0.024281177669763565,-0.009391776286065578
1771680918732907000,8.570906982421874,-0.004275931045413017,0.023364907130599022,0.009544488042593002
1771680918743288600,8.58128857421875,-0.004275931045413017,-0.024281177669763565,-0.008780929259955883
1771680918753621000,8.59162109375,-0.0030542362947016954,0.02764083817601204,0.012598725035786629
1771680918763981600,8.601981689453124,-0.0018325417768210173,-0.018783552572131157,-0.005726693198084831
1771680918774334700,8.612334716796875,-0.0024433890357613564,0.02214321307837963,0.016874656081199646
1771680918784705300,8.622705322265626,-0.0024433890357613564,-0.004123218823224306,0.0028251686599105597
1771680918795048400,8.63304833984375,0,0.00259610079228878,0.015042114071547985
1771680918805429000,8.643428955078125,0.0012216945178806782,-0.0035123717971146107,0.007711946498602629
1771680918815762200,8.65376220703125,0.0012216945178806782,-0.007177455350756645,0.011377030052244663
1771680918826122000,8.6641220703125,0.0024433890357613564,-0.0004581354442052543,0.012598725035786629
1771680918836476200,8.67447607421875,0.0024433890357613564,-0.029167955741286278,-0.0014507622690871358
1771680918846845700,8.684845703125,0.0030542362947016954,0.019088976085186005,0.019318044185638428
1771680918857190000,8.69518994140625,0.0024433890357613564,-0.03771981969475746,-0.006948387715965509
1771680918867569400,8.7055693359375,0.004275931045413017,0.020310672000050545,0.016874656081199646
1771680918877903600,8.715903564453125,0.004886778071522713,-0.04016320779919624,-0.009391776286065578
1771680918888262400,8.726262451171875,0.004886778071522713,0.031916771084070206,0.015042114071547985
1771680918898617300,8.736617431640624,0.004886778071522713,-0.043828289955854416,-0.009391776286065578
1771680918908986000,8.746986083984375,0.006108472589403391,0.029473381116986275,0.010766183026134968
1771680918919331300,8.757331298828126,0.006719320081174374,-0.01695101149380207,-0.0014507622690871358
1771680918929709800,8.767709716796874,0.004886778071522713,0.01847812905907631,0.004657710436731577
1771680918940045000,8.778045166015625,0.0036650835536420345,-0.009009997360408306,-0.0014507622690871358
1771680918950402800,8.78840283203125,0.0030542362947016954,0.02641914412379265,0.010766183026134968
1771680918960780000,8.798780029296875,0.0036650835536420345,-0.01572931744158268,-0.004504998680204153
1771680918971126500,8.80912646484375,0.0024433890357613564,0.030695075169205666,0.012598725035786629
1771680918981473000,8.81947314453125,0.0024433890357613564,-0.012675080448389053,-0.00022906772210262716
1771680918991829500,8.82982958984375,0.0012216945178806782,0.024586603045463562,0.010766183026134968
1771680919002196700,8.84019677734375,0.0018325417768210173,-0.017561858519911766,-0.009391776286065578
1771680919012543200,8.850543212890624,0.0030542362947016954,0.036192700266838074,0.015042114071547985
1771680919022920400,8.86092041015625,0.0030542362947016954,-0.021837789565324783,-0.0130568603053689
1771680919033257200,8.87125732421875,0.006719320081174374,0.019088976085186005,0.00038177953683771193
1771680919043644200,8.88164404296875,0.007941014133393764,0.00015271181473508477,-0.0038941511884331703
1771680919053971000,8.891970947265625,0.009773556143045425,-0.004123218823224306,-0.008170082233846188
1771680919064337200,8.902337158203125,0.009773556143045425,0.0068720318377017975,-0.006948387715965509
1771680919074684700,8.9126845703125,0.011606098152697086,0.00259610079228878,-0.005726693198084831
1771680919085060900,8.923060791015626,0.01038440316915512,0.016034740954637527,0.00038177953683771193
1771680919095398400,8.9333984375,0.01038440316915512,-0.0065666078589856625,-0.009391776286065578
1771680919105784600,8.94378466796875,0.011606098152697086,0.025197450071573257,0.005879404954612255
1771680919116112400,8.9541123046875,0.011606098152697086,-0.018783552572131157,-0.014278554357588291
1771680919126477600,8.9644775390625,0.008551862090826035,0.020310672000050545,-0.006337540224194527
1771680919136826000,8.974826171875,0.008551862090826035,-0.011453386396169662,-0.017332790419459343
1771680919147201300,8.985201171875,0.006108472589403391,0.015423892997205257,-0.008170082233846188
1771680919157539800,8.995539794921875,0.006108472589403391,-0.012675080448389053,-0.01916533336043358
1771680919167925000,9.005925048828125,0.005497625097632408,0.014202198944985867,-0.0032833039294928312
1771680919178271500,9.016271484375,0.004886778071522713,-0.011453386396169662,-0.014889402315020561
1771680919188618000,9.026617919921875,0.004886778071522713,0.012980503961443901,-0.0014507622690871358
1771680919198995200,9.0369951171875,0.004886778071522713,0.00015271181473508477,-0.0051158457063138485
1771680919209341700,9.047341796875,0.004886778071522713,0.0007635590736754239,-0.008780929259955883
1771680919219681300,9.057681396484375,0.005497625097632408,0.01175880990922451,0.0016034740256145597
1771680919230065400,9.0680654296875,0.004886778071522713,-0.005344913341104984,-0.014278554357588291
1771680919240412000,9.078411865234376,0.0036650835536420345,0.016645587980747223,0.005268557462841272
1771680919250758400,9.08875830078125,0.0036650835536420345,-0.01511846948415041,-0.016721943393349648
1771680919261135600,9.099135498046875,0.004886778071522713,0.021532366052269936,0.010766183026134968
1771680919271465700,9.1094658203125,0.0036650835536420345,-0.019394399598240852,-0.0130568603053689
1771680919281828600,9.11982861328125,0.005497625097632408,0.023364907130599022,0.010155336000025272
1771680919292179500,9.130179443359374,0.006719320081174374,-0.013285927474498749,-0.0038941511884331703
1771680919302552300,9.14055224609375,0.007330167107284069,0.01175880990922451,0.004657710436731577
1771680919312893400,9.1508935546875,0.007941014133393764,0.00015271181473508477,0.0028251686599105597
1771680919323276000,9.161276123046875,0.007941014133393764,-0.0022906772792339325,-0.0014507622690871358
1771680919333607200,9.171607177734375,0.010995250195264816,-0.0022906772792339325,-0.0014507622690871358
1771680919343969000,9.181968994140625,0.011606098152697086,0.00992626789957285,0.008322793990373611
1771680919354321000,9.19232080078125,0.011606098152697086,-0.007788302376866341,-0.002672456670552492
1771680919364692700,9.202692626953125,0.012827792204916477,0.001985253533348441,0.007101099472492933
1771680919375034600,9.21303466796875,0.013438640162348747,0.009315420873463154,0.011377030052244663
1771680919385416400,9.22341650390625,0.012216945178806782,-0.011453386396169662,0.0016034740256145597
1771680919395748600,9.23374853515625,0.010995250195264816,0.016034740954637527,0.01748550310730934
1771680919406109400,9.244109375,0.009773556143045425,-0.009009997360408306,0.009544488042593002
1771680919416462300,9.25446240234375,0.01038440316915512,0.012369656935334206,0.018096350133419037
1771680919426833200,9.264833251953124,0.01038440316915512,-0.007177455350756645,0.008322793990373611
1771680919437176000,9.275176025390625,0.01038440316915512,0.017867282032966614,0.02298312820494175
1771680919447533000,9.285532958984374,0.011606098152697086,-0.013896775431931019,0.00038177953683771193
1771680919457889800,9.295889892578124,0.012827792204916477,0.02764083817601204,0.023593975231051445
1771680919468249900,9.306249755859374,0.014049487188458443,-0.012064233422279358,0.0028251686599105597
1771680919478603800,9.316603759765625,0.01588202826678753,0.021532366052269936,0.015652960166335106
1771680919488973600,9.3269736328125,0.01832541823387146,-0.0004581354442052543,0.005879404954612255
1771680919499317500,9.3373173828125,0.02076880633831024,0.007482878863811493,0.007711946498602629
1771680919509697300,9.347697265625,0.02076880633831024,0.004428642801940441,0.008933641016483307
1771680919520031200,9.35803125,0.021990500390529633,0.0038177953101694584,0.0016034740256145597
1771680919530390300,9.368390380859376,0.021379653364419937,0.00259610079228878,0.0064902519807219505
1771680919540767500,9.378767578125,0.02076880633831024,0.005650337319821119,0.005268557462841272
1771680919551114000,9.389114013671875,0.02076880633831024,-0.008399149402976036,-0.0014507622690871358
1771680919561460500,9.39946044921875,0.021990500390529633,-0.005344913341104984,-0.002061609411612153
1771680919571816000,9.40981591796875,0.02076880633831024,-0.0004581354442052543,-0.00022906772210262716
1771680919582184200,9.42018408203125,0.02076880633831024,-0.01511846948415041,-0.007559234742075205
1771680919592529700,9.43052978515625,0.020157959312200546,0.007482878863811493,-0.004504998680204153
1771680919602908000,9.440907958984376,0.021379653364419937,-0.014507622458040714,-0.008170082233846188
1771680919613243400,9.451243408203124,0.02076880633831024,0.014813045971095562,0.0016034740256145597
1771680919623601000,9.461600830078124,0.023212196305394173,-0.007177455350756645,-0.009391776286065578
1771680919633957000,9.47195703125,0.021379653364419937,0.01175880990922451,0.00038177953683771193
1771680919644324600,9.48232470703125,0.022601349279284477,-0.0016798300202935934,-0.006337540224194527
1771680919654670800,9.4926708984375,0.02504473738372326,0.008093725889921188,-0.0032833039294928312
1771680919665048300,9.50304833984375,0.021379653364419937,0.0032069480512291193,-0.011835165321826935
1771680919675384800,9.513384765625,0.021990500390529633,0.008704573847353458,-0.005726693198084831
1771680919685771800,9.523771728515625,0.02076880633831024,-0.010231691412627697,-0.017332790419459343
1771680919696098600,9.5340986328125,0.023823043331503868,0.00259610079228878,-0.010002624243497849
1771680919706465000,9.544465087890625,0.023212196305394173,0.0038177953101694584,-0.008170082233846188
1771680919716812300,9.554812255859375,0.02504473738372326,-0.004123218823224306,-0.017332790419459343
1771680919727188700,9.565188720703125,0.02870982140302658,-0.0004581354442052543,-0.015500249341130257
1771680919737526300,9.5755263671875,0.030542362481355667,0.0068720318377017975,-0.012446013279259205
1771680919747912200,9.585912109375,0.031153209507465363,-0.01511846948415041,-0.03077143058180809
1771680919758259000,9.596259033203125,0.034818295389413834,0.01175880990922451,-0.016111096367239952
1771680919768605400,9.60660546875,0.034818295389413834,-0.0022906772792339325,-0.032603971660137177
1771680919778953700,9.61695361328125,0.03420744836330414,0.0068720318377017975,-0.025273805484175682
1771680919789329200,9.6273291015625,0.03237490355968475,0.014813045971095562,-0.030160583555698395
1771680919799667700,9.637667724609376,0.033596597611904144,-0.007788302376866341,-0.039323292672634125
1771680919810052600,9.648052490234376,0.030542362481355667,0.031916771084070206,-0.01916533336043358
1771680919820399400,9.6583994140625,0.02993151545524597,-0.021226942539215088,-0.04665346071124077
1771680919830745900,9.668745849609374,0.02870982140302658,0.03802524134516716,-0.016111096367239952
1771680919841122800,9.679122802734375,0.02993151545524597,-0.004734066314995289,-0.03626905754208565
1771680919851452200,9.6894521484375,0.031153209507465363,0.025808297097682953,-0.02160872146487236
1771680919861816000,9.699816162109375,0.03176405653357506,0.0050394898280501366,-0.03199312463402748
1771680919872166000,9.710165771484375,0.034818295389413834,0.021532366052269936,-0.020997874438762665
1771680919882539800,9.720539794921875,0.034818295389413834,0.001985253533348441,-0.032603971660137177
1771680919892879600,9.730879638671874,0.036039989441633224,0.022754060104489326,-0.025273805484175682
1771680919903263200,9.74126318359375,0.03542914241552353,0.011147962883114815,-0.025273805484175682
1771680919913593600,9.751593505859375,0.03542914241552353,0.012980503961443901,-0.031382277607917786
1771680919923956500,9.76195654296875,0.034818295389413834,0.017867282032966614,-0.017332790419459343
1771680919934307300,9.772307373046875,0.03542914241552353,0.014813045971095562,-0.023441264405846596
1771680919944664300,9.782664306640624,0.03665083646774292,0.008093725889921188,-0.016111096367239952
1771680919955021000,9.79302099609375,0.038483377546072006,0.016645587980747223,-0.017332790419459343
1771680919965403600,9.803403564453125,0.0397050715982914,-0.009620844386518002,-0.02283041551709175
1771680919975735000,9.813735107421875,0.04092676565051079,0.02214321307837963,-0.012446013279259205
1771680919986097000,9.824096923828124,0.042759306728839874,-0.007177455350756645,-0.02160872146487236
1771680919996448800,9.83444873046875,0.042759306728839874,0.01725643500685692,-0.014278554357588291
1771680920006820600,9.844820556640625,0.045202698558568954,-0.004123218823224306,-0.01916533336043358
1771680920017162500,9.85516259765625,0.04459185153245926,0.017867282032966614,-0.008780929259955883
1771680920027544000,9.8655439453125,0.045202698558568954,0.001985253533348441,-0.012446013279259205
1771680920037876200,9.875876220703125,0.043981000781059265,0.014813045971095562,-0.007559234742075205
1771680920048237300,9.8862373046875,0.043981000781059265,0.001374406274408102,-0.012446013279259205
1771680920058590200,9.896590087890624,0.04337015375494957,0.009315420873463154,-0.008170082233846188
1771680920068961000,9.9069609375,0.04459185153245926,0.0032069480512291193,-0.014889402315020561
1771680920079304000,9.917303955078125,0.04581354558467865,0.0038177953101694584,-0.013667707331478596
1771680920089684500,9.9276845703125,0.04703523963689804,0.011147962883114815,-0.011835165321826935
1771680920100031200,9.93803125,0.04825693368911743,-0.0035123717971146107,-0.019776180386543274
1771680920110377700,9.948377685546875,0.04886778071522713,0.012980503961443901,-0.014889402315020561
1771680920120754700,9.958754638671875,0.05070032179355621,-0.0029015245381742716,-0.01916533336043358
1771680920131101400,9.969101318359375,0.04886778071522713,0.015423892997205257,-0.012446013279259205
1771680920141448000,9.979447998046876,0.04886778071522713,-0.012675080448389053,-0.02405211143195629
1771680920151802000,9.989802001953125,0.05008947476744652,0.014813045971095562,-0.011835165321826935
1771680920162171600,10.000171630859375,0.05008947476744652,-0.010842538438737392,-0.019776180386543274
1771680920172516000,10.01051611328125,0.04886778071522713,0.0038177953101694584,-0.013667707331478596
1771680920182895000,10.02089501953125,0.04947862774133682,0.00259610079228878,-0.013667707331478596
1771680920193229800,10.031229736328125,0.04886778071522713,-0.010231691412627697,-0.017332790419459343
1771680920203588400,10.04158837890625,0.05070032179355621,0.016034740954637527,-0.002061609411612153
1771680920213943600,10.051943603515625,0.05070032179355621,-0.016340164467692375,-0.012446013279259205
1771680920224312000,10.06231201171875,0.051922015845775604,0.011147962883114815,0.0022143214009702206
1771680920234657500,10.072657470703126,0.051922015845775604,-0.0029015245381742716,0.0009926267666742206
1771680920245035500,10.083035400390624,0.05131116881966591,-0.0004581354442052543,0.0016034740256145597
1771680920255371300,10.093371337890625,0.05070032179355621,0.009315420873463154,0.011987877078354359
1771680920265728800,10.103728759765625,0.054365407675504684,-0.013896775431931019,-0.0008399150101467967
1771680920276085000,10.1140849609375,0.05008947476744652,0.011147962883114815,0.019928891211748123
1771680920286452500,10.124452392578124,0.053143709897994995,-0.010842538438737392,0.0064902519807219505
1771680920296799000,10.134799072265626,0.051922015845775604,0.0068720318377017975,0.018096350133419037
1771680920307176000,10.145176025390626,0.053143709897994995,-0.0010689827613532543,0.012598725035786629
1771680920317512700,10.1555126953125,0.05375456064939499,-0.0004581354442052543,0.01748550310730934
1771680920327899600,10.165899658203125,0.053143709897994995,0.0068720318377017975,0.01382041908800602
1771680920338246100,10.17624609375,0.054365407675504684,0.001374406274408102,0.019318044185638428
1771680920348593000,10.186593017578126,0.0525328628718853,0.001374406274408102,0.01626380905508995
1771680920358940400,10.1969404296875,0.051922015845775604,-0.0016798300202935934,0.012598725035786629
1771680920369316400,10.20731640625,0.05070032179355621,-0.0004581354442052543,0.01382041908800602
1771680920379663000,10.2176630859375,0.05070032179355621,-0.014507622458040714,0.0034360159188508987
1771680920390040000,10.2280400390625,0.04886778071522713,0.00015271181473508477,0.013209572061896324
1771680920400386600,10.238386474609374,0.047646086663007736,-0.010842538438737392,0.0016034740256145597
1771680920410733300,10.2487333984375,0.047646086663007736,-0.011453386396169662,0.007101099472492933
1771680920421110300,10.2591103515625,0.046424392610788345,-0.007788302376866341,0.0064902519807219505
1771680920431438600,10.2694384765625,0.04581354558467865,-0.013285927474498749,0.008322793990373611
1771680920441795600,10.279795654296874,0.043981000781059265,-0.008399149402976036,0.005268557462841272
1771680920452152300,10.29015234375,0.04459185153245926,-0.007788302376866341,0.0064902519807219505
1771680920462527000,10.30052685546875,0.04337015375494957,-0.0065666078589856625,0.005268557462841272
1771680920472866300,10.3108662109375,0.042759306728839874,-0.0029015245381742716,-0.00022906772210262716
1771680920483250700,10.321250732421875,0.042759306728839874,0.0007635590736754239,0.0016034740256145597
1771680920493580000,10.331580078125,0.04337015375494957,0.008704573847353458,0.0016034740256145597
1771680920503944000,10.34194384765625,0.042759306728839874,-0.0016798300202935934,-0.004504998680204153
1771680920514293800,10.352293701171876,0.04337015375494957,0.020310672000050545,0.009544488042593002
1771680920524667400,10.36266748046875,0.043981000781059265,-0.009009997360408306,-0.0032833039294928312
1771680920535007700,10.3730078125,0.046424392610788345,0.016034740954637527,0.009544488042593002
1771680920545391000,10.38339111328125,0.04703523963689804,-0.010842538438737392,0.0009926267666742206
1771680920555721500,10.393721435546874,0.04703523963689804,-0.004734066314995289,0.0016034740256145597
1771680920566084400,10.40408447265625,0.046424392610788345,-0.009009997360408306,-0.0008399150101467967
1771680920576435200,10.414435302734375,0.04703523963689804,-0.004123218823224306,0.00038177953683771193
1771680920586807800,10.424807861328125,0.04581354558467865,0.0007635590736754239,0.0022143214009702206
1771680920597149000,10.43514892578125,0.04337015375494957,-0.005955760832875967,-0.006337540224194527
1771680920607531500,10.445531494140624,0.04337015375494957,0.014813045971095562,0.009544488042593002
1771680920617863000,10.45586279296875,0.04214845970273018,-0.009620844386518002,-0.00022906772210262716
1771680920628224800,10.466224853515625,0.04214845970273018,0.016645587980747223,0.011987877078354359
1771680920638576600,10.47657666015625,0.04092676565051079,-0.0016798300202935934,0.0028251686599105597
1771680920648948200,10.4869482421875,0.04214845970273018,0.014813045971095562,0.016874656081199646
1771680920659295000,10.497294921875,0.04092676565051079,0.0050394898280501366,0.005268557462841272
1771680920669672000,10.507671875,0.04459185153245926,0.004428642801940441,0.007711946498602629
1771680920680018400,10.518018310546875,0.0397050715982914,0.016645587980747223,0.009544488042593002
1771680920690361000,10.528361083984375,0.04459185153245926,-0.020005248486995697,-0.010002624243497849
1771680920700742100,10.5387421875,0.04153761267662048,0.03558185324072838,0.01748550310730934
1771680920711088600,10.549088623046876,0.04581354558467865,-0.025502873584628105,-0.017332790419459343
1771680920721435400,10.559435302734375,0.043981000781059265,0.03436015918850899,0.01748550310730934
1771680920731788800,10.569788818359376,0.045202698558568954,-0.029778804630041122,-0.019776180386543274
1771680920742158800,10.580158935546875,0.04581354558467865,0.03558185324072838,0.01382041908800602
1771680920752502500,10.59050244140625,0.04581354558467865,-0.020616095513105392,-0.017332790419459343
1771680920762882600,10.600882568359374,0.046424392610788345,0.01969982497394085,-0.0008399150101467967
1771680920773216500,10.611216552734374,0.04459185153245926,0.0038177953101694584,-0.0130568603053689
1771680920783575800,10.621575927734375,0.045202698558568954,0.00259610079228878,-0.016721943393349648
1771680920793930200,10.63193017578125,0.043981000781059265,0.015423892997205257,-0.0051158457063138485
1771680920804299300,10.64229931640625,0.042759306728839874,-0.010231691412627697,-0.03077143058180809
1771680920814644000,10.65264404296875,0.04337015375494957,0.027029991149902344,0.004657710436731577
1771680920825023000,10.66302294921875,0.04153761267662048,-0.01511846948415041,-0.03077143058180809
1771680920835358000,10.67335791015625,0.04214845970273018,0.025197450071573257,0.0064902519807219505
1771680920845716200,10.68371630859375,0.04031591862440109,0.00259610079228878,-0.0130568603053689
1771680920856071700,10.69407177734375,0.0390942245721817,0.010537114925682545,0.0009926267666742206
1771680920866439700,10.704439697265625,0.038483377546072006,0.005650337319821119,-0.0038941511884331703
1771680920876785400,10.714785400390625,0.03665083646774292,0.008093725889921188,-0.00022906772210262716
1771680920887163400,10.725163330078125,0.036039989441633224,0.0068720318377017975,-0.002672456670552492
1771680920897499100,10.7354990234375,0.036039989441633224,0.0007635590736754239,-0.0038941511884331703
1771680920907856600,10.745856689453126,0.03420744836330414,0.012980503961443901,0.0009926267666742206
1771680920918233600,10.756233642578126,0.03542914241552353,0.00015271181473508477,0.0022143214009702206
1771680920928580000,10.766580078125,0.034818295389413834,0.001374406274408102,-0.00022906772210262716
1771680920938926800,10.7769267578125,0.036039989441633224,-0.012064233422279358,0.005268557462841272
1771680920949303800,10.7873037109375,0.033596597611904144,-0.005955760832875967,0.004657710436731577
1771680920959640800,10.797640869140626,0.036039989441633224,-0.012064233422279358,0.0016034740256145597
1771680920970027500,10.808027587890624,0.03542914241552353,-0.012064233422279358,0.0034360159188508987
1771680920980374000,10.8183740234375,0.03420744836330414,-0.012675080448389053,-0.0032833039294928312
1771680920990720500,10.828720458984375,0.03176405653357506,-0.011453386396169662,-0.00022906772210262716
1771680921001097700,10.83909765625,0.03298575058579445,-0.0065666078589856625,-0.002061609411612153
1771680921011425300,10.84942529296875,0.03176405653357506,-0.014507622458040714,-0.004504998680204153
1771680921021790700,10.859790771484375,0.02870982140302658,-0.0010689827613532543,0.00038177953683771193
1771680921032139000,10.870138916015625,0.02748812735080719,-0.008399149402976036,-0.0014507622690871358
1771680921042514400,10.880514404296875,0.02626643143594265,0.012369656935334206,0.008322793990373611
1771680921052852700,10.890852783203124,0.024433890357613564,-0.005955760832875967,0.0022143214009702206
1771680921063238100,10.901238037109374,0.02504473738372326,0.019088976085186005,0.008933641016483307
1771680921073566700,10.911566650390625,0.024433890357613564,0.00015271181473508477,0.0028251686599105597
1771680921083931100,10.92193115234375,0.024433890357613564,0.014813045971095562,0.004046862944960594
1771680921094280400,10.932280517578125,0.024433890357613564,0.0007635590736754239,-0.0032833039294928312
1771680921104654800,10.94265478515625,0.024433890357613564,-0.005955760832875967,-0.0014507622690871358
1771680921114994200,10.952994140625,0.023212196305394173,0.0050394898280501366,-0.0014507622690871358
1771680921125378600,10.963378662109376,0.023212196305394173,-0.007177455350756645,-0.004504998680204153
1771680921135708200,10.973708251953125,0.021990500390529633,0.011147962883114815,0.004046862944960594
1771680921146071600,10.984071533203124,0.021990500390529633,-0.013285927474498749,-0.010002624243497849
1771680921156422000,10.994421875,0.022601349279284477,0.02641914412379265,0.01382041908800602
1771680921166795300,11.004795166015626,0.02076880633831024,-0.009009997360408306,-0.007559234742075205
1771680921177135600,11.015135498046876,0.02076880633831024,0.02764083817601204,0.009544488042593002
1771680921187519000,11.02551904296875,0.020157959312200546,-0.008399149402976036,-0.010613471269607544
1771680921197849600,11.035849609375,0.020157959312200546,0.01725643500685692,0.0022143214009702206
1771680921208212000,11.0462119140625,0.018936265259981155,-0.004123218823224306,-0.012446013279259205
1771680921218563300,11.056563232421874,0.018936265259981155,0.014813045971095562,-0.007559234742075205
1771680921228935700,11.066935791015625,0.01954711228609085,0.004428642801940441,-0.0051158457063138485
1771680921239277000,11.077277099609375,0.020157959312200546,-0.009009997360408306,-0.014278554357588291
1771680921249659400,11.087659423828125,0.01954711228609085,0.01175880990922451,0.004046862944960594
1771680921259991000,11.097990966796875,0.02076880633831024,-0.011453386396169662,-0.004504998680204153
1771680921270352400,11.108352294921875,0.020157959312200546,0.004428642801940441,0.0034360159188508987
1771680921280729600,11.1187294921875,0.020157959312200546,-0.008399149402976036,0.0028251686599105597
1771680921291076000,11.129076171875,0.018936265259981155,0.007482878863811493,0.010155336000025272
1771680921301422600,11.139422607421874,0.01954711228609085,-0.007788302376866341,0.008322793990373611
1771680921311775500,11.149775390625,0.01832541823387146,0.01847812905907631,0.01626380905508995
1771680921322146300,11.160146240234376,0.01954711228609085,0.001374406274408102,0.018096350133419037
1771680921332489200,11.1704892578125,0.01832541823387146,0.01175880990922451,0.021150587126612663
1771680921342870000,11.1808701171875,0.021379653364419937,-0.004734066314995289,0.022372281178832054
1771680921353203000,11.191202880859375,0.021379653364419937,0.012369656935334206,0.03336753323674202
1771680921363563000,11.20156298828125,0.021990500390529633,-0.0035123717971146107,0.030313294380903244
1771680921373917000,11.2119169921875,0.022601349279284477,0.007482878863811493,0.02970244735479355
1771680921384286700,11.22228662109375,0.024433890357613564,0.005650337319821119,0.032756682485342026
1771680921394630700,11.232630615234376,0.023212196305394173,-0.0004581354442052543,0.023593975231051445
1771680921405010400,11.243010498046875,0.023823043331503868,-0.0022906772792339325,0.014431266114115715
1771680921415344600,11.2533447265625,0.024433890357613564,0.0007635590736754239,0.011987877078354359
1771680921425703400,11.263703369140625,0.023823043331503868,-0.0029015245381742716,0.005879404954612255
1771680921436058400,11.274058349609374,0.021990500390529633,-0.0016798300202935934,-0.00022906772210262716
1771680921446415400,11.284415283203124,0.020157959312200546,0.005650337319821119,0.0009926267666742206
1771680921456772000,11.294772216796876,0.018936265259981155,0.005650337319821119,0.0016034740256145597
1771680921467150800,11.30515087890625,0.01832541823387146,0.007482878863811493,-0.0008399150101467967
1771680921477485800,11.31548583984375,0.01710372418165207,0.01847812905907631,0.0028251686599105597
1771680921487843800,11.32584375,0.01710372418165207,0.010537114925682545,-0.0032833039294928312
1771680921498221000,11.336220947265625,0.018936265259981155,-0.0016798300202935934,-0.010002624243497849
1771680921508567600,11.346567626953124,0.01954711228609085,0.012980503961443901,-0.006948387715965509
1771680921518913500,11.35691357421875,0.01954711228609085,-0.010842538438737392,-0.016111096367239952
1771680921529291300,11.367291259765626,0.020157959312200546,0.015423892997205257,-0.008780929259955883
1771680921539627300,11.377627197265625,0.018936265259981155,0.005650337319821119,-0.016721943393349648
1771680921549984300,11.387984375,0.021379653364419937,0.019088976085186005,-0.010613471269607544
1771680921560361500,11.398361572265625,0.02076880633831024,0.0038177953101694584,-0.017332790419459343
1771680921570708000,11.4087080078125,0.023212196305394173,0.008093725889921188,-0.015500249341130257
1771680921581085200,11.419085205078124,0.023212196305394173,-0.0010689827613532543,-0.01916533336043358
1771680921591412000,11.429411865234375,0.021990500390529633,0.015423892997205257,-0.014278554357588291
1771680921601778200,11.439778076171875,0.02076880633831024,0.00259610079228878,-0.02160872146487236
1771680921612125700,11.450125732421874,0.02076880633831024,0.02641914412379265,-0.018554486334323883
1771680921622502000,11.460501953125,0.02076880633831024,0.007482878863811493,-0.02160872146487236
1771680921632839400,11.47083935546875,0.020157959312200546,0.014202198944985867,-0.025884652510285378
1771680921643225600,11.4812255859375,0.02076880633831024,0.0068720318377017975,-0.025273805484175682
1771680921653553400,11.491553466796875,0.021379653364419937,0.001985253533348441,-0.02160872146487236
1771680921663918600,11.501918701171874,0.021379653364419937,0.007482878863811493,-0.020997874438762665
1771680921674267100,11.51226708984375,0.021379653364419937,-0.013285927474498749,-0.019776180386543274
1771680921684642300,11.522642333984376,0.021379653364419937,0.02214321307837963,-0.006337540224194527
1771680921694980900,11.53298095703125,0.01954711228609085,-0.007788302376866341,-0.006948387715965509
1771680921705366000,11.543365966796875,0.01832541823387146,0.025808297097682953,0.00038177953683771193
1771680921715694800,11.55369482421875,0.01954711228609085,0.00259610079228878,0.0022143214009702206
1771680921726059000,11.56405908203125,0.01954711228609085,0.010537114925682545,0.004657710436731577
1771680921736408600,11.57440869140625,0.01954711228609085,-0.005344913341104984,0.00038177953683771193
1771680921746782700,11.58478271484375,0.017714571207761765,0.017867282032966614,0.01382041908800602
1771680921757122300,11.595122314453125,0.01832541823387146,-0.010842538438737392,-0.0014507622690871358
1771680921767506400,11.60550634765625,0.01832541823387146,0.025808297097682953,0.018707197159528732
1771680921777836300,11.615836181640624,0.020157959312200546,-0.0035123717971146107,0.005268557462841272
1771680921788199400,11.626199462890625,0.01954711228609085,0.021532366052269936,0.019928891211748123
1771680921798550000,11.636550048828125,0.021379653364419937,0.0068720318377017975,0.008933641016483307
1771680921808923100,11.646923095703125,0.02076880633831024,0.007482878863811493,0.009544488042593002
1771680921819263700,11.657263671875,0.023823043331503868,0.012980503961443901,0.018096350133419037
1771680921829646800,11.667646728515624,0.02076880633831024,-0.007788302376866341,0.010766183026134968
1771680921839977700,11.677977783203126,0.01954711228609085,0.027029991149902344,0.024815669283270836
1771680921850339800,11.68833984375,0.01832541823387146,-0.004734066314995289,0.018707197159528732
1771680921860717000,11.698717041015625,0.01832541823387146,0.0325276181101799,0.043141089379787445
1771680921871063600,11.7090634765625,0.017714571207761765,-0.010231691412627697,0.030313294380903244
1771680921881410000,11.71941015625,0.024433890357613564,0.014813045971095562,0.05047125369310379
1771680921891762200,11.72976220703125,0.023823043331503868,-0.011453386396169662,0.0620773509144783
1771680921902133800,11.7401337890625,0.02504473738372326,-0.0016798300202935934,0.0626882016658783
1771680921912476000,11.750475830078125,0.024433890357613564,-0.0029015245381742716,0.07307260483503342
1771680921922857500,11.760857421875,0.02076880633831024,-0.009009997360408306,0.0761268362402916
1771680921933190000,11.77118994140625,0.020157959312200546,0.00259610079228878,0.07185091078281403
1771680921943546600,11.781546630859374,0.02076880633831024,-0.0022906772792339325,0.06574243307113647
1771680921953903600,11.791903564453126,0.021990500390529633,-0.009009997360408306,0.06757497787475586
1771680921964274200,11.802274169921875,0.021990500390529633,-0.007177455350756645,0.057801421731710434
1771680921974617300,11.812617431640625,0.02626643143594265,0.001985253533348441,0.04008685052394867
1771680921984998000,11.822997802734376,0.02748812735080719,-0.0004581354442052543,0.04253023862838745
1771680921995331300,11.833331298828124,0.02748812735080719,0.021532366052269936,0.041919391602277756
1771680922005691000,11.84369091796875,0.02504473738372326,0.011147962883114815,0.026037365198135376
1771680922016045000,11.854045166015625,0.02626643143594265,0.00992626789957285,0.014431266114115715
1771680922026414600,11.86441455078125,0.025655584409832954,0.008093725889921188,0.01382041908800602
1771680922036758800,11.8747587890625,0.02504473738372326,-0.0029015245381742716,-0.0008399150101467967
1771680922047138300,11.88513818359375,0.022601349279284477,-0.0010689827613532543,-0.010613471269607544
1771680922057472500,11.895472412109376,0.02076880633831024,-0.0010689827613532543,-0.01916533336043358
1771680922067831300,11.905831298828126,0.02076880633831024,-0.0022906772792339325,-0.01794363744556904
1771680922078208500,11.91620849609375,0.01832541823387146,-0.0035123717971146107,-0.02160872146487236
1771680922088555000,11.926554931640625,0.02076880633831024,0.0007635590736754239,-0.025884652510285378
1771680922098900200,11.936900146484374,0.021990500390529633,-0.0035123717971146107,-0.016721943393349648
1771680922109278700,11.94727880859375,0.023212196305394173,0.007482878863811493,-0.01916533336043358
1771680922119614200,11.9576142578125,0.023823043331503868,-0.0035123717971146107,-0.02038702741265297
1771680922129971700,11.9679716796875,0.023823043331503868,0.01725643500685692,-0.011835165321826935
1771680922140349000,11.978348876953126,0.023212196305394173,0.0007635590736754239,-0.014278554357588291
1771680922150695400,11.9886953125,0.020157959312200546,0.013591351918876171,-0.015500249341130257
1771680922161042000,11.9990419921875,0.02076880633831024,0.00992626789957285,-0.010002624243497849
1771680922171398700,12.009398681640626,0.020157959312200546,0.001985253533348441,-0.008170082233846188
1771680922181765600,12.019765625,0.01832541823387146,0.010537114925682545,-0.013667707331478596
1771680922192112400,12.0301123046875,0.020157959312200546,0.001985253533348441,-0.0051158457063138485
1771680922202489300,12.0404892578125,0.020157959312200546,0.011147962883114815,-0.0014507622690871358
1771680922212826000,12.050826171875,0.02076880633831024,-0.0004581354442052543,-0.009391776286065578
1771680922223212800,12.061212890625,0.021379653364419937,0.025808297097682953,-0.002061609411612153
1771680922233540000,12.0715400390625,0.024433890357613564,-0.0035123717971146107,-0.0008399150101467967
1771680922243906000,12.081906005859375,0.024433890357613564,0.012369656935334206,-0.006948387715965509
1771680922254253800,12.09225390625,0.023823043331503868,0.001374406274408102,-0.010613471269607544
1771680922264629800,12.102629638671875,0.025655584409832954,0.017867282032966614,0.0009926267666742206
1771680922274967800,12.1129677734375,0.024433890357613564,0.001985253533348441,-0.006948387715965509
1771680922285353200,12.123353271484374,0.021990500390529633,0.008704573847353458,-0.007559234742075205
1771680922295681500,12.133681640625,0.023212196305394173,0.016034740954637527,0.00038177953683771193
1771680922306046500,12.14404638671875,0.018936265259981155,0.0050394898280501366,0.00038177953683771193
1771680922316395300,12.154395263671875,0.017714571207761765,0.012980503961443901,-0.006948387715965509
1771680922326770200,12.164770263671874,0.01710372418165207,0.01725643500685692,0.004046862944960594
1771680922337109000,12.17510888671875,0.01710372418165207,0.009315420873463154,-0.002672456670552492
1771680922347493600,12.18549365234375,0.016492875292897224,0.010537114925682545,-0.0051158457063138485
1771680922357823000,12.195822998046875,0.01832541823387146,0.0325276181101799,-0.0014507622690871358
1771680922368187000,12.206186767578124,0.01710372418165207,0.01847812905907631,0.0034360159188508987
1771680922378563800,12.216563720703125,0.018936265259981155,0.023975754156708717,-0.008170082233846188
1771680922388910600,12.22691064453125,0.022601349279284477,0.02092151902616024,-0.006337540224194527
1771680922399250400,12.23725048828125,0.023212196305394173,0.03130592033267021,0.0034360159188508987
1771680922409634000,12.247634033203125,0.02076880633831024,0.009315420873463154,-0.007559234742075205
1771680922419964400,12.25796435546875,0.021379653364419937,0.029473381116986275,-0.004504998680204153
1771680922430327300,12.268327392578126,0.02076880633831024,0.007482878863811493,0.00038177953683771193
1771680922440678100,12.27867822265625,0.017714571207761765,0.0050394898280501366,-0.0051158457063138485
1771680922451051000,12.289051025390625,0.01710372418165207,-0.0010689827613532543,-0.011835165321826935
1771680922461397500,12.2993974609375,0.014660334214568138,0.014202198944985867,0.0016034740256145597
1771680922471748900,12.309748779296875,0.012827792204916477,-0.0065666078589856625,-0.006337540224194527
1771680922482121200,12.320121337890624,0.010995250195264816,-0.0035123717971146107,-0.008170082233846188
1771680922492462600,12.330462646484374,0.013438640162348747,0.011147962883114815,0.00038177953683771193
1771680922502844700,12.3408447265625,0.014660334214568138,-0.010231691412627697,-0.0014507622690871358
1771680922513176600,12.351176513671875,0.014049487188458443,0.023975754156708717,-0.00022906772210262716
1771680922523538000,12.361537841796874,0.01710372418165207,0.0050394898280501366,0.004046862944960594
1771680922533890300,12.371890380859375,0.014660334214568138,0.017867282032966614,0.008933641016483307
1771680922544261600,12.38226171875,0.014660334214568138,0.008093725889921188,0.004046862944960594
1771680922554604000,12.39260400390625,0.014049487188458443,0.014813045971095562,0.0022143214009702206
1771680922564985000,12.402985107421875,0.010995250195264816,0.013591351918876171,0.01748550310730934
1771680922575318000,12.413318115234375,0.010995250195264816,-0.01511846948415041,-0.006337540224194527
1771680922585678300,12.42367822265625,0.012827792204916477,0.016034740954637527,0.011377030052244663
1771680922596031700,12.43403173828125,0.011606098152697086,-0.004734066314995289,0.009544488042593002
1771680922606402000,12.444402099609375,0.012216945178806782,-0.004734066314995289,0.007711946498602629
1771680922616745500,12.454745361328126,0.015271181240677834,-0.0065666078589856625,0.004657710436731577
