time,seconds_elapsed,z,y,x
1771680910377419300,0.215419189453125,9.92542839050293,0.5312066078186035,0.7106683254241943
1771680910398133000,0.236133056640625,9.958928108215332,0.5718846321105957,0.6795616149902344
1771680910418846700,0.2568466796875,9.805787086486816,0.47617170214653015,0.27038896083831787
1771680910429203500,0.267203369140625,9.834501266479492,0.605384111404419,0.13878370821475983
1771680910439560400,0.277560546875,9.844072341918945,0.5024927258491516,0.23449662327766418
1771680910449917200,0.287917236328125,9.896714210510254,0.5168496966362,0.576670229434967
1771680910460274000,0.29827392578125,9.997213363647461,0.5431707501411438,0.849452018737793
1771680910470631000,0.308630859375,10.021141052246094,0.5575276613235474,0.8063812255859375
1771680910480987600,0.318987548828125,9.91825008392334,0.6604190468788147,0.4091726839542389
1771680910491344400,0.329344482421875,9.724431037902832,0.638883650302887,0.08374879509210587
1771680910512058000,0.35005810546875,9.934999465942383,0.5407779216766357,0.4426721930503845
1771680910522415000,0.3604150390625,9.767501831054688,0.5024927258491516,0.7202396392822266
1771680910532771800,0.370771728515625,10.045069694519043,0.5982056856155396,0.8470591902732849
1771680910543128600,0.381128662109375,9.889535903930664,0.5742774605751038,0.6460621356964111
1771680910553485600,0.391485595703125,9.688538551330566,0.5407779216766357,0.44027936458587646
1771680910563842300,0.40184228515625,9.949356079101562,0.5335994362831116,0.22013968229293823
1771680910574199000,0.412198974609375,9.717252731323242,0.5718846321105957,0.12203395366668701
1771680910584556000,0.42255615234375,9.978070259094238,0.5024927258491516,0.31345975399017334
1771680910594912800,0.432912841796875,9.760323524475098,0.4498506486415863,0.7226324677467346
1771680910605269800,0.443269775390625,10.061819076538086,0.4905286431312561,0.8877372145652771
1771680910615626500,0.45362646484375,9.978070259094238,0.5024927258491516,0.7202396392822266
1771680910625983200,0.463983154296875,9.963713645935059,0.5910272002220154,0.3278166949748993
1771680910636340200,0.47434033203125,9.671789169311523,0.6197410821914673,0.04307080805301666
1771680910646697000,0.484697021484375,9.858428955078125,0.3756731450557709,0.16510476171970367
1771680910657054000,0.495053955078125,9.841679573059082,0.5718846321105957,0.48574298620224
1771680910667410700,0.50541064453125,10.066604614257812,0.42352959513664246,0.7872386574745178
1771680910677767400,0.515767333984375,9.990034103393555,0.6293123364448547,0.7465606927871704
1771680910688124400,0.52612451171875,9.949356079101562,0.49292147159576416,0.5312066078186035
1771680910698481200,0.536481201171875,9.66939640045166,0.48574298620224,0.32303106784820557
1771680910708838000,0.546837890625,10.01874828338623,0.5431707501411438,0.12203395366668701
1771680910719195000,0.55719482421875,9.647860527038574,0.5240281820297241,0.15074782073497772
1771680910729551600,0.567551513671875,9.9469633102417,0.5072783827781677,0.38763725757598877
1771680910739908400,0.577908447265625,9.810572624206543,0.4546363055706024,0.7082754969596863
1771680910750265300,0.588265380859375,10.068997383117676,0.5647061467170715,0.8614161610603333
1771680910760622000,0.5986220703125,9.913464546203613,0.5599204897880554,0.5958128571510315
1771680910770978800,0.608978759765625,9.860821723937988,0.5934200286865234,0.1818545162677765
1771680910781335800,0.619335693359375,9.743574142456055,0.5575276613235474,-0.004785645287483931
1771680910791692500,0.629692626953125,9.580862045288086,0.37088751792907715,0.22971096634864807
1771680910802049500,0.640049560546875,9.978070259094238,0.5958128571510315,0.5910272002220154
1771680910812406300,0.65040625,9.841679573059082,0.5072783827781677,0.7728816866874695
1771680910822763000,0.660762939453125,10.179067611694336,0.6771687865257263,0.7154539823532104
1771680910833120000,0.6711201171875,9.686145782470703,0.5096712112426758,0.5216353535652161
1771680910843476700,0.681476806640625,9.90149974822998,0.5479564070701599,0.37088751792907715
1771680910853833700,0.691833740234375,9.755537986755371,0.6149554252624512,0.16271193325519562
1771680910864190500,0.7021904296875,9.760323524475098,0.5264210104942322,0.20817556977272034
1771680910874547200,0.712547119140625,9.973284721374512,0.5024927258491516,0.5168496966362
1771680910884904200,0.722904296875,9.870393753051758,0.48813581466674805,0.8350951075553894
1771680910895261000,0.733260986328125,10.088140487670898,0.5264210104942322,0.8709874153137207
1771680910905617700,0.74361767578125,9.824930191040039,0.576670229434967,0.5551348328590393
1771680910915974700,0.753974609375,9.9469633102417,0.6029912829399109,0.1866401731967926
1771680910926331400,0.764331298828125,9.65503978729248,0.5024927258491516,0.062213387340307236
1771680910936688400,0.7746884765625,9.891928672790527,0.48574298620224,0.3732803463935852
1771680910947045000,0.785045166015625,9.987641334533691,0.5551348328590393,0.7130611538887024
1771680910957401900,0.79540185546875,9.860821723937988,0.5024927258491516,0.8303094506263733
1771680910967758800,0.8057587890625,10.037891387939453,0.638883650302887,0.7010970115661621
1771680910978115600,0.816115478515625,9.719645500183105,0.5072783827781677,0.4570291340351105
1771680910988472300,0.826472412109375,9.908679008483887,0.46420758962631226,0.26560330390930176
1771680910998829300,0.836829345703125,9.590433120727539,0.641276478767395,0.21774685382843018
1771680911009186000,0.84718603515625,9.78664493560791,0.4977070987224579,0.2512463629245758
1771680911019542800,0.857542724609375,9.930213928222656,0.4785645306110382,0.6340979933738708
1771680911029899800,0.867899658203125,9.77707290649414,0.5670989751815796,0.8231309652328491
1771680911040256500,0.878256591796875,10.171889305114746,0.5383850932121277,0.8087740540504456
1771680911050613500,0.888613525390625,9.674181938171387,0.6628118753433228,0.3732803463935852
1771680911060970200,0.89897021484375,9.930213928222656,0.6293123364448547,0.08614161610603333
1771680911071327000,0.909326904296875,9.487542152404785,0.5120640397071838,0.12203395366668701
1771680911081684000,0.91968408203125,9.92542839050293,0.5575276613235474,0.46420758962631226
1771680911092040700,0.930040771484375,9.903892517089844,0.5048855543136597,0.7322037220001221
1771680911102397400,0.9403974609375,9.856036186218262,0.5647061467170715,0.7441678643226624
1771680911112754400,0.95075439453125,10.095318794250488,0.5838487148284912,0.5623133182525635
1771680911123111200,0.961111083984375,9.702896118164062,0.5096712112426758,0.35413774847984314
1771680911133468200,0.97146826171875,10.009177207946777,0.5072783827781677,0.18424734473228455
1771680911143825000,0.981824951171875,9.719645500183105,0.5694918036460876,0.14356936514377594
1771680911154181600,0.992181640625,9.908679008483887,0.4426721930503845,0.3517449200153351
1771680911164538600,1.00253857421875,9.858428955078125,0.40677985548973083,0.7130611538887024
1771680911174895400,1.012895263671875,10.016355514526367,0.4570291340351105,0.8303094506263733
1771680911185252000,1.023252197265625,10.006784439086914,0.5647061467170715,0.5934200286865234
1771680911195609000,1.033609130859375,9.836894035339355,0.5551348328590393,0.2632105052471161
1771680911205965800,1.0439658203125,9.877572059631348,0.576670229434967,-0.014356935396790504
1771680911216322800,1.05432275390625,9.722038269042969,0.35892340540885925,0.1579262912273407
1771680911226679600,1.064679443359375,10.159924507141113,0.576670229434967,0.5647061467170715
1771680911237036300,1.075036376953125,9.745966911315918,0.48813581466674805,0.8015955686569214
1771680911247393300,1.085393310546875,10.054640769958496,0.5742774605751038,0.7824530005455017
1771680911257750000,1.09575,9.841679573059082,0.6101697683334351,0.5024927258491516
1771680911268106800,1.106106689453125,9.841679573059082,0.48095735907554626,0.34695929288864136
1771680911278463700,1.116463623046875,9.757930755615234,0.6245267391204834,0.22013968229293823
1771680911288820500,1.126820556640625,9.767501831054688,0.5575276613235474,0.24167509377002716
1771680911299177500,1.137177490234375,9.891928672790527,0.5096712112426758,0.5072783827781677
1771680911309534200,1.1475341796875,9.7938232421875,0.5000999569892883,0.8446664214134216
1771680911319891000,1.157890869140625,10.097711563110352,0.5742774605751038,0.8662018179893494
1771680911330248000,1.168248046875,9.81535816192627,0.6101697683334351,0.5431707501411438
1771680911340604700,1.178604736328125,9.839286804199219,0.6436693072319031,0.1746760457754135
1771680911350961700,1.188961669921875,9.657432556152344,0.5958128571510315,0.07417750358581543
1771680911361318400,1.199318359375,9.80100154876709,0.48095735907554626,0.32542386651039124
1771680911371675100,1.209675048828125,9.827322959899902,0.5264210104942322,0.6532405614852905
1771680911382032100,1.2200322265625,9.990034103393555,0.4785645306110382,0.7968099117279053
1771680911392388900,1.230388916015625,10.073782920837402,0.5910272002220154,0.6101697683334351
1771680911402745600,1.24074560546875,9.80817985534668,0.4905286431312561,0.4905286431312561
1771680911413102600,1.2511025390625,9.856036186218262,0.5623133182525635,0.20817556977272034
1771680911423459300,1.261459228515625,9.798608779907227,0.607776939868927,0.15553347766399384
1771680911433816000,1.271816162109375,9.872786521911621,0.46420758962631226,0.23688943684101105
1771680911444173000,1.282173095703125,9.942177772521973,0.41156548261642456,0.6197410821914673
1771680911454529800,1.29252978515625,9.987641334533691,0.45224347710609436,0.7968099117279053
1771680911464886800,1.30288671875,9.851250648498535,0.4953143000602722,0.7034898400306702
1771680911475243500,1.313243408203125,10.073782920837402,0.5934200286865234,0.34217363595962524
1771680911485600300,1.323600341796875,9.724431037902832,0.5814558863639832,0.04546362906694412
1771680911495957200,1.333957275390625,9.836894035339355,0.4259224236011505,0.16510476171970367
1771680911506314000,1.34431396484375,9.884750366210938,0.4713860750198364,0.5024927258491516
1771680911516671000,1.3546708984375,9.980463027954102,0.4498506486415863,0.7441678643226624
1771680911527027700,1.36502783203125,9.920642852783203,0.5862415432929993,0.7058826684951782
1771680911537384400,1.375384521484375,9.884750366210938,0.5982056856155396,0.5216353535652161
1771680911547741400,1.385741455078125,9.772287368774414,0.5814558863639832,0.37806597352027893
1771680911558098200,1.39609814453125,9.736394882202148,0.5551348328590393,0.21296121180057526
1771680911568455000,1.406454833984375,9.817750930786133,0.6364908218383789,0.21296121180057526
1771680911578812000,1.41681201171875,9.750752449035645,0.607776939868927,0.35413774847984314
1771680911589168600,1.427168701171875,9.844072341918945,0.5431707501411438,0.7106683254241943
1771680911599525400,1.437525390625,9.860821723937988,0.48574298620224,0.8733802437782288
1771680911609882400,1.44788232421875,10.109675407409668,0.6771687865257263,0.6269195079803467
1771680911620239000,1.458239013671875,9.67657470703125,0.5910272002220154,0.27756741642951965
1771680911630596000,1.46859619140625,9.836894035339355,0.6364908218383789,0.07657032459974289
1771680911640952800,1.478952880859375,9.640682220458984,0.47617170214653015,0.2392822653055191
1771680911651309600,1.4893095703125,10.088140487670898,0.6173482537269592,0.6221339106559753
1771680911661666600,1.49966650390625,9.736394882202148,0.43549370765686035,0.7872386574745178
1771680911672023300,1.510023193359375,10.095318794250488,0.6173482537269592,0.7154539823532104
1771680911682380300,1.52038037109375,9.765109062194824,0.4833501875400543,0.49292147159576416
1771680911692737000,1.530737060546875,9.899106979370117,0.5383850932121277,0.3613162338733673
1771680911703093800,1.54109375,9.707681655883789,0.46899324655532837,0.12442677468061447
1771680911713450800,1.55145068359375,10.001998901367188,0.519242525100708,0.2392822653055191
1771680911723807500,1.561807373046875,9.817750930786133,0.2847459018230438,0.5742774605751038
1771680911734164500,1.57216455078125,10.080962181091309,0.44745782017707825,0.794417142868042
1771680911744521200,1.582521240234375,10.071390151977539,0.4570291340351105,0.882951557636261
1771680911754878000,1.5928779296875,9.934999465942383,0.5455635786056519,0.4307080805301666
1771680911765235000,1.60323486328125,9.978070259094238,0.6364908218383789,0.12681959569454193
1771680911775591700,1.613591796875,9.592825889587402,0.4618147611618042,-0.004785645287483931
1771680911785948400,1.623948486328125,10.1814603805542,0.6604190468788147,0.44745782017707825
1771680911796305400,1.634305419921875,9.757930755615234,0.5048855543136597,0.6675975322723389
1771680911806662100,1.644662109375,10.080962181091309,0.48813581466674805,0.7417750358581543
1771680911817019100,1.65501904296875,9.726823806762695,0.6005984544754028,0.5886343717575073
1771680911827375900,1.6653759765625,10.006784439086914,0.5335994362831116,0.4378865361213684
1771680911837732900,1.67573291015625,9.645467758178711,0.5431707501411438,0.1818545162677765
1771680911848089600,1.686089599609375,9.896714210510254,0.6125625967979431,0.1746760457754135
1771680911858446300,1.6964462890625,9.741181373596191,0.6005984544754028,0.363709032535553
1771680911868803300,1.70680322265625,9.760323524475098,0.47617170214653015,0.6364908218383789
1771680911879160000,1.71716015625,10.059426307678223,0.6364908218383789,0.8470591902732849
1771680911889516800,1.727516845703125,9.736394882202148,0.6269195079803467,0.6221339106559753
1771680911899873800,1.737873779296875,10.045069694519043,0.6436693072319031,0.3206382393836975
1771680911910230500,1.74823046875,9.521040916442871,0.5934200286865234,0.02153540402650833
1771680911920587500,1.75858740234375,9.853643417358398,0.38763725757598877,0.15074782073497772
1771680911930944300,1.7689443359375,9.913464546203613,0.641276478767395,0.5216353535652161
1771680911941301000,1.779301025390625,9.841679573059082,0.36610186100006104,0.7489534616470337
1771680911951658000,1.789657958984375,9.980463027954102,0.5862415432929993,0.7465606927871704
1771680911962014700,1.8000146484375,9.822537422180176,0.5479564070701599,0.5216353535652161
1771680911972371700,1.810371826171875,9.923035621643066,0.5216353535652161,0.3613162338733673
1771680911982728400,1.820728515625,9.736394882202148,0.5599204897880554,0.17706887423992157
1771680911993085200,1.831085205078125,9.863214492797852,0.5264210104942322,0.24406790733337402
1771680912003442200,1.841442138671875,9.824930191040039,0.47617170214653015,0.4737788736820221
1771680912013799000,1.851798828125,9.963713645935059,0.3924229145050049,0.7920243144035339
1771680912024155600,1.86215576171875,10.028319358825684,0.5383850932121277,0.851844847202301
1771680912034512600,1.8725126953125,9.978070259094238,0.5048855543136597,0.5982056856155396
1771680912044869400,1.882869384765625,9.899106979370117,0.6317051649093628,0.21296121180057526
1771680912055226400,1.893226318359375,9.760323524475098,0.5096712112426758,0.08374879509210587
1771680912065583000,1.9035830078125,9.767501831054688,0.4259224236011505,0.31345975399017334
1771680912075940000,1.913940185546875,9.997213363647461,0.6245267391204834,0.6795616149902344
1771680912086296800,1.924296875,9.870393753051758,0.44027936458587646,0.7800601720809937
1771680912096653600,1.934653564453125,10.052248001098633,0.6795616149902344,0.6795616149902344
1771680912107010600,1.945010498046875,9.67657470703125,0.4666004180908203,0.48574298620224
1771680912117367300,1.9553671875,9.956535339355469,0.605384111404419,0.2512463629245758
1771680912127724000,1.96572412109375,9.722038269042969,0.6245267391204834,0.12203395366668701
1771680912138081000,1.9760810546875,9.856036186218262,0.6125625967979431,0.21296121180057526
1771680912148437800,1.986437744140625,9.745966911315918,0.42831525206565857,0.5647061467170715
1771680912158794800,1.996794677734375,9.930213928222656,0.5886343717575073,0.8566305041313171
1771680912169151500,2.0071513671875,9.923035621643066,0.5431707501411438,0.7872386574745178
1771680912179508500,2.017508544921875,9.913464546203613,0.6891329288482666,0.45224347710609436
1771680912189865200,2.027865234375,9.688538551330566,0.6484549641609192,0.05742774158716202
1771680912200222000,2.038221923828125,9.729216575622559,0.4785645306110382,0.15314064919948578
1771680912210579000,2.048578857421875,9.707681655883789,0.5168496966362,0.363709032535553
1771680912220935700,2.058935791015625,10.03549861907959,0.5742774605751038,0.8446664214134216
1771680912231292400,2.06929248046875,9.848857879638672,0.4498506486415863,0.7393822073936462
1771680912241649400,2.0796494140625,10.193424224853516,0.6245267391204834,0.48095735907554626
1771680912252006100,2.090006103515625,9.633503913879395,0.4713860750198364,0.4713860750198364
1771680912262363100,2.100363037109375,9.824930191040039,0.4426721930503845,0.1818545162677765
1771680912272720000,2.110719970703125,9.69093132019043,0.6269195079803467,0.26081767678260803
1771680912283076900,2.121076904296875,9.729216575622559,0.35892340540885925,0.4019941985607147
1771680912293433600,2.13143359375,9.870393753051758,0.4211367964744568,0.7369893789291382
1771680912303790300,2.141790283203125,9.920642852783203,0.46899324655532837,0.8303094506263733
1771680912314147300,2.152147216796875,10.191031455993652,0.4713860750198364,0.6652047038078308
1771680912324504000,2.162504150390625,9.65503978729248,0.5718846321105957,0.33020952343940735
1771680912334861000,2.172861083984375,9.973284721374512,0.45942193269729614,0.11485548317432404
1771680912345217800,2.1832177734375,9.501898765563965,0.3756731450557709,0.30149564146995544
1771680912355574500,2.193574462890625,10.133604049682617,0.6819544434547424,0.7034898400306702
1771680912365931500,2.203931640625,9.602396965026855,0.36610186100006104,0.8805587291717529
1771680912376288300,2.214288330078125,9.784252166748047,0.6675975322723389,0.7704889178276062
1771680912386645200,2.224645263671875,9.729216575622559,0.42831525206565857,0.6101697683334351
1771680912397002000,2.235001953125,9.784252166748047,0.5886343717575073,0.3158525824546814
1771680912407358700,2.245358642578125,9.899106979370117,0.5407779216766357,0.24406790733337402
1771680912417715700,2.2557158203125,9.561718940734863,0.5216353535652161,0.2225325107574463
1771680912428072400,2.266072509765625,9.913464546203613,0.46899324655532837,0.5216353535652161
1771680912438429400,2.276429443359375,9.839286804199219,0.4570291340351105,0.7417750358581543
1771680912448786200,2.2867861328125,9.994820594787598,0.576670229434967,0.7537391185760498
1771680912459143200,2.29714306640625,9.846465110778809,0.6221339106559753,0.46420758962631226
1771680912469500000,2.3075,9.762716293334961,0.6149554252624512,0.16271193325519562
1771680912479856600,2.317856689453125,9.748359680175781,0.5216353535652161,0.14117653667926788
1771680912490213600,2.328213623046875,9.844072341918945,0.5024927258491516,0.380458801984787
1771680912500570400,2.3385703125,10.021141052246094,0.638883650302887,0.6484549641609192
1771680912510927400,2.34892724609375,9.839286804199219,0.4977070987224579,0.7322037220001221
1771680912521284000,2.3592841796875,9.978070259094238,0.5647061467170715,0.607776939868927
1771680912531641000,2.36964111328125,9.731609344482422,0.5144568681716919,0.43549370765686035
1771680912541997800,2.379997802734375,9.896714210510254,0.5407779216766357,0.30628129839897156
1771680912552354600,2.3903544921875,9.789037704467773,0.5910272002220154,0.1698904037475586
1771680912562711600,2.400711669921875,9.822537422180176,0.4785645306110382,0.26081767678260803
1771680912573068300,2.411068359375,9.848857879638672,0.4211367964744568,0.6269195079803467
1771680912583425300,2.42142529296875,9.899106979370117,0.4618147611618042,0.794417142868042
1771680912593782000,2.431781982421875,10.030712127685547,0.5790630578994751,0.6580262184143066
1771680912604138800,2.442138671875,9.896714210510254,0.5838487148284912,0.2871387302875519
1771680912614495700,2.452495849609375,9.836894035339355,0.5838487148284912,0.05024927482008934
1771680912624852500,2.4628525390625,9.69093132019043,0.4666004180908203,0.18903298676013947
1771680912635209500,2.47320947265625,9.978070259094238,0.5096712112426758,0.46899324655532837
1771680912645566200,2.483566162109375,9.944570541381836,0.5527420043945312,0.6675975322723389
1771680912655923200,2.493923095703125,9.975677490234375,0.5000999569892883,0.6891329288482666
1771680912666280000,2.504280029296875,9.841679573059082,0.605384111404419,0.45942193269729614
1771680912676636700,2.51463671875,9.762716293334961,0.4905286431312561,0.36610186100006104
1771680912686993700,2.52499365234375,9.891928672790527,0.6317051649093628,0.14835500717163086
1771680912697350400,2.535350341796875,9.702896118164062,0.5838487148284912,0.15314064919948578
1771680912707707400,2.545707275390625,9.872786521911621,0.5288137793540955,0.34695929288864136
1771680912718064000,2.556064208984375,9.817750930786133,0.43549370765686035,0.7130611538887024
1771680912728420900,2.5664208984375,9.930213928222656,0.5048855543136597,0.8063812255859375
1771680912738777900,2.57677783203125,9.997213363647461,0.6245267391204834,0.5910272002220154
1771680912749134600,2.587134521484375,9.89432144165039,0.5694918036460876,0.2225325107574463
1771680912759491600,2.59749169921875,9.688538551330566,0.576670229434967,0.038285162299871445
1771680912769848300,2.607848388671875,9.719645500183105,0.39481574296951294,0.25363919138908386
1771680912780205300,2.618205322265625,9.91825008392334,0.6819544434547424,0.5910272002220154
1771680912790562000,2.62856201171875,9.899106979370117,0.44027936458587646,0.8111668825149536
1771680912800919000,2.6389189453125,9.868000984191895,0.9379864931106567,0.7369893789291382
1771680912811275800,2.64927587890625,9.992427825927734,1.4021940231323242,0.8638089895248413
1771680912821632500,2.659632568359375,10.114460945129395,0.8997012972831726,0.4259224236011505
1771680912831989500,2.669989501953125,9.688538551330566,0.43549370765686035,-0.014356935396790504
1771680912842346200,2.68034619140625,9.757930755615234,0.48574298620224,-0.11246266216039658
1771680912852703200,2.690703125,9.93978500366211,1.25144624710083,0.2105683982372284
1771680912863060000,2.70106005859375,10.112068176269531,1.1700903177261353,0.9020941257476807
1771680912873417000,2.7114169921875,9.954142570495605,0.22971096634864807,1.3399807214736938
1771680912883773700,2.721773681640625,9.233902931213379,0.5862415432929993,0.8709874153137207
1771680912894130400,2.73213037109375,10.176674842834473,1.1676974296569824,0.41874396800994873
1771680912904487400,2.7424873046875,9.489934921264648,1.5146567821502686,-0.02871387079358101
1771680912914844200,2.75284423828125,9.32722282409668,0.7130611538887024,0.1698904037475586
1771680912925201200,2.763201171875,10.083354949951172,1.1150553226470947,0.31106695532798767
1771680912935558000,2.773557861328125,9.882357597351074,0.8997012972831726,0.5623133182525635
1771680912945915000,2.783914794921875,10.246066093444824,0.6269195079803467,0.6795616149902344
1771680912956271600,2.794271728515625,9.81535816192627,0.973878800868988,0.8111668825149536
1771680912966628400,2.80462841796875,10.04267692565918,0.7872386574745178,0.6891329288482666
1771680912976985300,2.8149853515625,9.401400566101074,1.0648061037063599,0.2967100143432617
1771680912987342000,2.825342041015625,9.535398483276367,1.0121639966964722,0.05742774158716202
1771680912997699000,2.835698974609375,9.513862609863281,1.1700903177261353,0.1579262912273407
1771680913008055800,2.846055908203125,9.623932838439941,1.1222338676452637,0.7034898400306702
1771680913018412800,2.856412841796875,9.987641334533691,0.8159525394439697,0.8805587291717529
1771680913028769500,2.86676953125,9.915857315063477,0.6245267391204834,0.6245267391204834
1771680913039126300,2.877126220703125,10.054640769958496,0.698704183101654,0.3397808074951172
1771680913049483300,2.887483154296875,10.162318229675293,1.1054840087890625,0.11485548317432404
1771680913059840000,2.897840087890625,10.03549861907959,1.1413763761520386,0.2153540402650833
1771680913070197000,2.908197021484375,9.755537986755371,0.4666004180908203,0.5096712112426758
1771680913080553700,2.9185537109375,9.731609344482422,0.8566305041313171,0.6029912829399109
1771680913090910700,2.92891064453125,9.8871431350708,0.9379864931106567,0.6173482537269592
1771680913101267500,2.939267333984375,9.841679573059082,1.1581261157989502,0.4713860750198364
1771680913111624400,2.94962451171875,9.820143699645996,1.4117653369903564,0.44027936458587646
1771680913121981200,2.959981201171875,9.81535816192627,0.6269195079803467,0.44027936458587646
1771680913132338200,2.970338134765625,9.748359680175781,0.6197410821914673,0.22971096634864807
1771680913142695000,2.98069482421875,10.107282638549805,0.5024927258491516,0.1746760457754135
1771680913153051600,2.9910517578125,10.155138969421387,0.8973084688186646,0.08614161610603333
1771680913163408600,3.00140869140625,10.186245918273926,1.3304094076156616,0.5575276613235474
1771680913173765400,3.011765380859375,10.17428207397461,1.1365907192230225,0.9571290612220764
1771680913184122400,3.022122314453125,9.477970123291016,0.3326023519039154,0.8877372145652771
1771680913194479000,3.03247900390625,9.300901412963867,0.4666004180908203,0.4977070987224579
1771680913204836000,3.042836181640625,9.858428955078125,1.0193424224853516,0.040677983313798904
1771680913215192800,3.05319287109375,9.415757179260254,1.093519926071167,-0.1986042857170105
1771680913225549800,3.0635498046875,9.968499183654785,1.6319050788879395,0.23449662327766418
1771680913235906600,3.073906494140625,10.109675407409668,0.7920243144035339,0.8327022790908813
1771680913246263300,3.08426318359375,9.789037704467773,0.1818545162677765,1.00259268283844
1771680913256620300,3.094620361328125,9.829715728759766,0.48813581466674805,0.7010970115661621
1771680913266977000,3.10497705078125,10.425528526306152,0.8590233325958252,0.2679961323738098
1771680913277334000,3.115333984375,9.391828536987305,1.5792629718780518,-0.02871387079358101
1771680913287690800,3.125690673828125,10.12881851196289,1.495514154434204,0.40677985548973083
1771680913298047700,3.1360478515625,9.45882797241211,0.0933200865983963,0.6891329288482666
1771680913308404500,3.146404541015625,8.894122123718262,0.10767702013254166,0.7728816866874695
1771680913318761500,3.156761474609375,10.327422142028809,0.9595218896865845,0.23449662327766418
1771680913329118200,3.1671181640625,9.966106414794922,1.4811571836471558,0.1818545162677765
1771680913339475200,3.17747509765625,9.781859397888184,1.5744773149490356,0.5168496966362
1771680913349832000,3.18783203125,10.557133674621582,1.069591760635376,0.9786644577980042
1771680913360188700,3.198188720703125,9.396614074707031,-0.3517449200153351,0.914058268070221
1771680913370545700,3.208545654296875,9.32004451751709,-0.019142581149935722,0.5288137793540955
1771680913380902700,3.218902587890625,10.49252700805664,1.2011969089508057,-0.14835500717163086
1771680913391259400,3.22925927734375,9.650253295898438,1.7922241687774658,-0.02392822690308094
1771680913401616100,3.2396162109375,10.272387504577637,1.4691931009292603,0.4378865361213684
1771680913411973000,3.24997314453125,9.975677490234375,0.5742774605751038,1.007378339767456
1771680913422329900,3.260329833984375,8.970691680908203,0.20817556977272034,0.8997012972831726
1771680913432686800,3.270686767578125,10.1814603805542,0.4043870270252228,0.363709032535553
1771680913443043600,3.281043701171875,9.822537422180176,1.648654818534851,0.07417750358581543
1771680913453400600,3.291400634765625,9.741181373596191,1.0360921621322632,0.5335994362831116
1771680913463757300,3.30175732421875,10.305887222290039,0.7106683254241943,0.4785645306110382
1771680913474114300,3.3121142578125,9.284152030944824,0.727418065071106,0.3900300860404968
1771680913484471000,3.322470947265625,10.102497100830078,0.6340979933738708,0.31824541091918945
1771680913494827800,3.332827880859375,10.109675407409668,1.2705888748168945,0.5144568681716919
1771680913505184800,3.343184814453125,9.597611427307129,0.882951557636261,0.8901300430297852
1771680913515541800,3.353541748046875,10.164710998535156,0.6771687865257263,0.7417750358581543
1771680913525898500,3.3638984375,9.308079719543457,0.97148597240448,0.12681959569454193
1771680913536255200,3.374255126953125,9.973284721374512,0.8614161610603333,-0.038285162299871445
1771680913546612200,3.3846123046875,9.779465675354004,1.1509476900100708,0.4618147611618042
1771680913556969000,3.394968994140625,9.944570541381836,0.727418065071106,0.6915257573127747
1771680913567326000,3.405325927734375,9.822537422180176,0.48813581466674805,0.7489534616470337
1771680913577682700,3.4156826171875,9.985248565673828,1.1222338676452637,0.3732803463935852
1771680913588039700,3.426039794921875,9.93260669708252,1.3184453248977661,0.4091726839542389
1771680913598396400,3.436396484375,10.01156997680664,0.6867401003837585,0.6795616149902344
1771680913608766000,3.446765869140625,9.463613510131836,0.48813581466674805,0.3852444589138031
1771680913619110100,3.457110107421875,9.66939640045166,0.8925228714942932,0.08614161610603333
1771680913629489700,3.46748974609375,10.1814603805542,1.2969099283218384,0.14835500717163086
1771680913639824000,3.477823974609375,9.580862045288086,1.28255295753479,0.8087740540504456
1771680913650183000,3.488182861328125,10.305887222290039,0.7345965504646301,1.0432707071304321
1771680913660560000,3.498559814453125,9.53779125213623,0.6556333899497986,0.5694918036460876
1771680913670906400,3.50890625,9.836894035339355,0.7178468108177185,0.016749758273363113
1771680913681253000,3.519253173828125,10.097711563110352,1.3543375730514526,0.0933200865983963
1771680913691630000,3.529630126953125,9.827322959899902,1.0719845294952393,0.3565305769443512
1771680913701965000,3.539965087890625,9.805787086486816,0.40677985548973083,0.6843472719192505
1771680913712323300,3.5503232421875,9.68375301361084,1.0193424224853516,0.5814558863639832
1771680913722700300,3.5607001953125,9.820143699645996,1.1653046607971191,0.7226324677467346
1771680913733046800,3.571046875,9.978070259094238,1.0719845294952393,0.7058826684951782
1771680913743393500,3.5813935546875,9.542576789855957,0.6317051649093628,0.29431718587875366
1771680913753770500,3.5917705078125,9.607182502746582,0.9667003750801086,-0.01196411345154047
1771680913764117000,3.602116943359375,9.820143699645996,1.2323036193847656,0.20338992774486542
1771680913774463000,3.612462890625,10.162318229675293,0.9571290612220764,0.8087740540504456
1771680913784840700,3.6228408203125,9.681360244750977,0.38763725757598877,0.7752745151519775
1771680913795176700,3.6331767578125,10.006784439086914,0.8015955686569214,0.607776939868927
1771680913805534000,3.643533935546875,9.767501831054688,1.454836130142212,0.062213387340307236
1771680913815890400,3.653890380859375,10.15035343170166,1.3639088869094849,0.363709032535553
1771680913826257400,3.66425732421875,9.501898765563965,0.794417142868042,0.4091726839542389
1771680913836604200,3.674604248046875,9.45164966583252,0.5575276613235474,0.6005984544754028
1771680913846981000,3.684981201171875,9.884750366210938,1.1676974296569824,0.4498506486415863
1771680913857318000,3.69531787109375,10.066604614257812,1.246660590171814,0.6101697683334351
1771680913867704800,3.705704833984375,9.942177772521973,0.6747759580612183,0.4833501875400543
1771680913878031600,3.716031494140625,9.556933403015137,0.698704183101654,0.21774685382843018
1771680913888397800,3.726397705078125,10.009177207946777,1.4069796800613403,0.33020952343940735
1771680913898745300,3.736745361328125,10.092926025390625,1.1509476900100708,0.6891329288482666
1771680913909121500,3.74712158203125,9.839286804199219,0.7680960893630981,0.7202396392822266
1771680913919459000,3.757458984375,9.521040916442871,0.4905286431312561,0.576670229434967
1771680913929845200,3.76784521484375,9.92542839050293,1.3088740110397339,0.22492532432079315
1771680913940172800,3.7781728515625,10.066604614257812,1.4189438819885254,0.380458801984787
1771680913950538200,3.788538330078125,9.877572059631348,0.916451096534729,0.5527420043945312
1771680913960886500,3.798886474609375,9.415757179260254,0.3158525824546814,0.5623133182525635
1771680913971262000,3.809261962890625,10.076175689697266,1.2969099283218384,0.5000999569892883
1771680913981600300,3.819600341796875,10.102497100830078,1.3040883541107178,0.5670989751815796
1771680913991985700,3.829985595703125,9.923035621643066,0.8231309652328491,0.4833501875400543
1771680914002314000,3.84031396484375,9.257830619812012,0.5838487148284912,0.29431718587875366
1771680914012678700,3.8506787109375,10.006784439086914,1.4165509939193726,0.3732803463935852
1771680914023056000,3.861055908203125,9.923035621643066,1.3184453248977661,0.698704183101654
1771680914033402400,3.87140234375,9.954142570495605,0.6556333899497986,0.7058826684951782
1771680914043748900,3.881748779296875,9.336793899536133,0.43549370765686035,0.5048855543136597
1771680914054098200,3.89209814453125,10.001998901367188,1.2969099283218384,0.2392822653055191
1771680914064472600,3.90247265625,10.176674842834473,1.557727575302124,0.3613162338733673
1771680914074812000,3.91281201171875,9.729216575622559,0.7537391185760498,0.5359922647476196
1771680914085196300,3.9231962890625,9.446864128112793,0.42831525206565857,0.5838487148284912
1771680914095525600,3.933525634765625,9.91825008392334,1.5098711252212524,0.5455635786056519
1771680914105889300,3.94388916015625,10.29153060913086,1.2801600694656372,0.5383850932121277
1771680914116239400,3.9542392578125,9.57607650756836,0.5312066078186035,0.3158525824546814
1771680914126613000,3.964613037109375,9.439684867858887,0.6675975322723389,0.30149564146995544
1771680914136953000,3.974953125,9.970891952514648,1.4835500717163086,0.4139583110809326
1771680914147336700,3.985336669921875,10.195816993713379,1.3423734903335571,0.8327022790908813
1771680914157666800,3.995666748046875,9.674181938171387,0.5144568681716919,0.6245267391204834
1771680914168029700,4.00602978515625,9.645467758178711,0.5790630578994751,0.4546363055706024
1771680914178380500,4.016380615234375,9.949356079101562,1.4811571836471558,0.062213387340307236
1771680914188753400,4.02675341796875,10.258030891418457,1.4165509939193726,0.37088751792907715
1771680914199094300,4.03709423828125,9.604789733886719,0.5096712112426758,0.3756731450557709
1771680914209477000,4.04747705078125,9.643074989318848,0.4618147611618042,0.5718846321105957
1771680914219808000,4.05780810546875,9.997213363647461,1.423729419708252,0.5335994362831116
1771680914230170000,4.068170166015625,10.317851066589355,1.28255295753479,0.6460621356964111
1771680914240547300,4.07854736328125,9.482755661010742,0.6675975322723389,0.32542386651039124
1771680914250893800,4.088893798828125,9.707681655883789,0.882951557636261,0.29431718587875366
1771680914261235500,4.0992353515625,9.8871431350708,1.5361921787261963,0.37806597352027893
1771680914271617500,4.109617431640625,10.16710376739502,1.160519003868103,0.7393822073936462
1771680914281949200,4.11994921875,9.640682220458984,0.5623133182525635,0.5862415432929993
1771680914292310500,4.130310546875,9.695717811584473,0.576670229434967,0.5623133182525635
1771680914302687700,4.140687744140625,9.985248565673828,1.5026925802230835,0.038285162299871445
1771680914313034200,4.1510341796875,10.102497100830078,1.4715858697891235,0.4019941985607147
1771680914323380700,4.161380615234375,9.578469276428223,0.8374879360198975,0.4426721930503845
1771680914333758000,4.171758056640625,9.619147300720215,0.6604190468788147,0.6293123364448547
1771680914344104400,4.1821044921875,9.9469633102417,1.4428720474243164,0.4546363055706024
1771680914354447400,4.192447265625,9.999606132507324,1.2035897970199585,0.576670229434967
1771680914364828200,4.202828125,9.659825325012207,0.9236295223236084,0.397208571434021
1771680914375161000,4.2131611328125,9.56889820098877,0.7393822073936462,0.25363919138908386
1771680914385521200,4.223521240234375,9.853643417358398,1.4811571836471558,0.13639089465141296
1771680914395874800,4.233874755859375,10.030712127685547,1.3351950645446777,0.6532405614852905
1771680914406244900,4.244244873046875,9.90149974822998,0.9906286001205444,0.7130611538887024
1771680914416588500,4.254588623046875,9.461220741271973,0.6317051649093628,0.6867401003837585
1771680914426968600,4.264968505859375,10.054640769958496,1.4165509939193726,0.275174617767334
1771680914437302300,4.27530224609375,9.789037704467773,1.3854442834854126,0.12921242415905
1771680914447659000,4.285658935546875,9.963713645935059,1.0863415002822876,0.27038896083831787
1771680914458016000,4.29601611328125,9.56889820098877,0.9020941257476807,0.48095735907554626
1771680914468385300,4.30638525390625,9.899106979370117,0.9690931439399719,0.6484549641609192
1771680914478729700,4.316729736328125,10.03549861907959,1.3663017749786377,0.37806597352027893
1771680914489109000,4.32710888671875,9.891928672790527,1.1676974296569824,0.7058826684951782
1771680914499443500,4.337443359375,9.66939640045166,1.069591760635376,0.4498506486415863
1771680914509802000,4.347802001953125,9.745966911315918,1.1437692642211914,0.26560330390930176
1771680914520157200,4.3581572265625,9.798608779907227,1.3160524368286133,0.06699903309345245
1771680914530525700,4.368525634765625,9.980463027954102,1.3878371715545654,0.25363919138908386
1771680914540871000,4.378870849609375,9.78664493560791,1.1485549211502075,0.8087740540504456
1771680914551249400,4.38924951171875,9.999606132507324,0.8949156403541565,0.7728816866874695
1771680914561584600,4.399584716796875,9.841679573059082,0.8805587291717529,0.5694918036460876
1771680914571942400,4.4099423828125,9.994820594787598,1.1653046607971191,0.19381862878799438
1771680914582298400,4.42029833984375,10.068997383117676,1.6893328428268433,0.11246266216039658
1771680914592666000,4.430666015625,9.523433685302734,1.3543375730514526,0.3732803463935852
1771680914603012600,4.4410126953125,9.719645500183105,0.9451649188995361,0.6795616149902344
1771680914613389800,4.451389892578125,9.633503913879395,1.0887342691421509,0.6843472719192505
1771680914623736300,4.461736328125,10.068997383117676,1.2035897970199585,0.5838487148284912
1771680914634082600,4.47208251953125,9.923035621643066,1.4835500717163086,0.41874396800994873
1771680914644460000,4.4824599609375,9.772287368774414,0.8973084688186646,0.5335994362831116
1771680914654796300,4.49279638671875,9.772287368774414,1.0528420209884644,0.31824541091918945
1771680914665183700,4.503183837890625,9.66939640045166,1.1724830865859985,0.33020952343940735
1771680914675510000,4.513510009765625,10.262816429138184,1.3471591472625732,0.1579262912273407
1771680914685876700,4.523876708984375,9.719645500183105,1.7491533756256104,0.4211367964744568
1771680914696223700,4.5342236328125,10.224531173706055,1.2801600694656372,0.9188438653945923
1771680914706600400,4.544600341796875,9.138189315795898,0.9116654396057129,0.9332008361816406
1771680914716937500,4.5549375,9.832108497619629,0.8087740540504456,0.6340979933738708
1771680914727324200,4.56532421875,10.03310489654541,1.0480563640594482,0.12442677468061447
1771680914737651200,4.575651123046875,9.755537986755371,1.6630117893218994,-0.19621145725250244
1771680914748017200,4.58601708984375,10.660024642944336,1.923829436302185,0.2225325107574463
1771680914758365000,4.596364990234375,9.035298347473145,0.7417750358581543,0.7106683254241943
1771680914768740900,4.606740966796875,9.844072341918945,1.1413763761520386,0.914058268070221
1771680914779078700,4.61707861328125,10.348958015441895,0.9643075466156006,0.7752745151519775
1771680914789464600,4.627464599609375,9.518648147583008,1.428515076637268,0.26081767678260803
1771680914799792400,4.63779248046875,10.380064964294434,1.978864312171936,-0.09092725813388824
1771680914810157600,4.648157470703125,9.906285285949707,1.332802176475525,0.5383850932121277
1771680914820534800,4.65853466796875,8.166703224182129,0.16031911969184875,0.9044869542121887
1771680914830881300,4.66888134765625,10.200602531433105,1.6917256116867065,0.5599204897880554
1771680914841219800,4.6792197265625,10.39920711517334,0.9930213689804077,0.3684946894645691
1771680914851605000,4.68960498046875,9.20279598236084,1.7778671979904175,0
1771680914861951500,4.699951416015625,11.68893814086914,2.8283164501190186,0.08614161610603333
1771680914872298000,4.710298095703125,9.138189315795898,1.031306505203247,1.0911271572113037
1771680914882675200,4.72067529296875,7.7838521003723145,-0.6532405614852905,1.4261223077774048
1771680914893021700,4.731021728515625,11.385049819946289,1.4165509939193726,0.35413774847984314
1771680914903368200,4.7413681640625,9.30329418182373,1.222732424736023,0.16749759018421173
1771680914913745400,4.751745361328125,9.580862045288086,2.4047868251800537,-0.4211367964744568
1771680914924092000,4.762091796875,12.346964836120605,3.098705291748047,0.13160525262355804
1771680914934431700,4.772431640625,7.5637125968933105,0.576670229434967,1.1868400573730469
1771680914944788700,4.782788818359375,8.291130065917969,-0.2273181527853012,1.2035897970199585
1771680914955145500,4.7931455078125,12.902099609375,1.7012969255447388,0.20099709928035736
1771680914965508600,4.803508544921875,7.69531774520874,1.0839486122131348,0.07896314561367035
1771680914975859200,4.813859130859375,11.102697372436523,2.8594231605529785,-0.4211367964744568
1771680914986232300,4.824232421875,12.143574714660645,2.682354211807251,0.5288137793540955
1771680914996573000,4.834572998046875,5.656632900238037,0.1339980661869049,1.1940184831619263
1771680915006956000,4.8449560546875,11.258230209350586,-1.0193424224853516,0.7106683254241943
1771680915017286700,4.85528662109375,12.114861488342285,2.3018953800201416,0.07657032459974289
1771680915027649000,4.86564892578125,7.149754047393799,1.8424733877182007,0.3684946894645691
1771680915038000400,4.87600048828125,12.964313507080078,3.311666488647461,-0.23449662327766418
1771680915048372700,4.886372802734375,9.53061294555664,1.581655740737915,1.098305583000183
1771680915058714000,4.896714111328125,6.003592014312744,-0.02392822690308094,0.9308080077171326
1771680915069096400,4.907096435546875,11.598011016845703,-0.9308080077171326,0.48813581466674805
1771680915079427800,4.917427734375,10.40638542175293,1.7228323221206665,0.2105683982372284
1771680915089789400,4.92778955078125,8.10688304901123,2.0003998279571533,0.16510476171970367
1771680915100141600,4.9381416015625,13.447663307189941,3.594019651412964,-0.7465606927871704
1771680915110513200,4.94851318359375,7.355536937713623,1.1485549211502075,0.8231309652328491
1771680915120855300,4.958855224609375,6.661618232727051,0.4498506486415863,0.3756731450557709
1771680915131236900,4.96923681640625,14.43350601196289,0.15314064919948578,1.5050854682922363
1771680915141583400,4.979583251953125,8.793622970581055,1.5361921787261963,1.430907964706421
1771680915151929900,4.989929931640625,10.028319358825684,2.3497519493103027,0.5264210104942322
1771680915162282800,5.00028271484375,13.048062324523926,1.8735800981521606,-0.9690931439399719
1771680915172653600,5.010653564453125,5.8719868659973145,0.37088751792907715,1.0528420209884644
1771680915183000000,5.021,11.382657051086426,-0.19621145725250244,0.7010970115661621
1771680915193353500,5.031353515625,10.88016414642334,2.5531418323516846,0.3326023519039154
1771680915203723800,5.041723876953125,7.8628153800964355,1.9286150932312012,0.6101697683334351
1771680915214067200,5.052067138671875,12.074183464050293,2.392822742462158,-0.42352959513664246
1771680915224447500,5.062447509765625,8.547162055969238,0.8350951075553894,1.2179467678070068
1771680915234781000,5.072781005859375,7.762316703796387,0.02392822690308094,1.1318050622940063
1771680915245140500,5.083140380859375,13.265809059143066,1.8089739084243774,0.7537391185760498
1771680915255494700,5.09349462890625,7.685746192932129,2.390429735183716,0.30628129839897156
1771680915265864200,5.1038642578125,10.628918647766113,1.6223337650299072,0.3900300860404968
1771680915276208400,5.11420849609375,11.301301002502441,1.399801254272461,0.8159525394439697
1771680915286588000,5.124587890625,6.721438884735107,1.6534404754638672,0.7561319470405579
1771680915296922000,5.134922119140625,12.31107234954834,0.08853443711996078,1.062413215637207
1771680915307281000,5.145281005859375,8.396414756774902,2.335394859313965,0.46420758962631226
1771680915317635800,5.1556357421875,9.834501266479492,2.1056840419769287,0.1866401731967926
1771680915328004600,5.166004638671875,11.00459098815918,1.3591232299804688,0.42831525206565857
1771680915338349600,5.176349609375,7.477570533752441,1.5481562614440918,-0.03349951654672623
1771680915348728300,5.186728271484375,11.609975814819336,0.5958128571510315,0.6580262184143066
1771680915359063300,5.197063232421875,9.324830055236816,2.620140790939331,0.7322037220001221
1771680915369421300,5.20742138671875,10.387243270874023,0.9044869542121887,0.7082754969596863
1771680915379777000,5.217777099609375,9.69093132019043,0.9308080077171326,0.6891329288482666
1771680915390145000,5.22814501953125,8.848658561706543,1.7635103464126587,-0.08614161610603333
1771680915400491500,5.238491455078125,10.566704750061035,2.0315065383911133,0.4163511395454407
1771680915410868700,5.24886865234375,9.200403213500977,2.368894338607788,0.1579262912273407
1771680915421215200,5.25921533203125,10.04985523223877,0.4977070987224579,0.519242525100708
1771680915431561700,5.269561767578125,9.28893756866455,0.9212366938591003,0.49292147159576416
1771680915441918500,5.27991845703125,10.372885704040527,2.1128623485565186,0.42352959513664246
1771680915452285400,5.290285400390625,10.023533821105957,1.734796404838562,0.7130611538887024
1771680915462662400,5.300662353515625,9.698110580444336,0.7393822073936462,0.5264210104942322
1771680915473009200,5.311009033203125,9.312865257263184,1.301695466041565,0.2560320198535919
1771680915483355600,5.321355712890625,9.528220176696777,2.3617160320281982,0.13160525262355804
1771680915493732600,5.331732666015625,10.04985523223877,2.4670002460479736,0.8231309652328491
1771680915504079400,5.342079345703125,9.55214786529541,1.1054840087890625,0.6197410821914673
1771680915514416400,5.35241650390625,9.243474006652832,0.21774685382843018,0.7728816866874695
1771680915524802800,5.362802734375,9.973284721374512,1.7276179790496826,0.24167509377002716
1771680915535130000,5.373130126953125,10.25324535369873,2.093719720840454,0.3158525824546814
1771680915545496000,5.38349609375,10.317851066589355,1.5936198234558105,0.45942193269729614
1771680915555843800,5.39384375,9.028120040893555,0.7992027401924133,0.9236295223236084
1771680915566219800,5.4042197265625,10.03549861907959,1.828116536140442,0.8231309652328491
1771680915576557600,5.4145576171875,9.454042434692383,2.3617160320281982,0.519242525100708
1771680915586943200,5.424943115234375,10.1216402053833,1.7539390325546265,0.6005984544754028
1771680915597271600,5.435271484375,9.028120040893555,0.607776939868927,0.2991028428077698
1771680915607636500,5.445636474609375,9.600004196166992,1.093519926071167,0.1986042857170105
1771680915617985000,5.455985107421875,10.059426307678223,2.148754835128784,0.6436693072319031
1771680915628360200,5.466360107421875,10.459028244018555,1.7443677186965942,0.7441678643226624
1771680915638699000,5.476698974609375,9.78664493560791,0.5144568681716919,0.8757730722427368
1771680915649083600,5.487083740234375,9.358329772949219,1.3710874319076538,0.37806597352027893
1771680915659412700,5.497412841796875,10.317851066589355,2.59621262550354,0.5216353535652161
1771680915669777000,5.50777685546875,10.01156997680664,2.287538528442383,0.576670229434967
1771680915680126500,5.51812646484375,8.82233715057373,0.3158525824546814,0.6125625967979431
1771680915690500600,5.52850048828125,9.961320877075195,0.7322037220001221,0.6317051649093628
1771680915700847000,5.53884716796875,10.00439167022705,2.172683000564575,0.5934200286865234
1771680915711224000,5.54922412109375,11.066804885864258,1.9716858863830566,0.5072783827781677
1771680915721570800,5.55957080078125,9.401400566101074,0.6293123364448547,0.6484549641609192
1771680915731917300,5.569917236328125,9.571290969848633,1.0600204467773438,0.3038884699344635
1771680915742294300,5.580294189453125,10.01874828338623,2.526820659637451,0.7345965504646301
1771680915752641000,5.59064111328125,10.904092788696289,2.2755744457244873,0.7130611538887024
1771680915762987500,5.600987548828125,9.059226989746094,0.10289137065410614,0.5575276613235474
1771680915773364500,5.611364501953125,9.475577354431152,0.5599204897880554,0.4043870270252228
1771680915783711200,5.621711181640625,9.836894035339355,2.50289249420166,0.2273181527853012
1771680915794052000,5.632052001953125,10.904092788696289,2.3856441974639893,0.6125625967979431
1771680915804434700,5.6424345703125,9.095118522644043,0.32303106784820557,0.7752745151519775
1771680915814765800,5.652765869140625,9.798608779907227,0.9212366938591003,0.5718846321105957
1771680915825128000,5.6631279296875,10.076175689697266,2.531606435775757,0.5742774605751038
1771680915835479600,5.6734794921875,10.853843688964844,2.2205393314361572,0.3732803463935852
1771680915845851600,5.6838515625,8.537590980529785,0.28953152894973755,0.5312066078186035
1771680915856193300,5.694193359375,9.516255378723145,0.7465606927871704,0.44027936458587646
1771680915866575000,5.7045751953125,9.757930755615234,2.8283164501190186,0.8087740540504456
1771680915876907000,5.714906982421875,10.540383338928223,2.117648124694824,0.9092726111412048
1771680915887268400,5.725268310546875,9.001798629760742,-0.014356935396790504,0.7106683254241943
1771680915897620700,5.735620849609375,9.511469841003418,1.0289137363433838,0.3086741268634796
1771680915907992000,5.745991943359375,10.540383338928223,3.139383316040039,0.1339980661869049
1771680915918334500,5.75633447265625,10.750951766967773,2.0195422172546387,0.4737788736820221
1771680915928715500,5.766715576171875,8.58066177368164,-0.18903298676013947,0.7680960893630981
1771680915939048200,5.777048095703125,9.734002113342285,1.0911271572113037,0.4570291340351105
1771680915949405200,5.7874052734375,10.344172477722168,2.857030153274536,0.6747759580612183
1771680915959762000,5.797761962890625,10.470992088317871,1.5792629718780518,0.48813581466674805
1771680915970132500,5.808132568359375,8.532805442810059,0.08374879509210587,0.26081767678260803
1771680915980479000,5.81847900390625,9.812965393066406,1.6558332443237305,0.3517449200153351
1771680915990856000,5.82885595703125,10.504491806030273,2.6177480220794678,0.3158525824546814
1771680916001202700,5.83920263671875,10.1216402053833,1.215553879737854,0.7513462901115417
1771680916011549200,5.849549072265625,8.982656478881836,-0.062213387340307236,0.9571290612220764
1771680916021926100,5.859926025390625,10.29153060913086,1.8305093050003052,0.3086741268634796
1771680916032273000,5.87027294921875,10.231709480285645,2.249253273010254,0.12921242415905
1771680916042619400,5.880619384765625,9.937392234802246,1.2873386144638062,0.5623133182525635
1771680916052996400,5.890996337890625,8.623732566833496,0.33499518036842346,0.885344386100769
1771680916063343000,5.901343017578125,10.2747802734375,1.8472590446472168,0.6484549641609192
1771680916073689600,5.911689697265625,9.602396965026855,1.7156537771224976,0.5575276613235474
1771680916084066600,5.922066650390625,9.949356079101562,1.1413763761520386,0.48574298620224
1771680916094401300,5.9324013671875,8.886942863464355,1.0289137363433838,0.2512463629245758
1771680916104759800,5.942759765625,10.327422142028809,1.397408366203308,0.22492532432079315
1771680916115115300,5.953115234375,9.415757179260254,1.1820544004440308,0.6436693072319031
1771680916125483500,5.9634833984375,9.987641334533691,0.6628118753433228,0.9954141974449158
1771680916135829000,5.9738291015625,9.32004451751709,1.1724830865859985,0.5838487148284912
1771680916146207000,5.98420703125,10.195816993713379,1.0432707071304321,0.38285163044929504
1771680916156542700,5.994542724609375,9.66221809387207,1.2011969089508057,0.007178467698395252
1771680916166900200,6.004900146484375,9.657432556152344,0.9547362327575684,0.5694918036460876
1771680916177256400,6.01525634765625,9.418149948120117,0.9667003750801086,0.7154539823532104
1771680916187624000,6.0256240234375,9.908679008483887,0.9212366938591003,0.5288137793540955
1771680916197970200,6.03597021484375,9.753145217895508,0.7034898400306702,0.5647061467170715
1771680916208347400,6.046347412109375,10.114460945129395,0.5814558863639832,0.3565305769443512
1771680916218684000,6.056683837890625,9.68375301361084,1.2394821643829346,-0.05742774158716202
1771680916229071000,6.067071044921875,10.059426307678223,0.8901300430297852,0.3038884699344635
1771680916239397600,6.077397705078125,9.578469276428223,0.3756731450557709,0.5000999569892883
1771680916249764400,6.087764404296875,10.1814603805542,0.7465606927871704,0.5072783827781677
1771680916260111400,6.098111328125,9.789037704467773,1.0863415002822876,0.5742774605751038
1771680916270487800,6.10848779296875,10.006784439086914,0.7704889178276062,0.14117653667926788
1771680916280825000,6.1188251953125,9.726823806762695,0.2991028428077698,0.20338992774486542
1771680916291211500,6.12921142578125,9.997213363647461,1.191625714302063,0.363709032535553
1771680916301538800,6.139538818359375,10.15035343170166,0.7872386574745178,0.46420758962631226
1771680916311904800,6.14990478515625,9.961320877075195,0.4498506486415863,0.4905286431312561
1771680916322252800,6.160252685546875,10.016355514526367,0.3517449200153351,0.1746760457754135
1771680916332628200,6.170628173828125,10.169496536254883,1.1676974296569824,0.12203395366668701
1771680916342975000,6.18097509765625,9.934999465942383,0.9212366938591003,0.06699903309345245
1771680916353352000,6.19135205078125,9.671789169311523,0.8039883971214294,0.3086741268634796
1771680916363698400,6.201698486328125,10.155138969421387,0.3924229145050049,0.46899324655532837
1771680916374037000,6.212037109375,10.212567329406738,1.3351950645446777,0.5168496966362
1771680916384422100,6.222422119140625,10.15035343170166,0.5910272002220154,0.009571290574967861
1771680916394750700,6.232750732421875,9.872786521911621,0.7872386574745178,0.18903298676013947
1771680916405115400,6.243115478515625,9.824930191040039,1.0671988725662231,0.14117653667926788
1771680916415464400,6.25346435546875,10.059426307678223,1.3040883541107178,0.48095735907554626
1771680916425838800,6.2638388671875,9.91825008392334,0.6460621356964111,0.42831525206565857
1771680916436178400,6.274178466796875,9.745966911315918,0.7992027401924133,0.36610186100006104
1771680916446535200,6.28453515625,10.006784439086914,1.3088740110397339,0.040677983313798904
1771680916456892200,6.29489208984375,9.418149948120117,1.2370892763137817,0.08614161610603333
1771680916467255800,6.305255859375,9.497113227844238,0.760917603969574,0.33499518036842346
1771680916477606000,6.31560595703125,9.77707290649414,0.849452018737793,0.48095735907554626
1771680916487979300,6.325979248046875,9.891928672790527,1.4691931009292603,0.33738797903060913
1771680916498319600,6.336319580078125,9.53779125213623,0.5742774605751038,0.0933200865983963
1771680916508703000,6.346702880859375,9.540184020996094,1.0791629552841187,0.13878370821475983
1771680916519033300,6.357033447265625,10.37767219543457,1.399801254272461,0.13878370821475983
1771680916529396200,6.367396240234375,9.174081802368164,0.8470591902732849,0.3684946894645691
1771680916539747000,6.3777470703125,9.590433120727539,0.5575276613235474,0.6819544434547424
1771680916550119700,6.38811962890625,9.645467758178711,1.0863415002822876,0.3158525824546814
1771680916560497000,6.398496826171875,9.865608215332031,1.0791629552841187,0.07657032459974289
1771680916570843400,6.408843505859375,9.403793334960938,0.763310432434082,0.4091726839542389
1771680916581174500,6.419174560546875,9.7005033493042,0.8374879360198975,0.5790630578994751
1771680916591536600,6.42953662109375,10.176674842834473,0.9284151792526245,0.7202396392822266
1771680916601913600,6.43991357421875,9.377471923828125,0.6317051649093628,0.7178468108177185
1771680916612260000,6.450260009765625,10.040284156799316,0.9619147181510925,0.4043870270252228
1771680916622606800,6.46060693359375,9.884750366210938,0.5072783827781677,0.3206382393836975
1771680916632983800,6.47098388671875,10.262816429138184,0.9690931439399719,0.46420758962631226
1771680916643330300,6.481330322265625,9.53779125213623,0.5288137793540955,0.5407779216766357
1771680916653677000,6.491677001953125,10.164710998535156,0.5934200286865234,0.5647061467170715
1771680916664054000,6.502053955078125,9.69093132019043,0.5479564070701599,0.31345975399017334
1771680916674386400,6.512386474609375,10.360921859741211,0.9523434042930603,0.17946170270442963
1771680916684747300,6.522747314453125,9.868000984191895,0.5742774605751038,0.21296121180057526
1771680916695100400,6.533100341796875,9.860821723937988,0.42352959513664246,0.5407779216766357
1771680916705470700,6.543470703125,10.39920711517334,1.0001999139785767,0.5910272002220154
1771680916715814100,6.553814208984375,9.456435203552246,0.49292147159576416,0.7657032608985901
1771680916726194400,6.5641943359375,10.186245918273926,0.7154539823532104,0.44745782017707825
1771680916736528000,6.57452783203125,10.162318229675293,0.8015955686569214,0.3445664644241333
1771680916746887700,6.5848876953125,10.25324535369873,0.6221339106559753,0.5335994362831116
1771680916757241600,6.59524169921875,9.982855796813965,0.7513462901115417,0.6197410821914673
1771680916767611100,6.605611083984375,9.585647583007812,0.380458801984787,0.5407779216766357
1771680916777955300,6.615955322265625,10.100104331970215,1.0336993932724,0.32303106784820557
1771680916788334800,6.6263349609375,9.430113792419434,0.8638089895248413,0.23210379481315613
1771680916798669000,6.6366689453125,9.930213928222656,0.29431718587875366,0.48095735907554626
1771680916809028000,6.647028076171875,9.494720458984375,0.9308080077171326,0.5814558863639832
1771680916819382800,6.6573828125,10.528419494628906,0.7776673436164856,0.5742774605751038
1771680916829751600,6.66775146484375,9.418149948120117,0.3684946894645691,0.23449662327766418
1771680916840096800,6.6780966796875,10.588240623474121,0.7489534616470337,0.11246266216039658
1771680916850475300,6.688475341796875,9.659825325012207,1.3495519161224365,0.519242525100708
1771680916860821800,6.69882177734375,9.789037704467773,0.1866401731967926,0.42831525206565857
1771680916871168500,6.70916845703125,9.525827407836914,0.7345965504646301,0.34695929288864136
1771680916881524200,6.719524169921875,10.195816993713379,1.038485050201416,0.2727817893028259
1771680916891892000,6.72989208984375,9.609575271606445,1.0552347898483276,0.23210379481315613
1771680916902238000,6.740238037109375,9.186046600341797,0.44745782017707825,0.2153540402650833
1771680916912615700,6.75061572265625,9.875179290771484,0.7513462901115417,0.7226324677467346
1771680916922962200,6.760962158203125,9.784252166748047,1.1653046607971191,0.5000999569892883
1771680916933309000,6.771308837890625,10.1216402053833,0.3924229145050049,0.5647061467170715
1771680916943665400,6.78166552734375,9.595218658447266,0.8135597109794617,0.04546362906694412
1771680916954022400,6.7920224609375,10.561919212341309,1.2299108505249023,0.24646073579788208
1771680916964409600,6.80240966796875,9.722038269042969,0.7657032608985901,0.5072783827781677
1771680916974736100,6.812736083984375,9.073583602905273,0.363709032535553,0.43549370765686035
1771680916985102600,6.8231025390625,10.03549861907959,1.215553879737854,0.2799602448940277
1771680916995449900,6.833449951171875,9.56889820098877,1.0001999139785767,0.4426721930503845
1771680917005826300,6.843826416015625,9.44447135925293,0.38763725757598877,0.12442677468061447
1771680917016163600,6.85416357421875,9.89432144165039,1.2418749332427979,0.5479564070701599
1771680917026550000,6.864550048828125,10.226923942565918,0.35892340540885925,0.5718846321105957
1771680917036877300,6.874877197265625,9.781859397888184,0.8374879360198975,0.28953152894973755
1771680917047243000,6.885242919921875,10.26760196685791,0.9068797826766968,0.19621145725250244
1771680917057591300,6.89559130859375,10.152746200561523,0.5431707501411438,0.2273181527853012
1771680917067966700,6.905966796875,9.44447135925293,1.0336993932724,0.4019941985607147
1771680917078305000,6.916304931640625,10.325029373168945,0.48813581466674805,0.6005984544754028
1771680917088690400,6.9266904296875,9.403793334960938,0.607776939868927,0.42352959513664246
1771680917099018800,6.937018798828125,10.482955932617188,1.0887342691421509,0.46420758962631226
1771680917109383400,6.947383544921875,9.542576789855957,0.7345965504646301,0.2632105052471161
1771680917119732500,6.957732421875,10.01874828338623,0.3613162338733673,0.6197410821914673
1771680917130107100,6.968107177734375,10.459028244018555,0.7896314859390259,0.3756731450557709
1771680917140484400,6.978484375,9.731609344482422,0.7585247755050659,0.5096712112426758
1771680917150830800,6.988830810546875,9.638289451599121,0.3158525824546814,0.4450650215148926
1771680917161160000,6.999159912109375,10.53081226348877,1.0767701864242554,0.275174617767334
1771680917171523800,7.00952392578125,9.650253295898438,0.7322037220001221,0.39481574296951294
1771680917181873700,7.019873779296875,10.013962745666504,0.3278166949748993,0.8805587291717529
1771680917192247600,7.03024755859375,9.389435768127441,0.9188438653945923,0.6317051649093628
1771680917202587600,7.040587646484375,10.396814346313477,0.8111668825149536,0.5096712112426758
1771680917212971300,7.05097119140625,9.05444049835205,0.9810572862625122,0.39481574296951294
1771680917223317800,7.06131787109375,9.875179290771484,0.6364908218383789,0.727418065071106
1771680917233664300,7.071664306640625,10.16710376739502,0.7130611538887024,0.5407779216766357
1771680917244041500,7.08204150390625,9.394221305847168,1.0504491329193115,0.5934200286865234
1771680917254371800,7.092371826171875,10.097711563110352,0.6556333899497986,0.275174617767334
1771680917264734500,7.102734375,9.903892517089844,1.332802176475525,0.18903298676013947
1771680917275085800,7.1130859375,10.009177207946777,1.0791629552841187,0.4737788736820221
1771680917285458200,7.123458251953125,9.391828536987305,0.6173482537269592,0.7393822073936462
1771680917295799600,7.133799560546875,9.497113227844238,1.062413215637207,0.38763725757598877
1771680917306182000,7.144181884765625,10.313065528869629,1.6773686408996582,0.19142581522464752
1771680917316513300,7.15451318359375,8.683553695678711,0.6819544434547424,0.43549370765686035
1771680917326875000,7.164875,10.39202880859375,0.8662018179893494,0.4953143000602722
1771680917337227000,7.17522705078125,9.848857879638672,1.911865234375,0.3158525824546814
1771680917347598600,7.1855986328125,9.695717811584473,0.6005984544754028,0.45224347710609436
1771680917357940700,7.195940673828125,9.994820594787598,1.4093725681304932,0.3278166949748993
1771680917368322300,7.206322265625,9.934999465942383,1.789831280708313,0.23449662327766418
1771680917378654500,7.216654541015625,9.7938232421875,1.0001999139785767,0.8901300430297852
1771680917389015300,7.227015380859375,9.616754531860352,0.9332008361816406,0.5814558863639832
1771680917399368200,7.2373681640625,10.26760196685791,1.9573289155960083,-0.004785645287483931
1771680917409739000,7.247739013671875,9.607182502746582,1.3854442834854126,0.5096712112426758
1771680917420082200,7.258082275390625,9.592825889587402,0.8183453679084778,0.46899324655532837
1771680917430462700,7.268462646484375,10.006784439086914,2.093719720840454,0.3326023519039154
1771680917440796000,7.2787958984375,10.068997383117676,1.2801600694656372,0.5910272002220154
1771680917451155700,7.28915576171875,9.059226989746094,0.9930213689804077,0.31345975399017334
1771680917461509600,7.299509521484375,10.619346618652344,2.2683959007263184,0.23449662327766418
1771680917471879400,7.30987939453125,9.68375301361084,1.3351950645446777,0.6915257573127747
1771680917482223400,7.320223388671875,9.245866775512695,0.6843472719192505,0.9212366938591003
1771680917492603100,7.33060302734375,10.078569412231445,1.9932212829589844,0.27038896083831787
1771680917502949600,7.34094970703125,9.899106979370117,1.8783657550811768,0.4019941985607147
1771680917513296100,7.351296142578125,8.994620323181152,0.5958128571510315,0.6245267391204834
1771680917523673300,7.36167333984375,10.078569412231445,1.6701902151107788,0.42831525206565857
1771680917534007800,7.3720078125,10.159924507141113,1.8352949619293213,0.5742774605751038
1771680917544366300,7.382366455078125,9.083154678344727,0.48813581466674805,0.3086741268634796
1771680917554721500,7.392721435546875,10.736595153808594,1.730010747909546,0.1459621787071228
1771680917565090000,7.403090087890625,9.958928108215332,1.8544375896453857,0.28235307335853577
1771680917575435500,7.413435546875,9.623932838439941,0.380458801984787,0.7776673436164856
1771680917585813800,7.423813720703125,10.303494453430176,1.4261223077774048,0.3397808074951172
1771680917596149200,7.434149169921875,10.272387504577637,1.8041882514953613,-0.16510476171970367
1771680917606506800,7.4445068359375,9.233902931213379,0.7896314859390259,0.380458801984787
1771680917616863000,7.454863037109375,10.107282638549805,1.5002998113632202,0.5359922647476196
1771680917627230500,7.46523046875,10.301101684570312,1.581655740737915,0.20817556977272034
1771680917637576700,7.47557666015625,8.523234367370605,0.8757730722427368,0.5694918036460876
1771680917647954200,7.4859541015625,10.839486122131348,1.5433706045150757,0.37088751792907715
1771680917658290400,7.49629052734375,9.671789169311523,1.7467604875564575,0.32542386651039124
1771680917668678000,7.506677978515625,9.183652877807617,0.35413774847984314,0.5838487148284912
1771680917679004200,7.517004150390625,10.336994171142578,1.7587246894836426,0.33020952343940735
1771680917689371000,7.527370849609375,9.547362327575684,2.0554347038269043,0.05742774158716202
1771680917699718000,7.5377177734375,9.265008926391602,0.363709032535553,0.48095735907554626
1771680917710094600,7.548094482421875,9.999606132507324,2.084148406982422,0.5264210104942322
1771680917720431900,7.558431884765625,9.990034103393555,1.8352949619293213,0.4378865361213684
1771680917730818300,7.568818359375,9.023334503173828,0.46899324655532837,0.34695929288864136
1771680917741145600,7.5791455078125,10.061819076538086,2.5746772289276123,0.2847459018230438
1771680917751511300,7.58951123046875,9.647860527038574,1.2681959867477417,0.8039883971214294
1771680917761859300,7.599859375,9.425328254699707,0.8207381963729858,0.3445664644241333
1771680917772235000,7.610235107421875,10.40638542175293,2.352144718170166,0.0526420995593071
1771680917782581500,7.62058154296875,10.171889305114746,1.3926228284835815,0.641276478767395
1771680917792958700,7.630958740234375,9.052047729492188,1.0767701864242554,0.16510476171970367
1771680917803305200,7.64130517578125,10.990234375,2.187039852142334,0.4426721930503845
1771680917813651700,7.651651611328125,8.513663291931152,1.3304094076156616,0.44027936458587646
1771680917824029000,7.66202880859375,9.93260669708252,1.1892328262329102,0.5455635786056519
1771680917834357500,7.672357421875,9.990034103393555,2.3641088008880615,0.7226324677467346
1771680917844722000,7.682721923828125,9.561718940734863,0.7202396392822266,0.5455635786056519
1771680917855071200,7.6930712890625,10.425528526306152,1.5744773149490356,0.2392822653055191
1771680917865445600,7.703445556640625,9.812965393066406,1.9453648328781128,0.19621145725250244
1771680917875785200,7.71378515625,9.607182502746582,0.8398807644844055,0.5982056856155396
1771680917886169300,7.72416943359375,9.999606132507324,1.7491533756256104,0.4618147611618042
1771680917896499000,7.7344990234375,9.499505996704102,1.2586246728897095,0.4259224236011505
1771680917906862300,7.7448623046875,9.372686386108398,1.3591232299804688,0.48813581466674805
1771680917917212700,7.755212646484375,10.305887222290039,1.9980069398880005,0.5814558863639832
1771680917927586000,7.7655859375,9.042476654052734,1.038485050201416,0.6508477330207825
1771680917937926400,7.775926513671875,10.116853713989258,1.459621787071228,0.35892340540885925
1771680917948283400,7.786283447265625,10.1814603805542,2.043470621109009,0.18903298676013947
1771680917958640000,7.79664013671875,8.518448829650879,0.46420758962631226,0.5479564070701599
1771680917969002800,7.807002685546875,10.415956497192383,1.7874385118484497,0.5431707501411438
1771680917979354000,7.81735400390625,9.760323524475098,1.4141582250595093,0.4211367964744568
1771680917989726500,7.8277265625,9.509077072143555,0.5934200286865234,0.24885354936122894
1771680918000067800,7.83806787109375,10.980663299560547,2.0745773315429688,0.4426721930503845
1771680918010450200,7.8484501953125,9.066405296325684,1.5361921787261963,0.9834501147270203
1771680918020796700,7.858796630859375,9.934999465942383,0.885344386100769,0.397208571434021
1771680918031143200,7.86914306640625,9.832108497619629,2.1990039348602295,0.19621145725250244
1771680918041495300,7.879495361328125,9.17886734008789,1.0528420209884644,0.7728816866874695
1771680918051867000,7.889866943359375,10.686346054077148,1.3950155973434448,0.27756741642951965
1771680918062209000,7.900208984375,9.109476089477539,1.2849457263946533,0.2273181527853012
1771680918072590600,7.910590576171875,10.528419494628906,1.4093725681304932,0.37088751792907715
1771680918082937000,7.92093701171875,10.222138404846191,1.9405791759490967,0.42831525206565857
1771680918093283600,7.93128369140625,9.824930191040039,0.6963114142417908,0.5407779216766357
1771680918103660800,7.941660888671875,10.351350784301758,2.0985054969787598,0.09571290761232376
1771680918113993500,7.951993408203125,9.69093132019043,1.6510475873947144,0.4163511395454407
1771680918124353800,7.962353759765625,9.633503913879395,1.0767701864242554,0.5934200286865234
1771680918134707500,7.97270751953125,9.839286804199219,1.947757601737976,0.41156548261642456
1771680918145077500,7.983077392578125,9.820143699645996,1.179661512374878,0.4378865361213684
1771680918155421200,7.993421142578125,9.678967475891113,2.021935224533081,0.42831525206565857
1771680918165801200,8.00380126953125,10.332208633422852,1.459621787071228,0.8207381963729858
1771680918176135000,8.014135009765624,9.1716890335083,1.1700903177261353,0.5790630578994751
1771680918186494200,8.024494140625,11.11466121673584,1.8161523342132568,0.09571290761232376
1771680918196848600,8.0348486328125,9.078369140625,1.3782658576965332,0.5216353535652161
1771680918207218000,8.045218017578126,10.229316711425781,1.454836130142212,0.08614161610603333
1771680918217562400,8.055562255859375,9.415757179260254,1.6031911373138428,0.18424734473228455
1771680918227941600,8.065941650390625,9.489934921264648,1.4524433612823486,0.09571290761232376
1771680918238276400,8.0762763671875,10.552348136901855,1.8424733877182007,0.43549370765686035
1771680918248634600,8.086634521484376,8.12123966217041,1.1270195245742798,0.7800601720809937
1771680918258990000,8.096989990234375,11.138589859008789,1.765903115272522,0.0023928226437419653
1771680918269358300,8.1073583984375,8.994620323181152,1.8855443000793457,0.2967100143432617
1771680918279703800,8.117703857421875,10.00439167022705,0.08135596662759781,0.34217363595962524
1771680918290082000,8.12808203125,9.870393753051758,2.4502503871917725,0.2847459018230438
1771680918300417500,8.13841748046875,9.025727272033691,0.7082754969596863,0.2991028428077698
1771680918310775000,8.148775146484375,10.49252700805664,1.8376877307891846,0.24646073579788208
1771680918321131300,8.15913134765625,9.023334503173828,1.3112667798995972,0.6795616149902344
1771680918331498800,8.169498779296875,10.796415328979492,1.34476637840271,0.5168496966362
1771680918341845200,8.17984521484375,9.241081237792969,1.794616937637329,0.1818545162677765
1771680918352222500,8.190222412109375,10.183853149414062,1.1365907192230225,0.2991028428077698
1771680918362569000,8.20056884765625,9.56650447845459,1.4715858697891235,0.23449662327766418
1771680918372946000,8.21094580078125,10.246066093444824,1.2873386144638062,0.13639089465141296
1771680918383292700,8.221292724609375,9.487542152404785,1.5361921787261963,0.25363919138908386
1771680918393639200,8.23163916015625,10.542776107788086,1.4835500717163086,0.7489534616470337
1771680918404016000,8.24201611328125,8.96112060546875,1.4213366508483887,0.5240281820297241
1771680918414343400,8.252343505859375,11.191231727600098,1.7754744291305542,0.5910272002220154
1771680918424709400,8.26270947265625,9.219545364379883,1.196411371231079,0.5790630578994751
1771680918435057200,8.27305712890625,11.026126861572266,1.8735800981521606,0.5814558863639832
1771680918445414100,8.2834140625,8.824729919433594,1.301695466041565,0.2584248483181
1771680918455771100,8.293771240234374,10.119247436523438,1.5026925802230835,0.41156548261642456
1771680918466156500,8.304156494140624,9.67657470703125,1.7587246894836426,0.8925228714942932
1771680918476484900,8.31448486328125,9.779465675354004,1.2729816436767578,0.1052841991186142
1771680918486849800,8.324849853515625,10.435099601745605,2.1511476039886475,0.5455635786056519
1771680918497198600,8.335198486328125,8.848658561706543,0.8901300430297852,0.4043870270252228
1771680918507573500,8.345573486328124,11.047661781311035,2.3258235454559326,0.12921242415905
1771680918517912300,8.355912353515626,8.118846893310547,1.1988041400909424,0.3158525824546814
1771680918528297000,8.366296875,10.703095436096191,1.7252250909805298,0.20578274130821228
1771680918538626000,8.3766259765625,8.525627136230469,1.521835207939148,0.4977070987224579
1771680918548990200,8.386990234375,10.729416847229004,1.6103696823120117,-0.05742774158716202
1771680918559340000,8.397340087890624,8.719446182250977,1.5050854682922363,0.5264210104942322
1771680918569714000,8.4077138671875,10.327422142028809,1.5840486288070679,0.2679961323738098
1771680918580053800,8.4180537109375,9.681360244750977,1.8113667964935303,0.5623133182525635
1771680918590437400,8.428437255859375,9.073583602905273,1.0145567655563354,0.3038884699344635
1771680918600784100,8.4387841796875,10.442277908325195,1.7371892929077148,0.45942193269729614
1771680918611130600,8.449130615234376,9.535398483276367,1.5696916580200195,0.519242525100708
1771680918621481200,8.459481201171876,9.80817985534668,1.2011969089508057,0.41874396800994873
1771680918631854300,8.469854248046875,9.233902931213379,1.6223337650299072,0.6173482537269592
1771680918642195200,8.4801953125,10.6624174118042,1.526620864868164,0.040677983313798904
1771680918652577800,8.490577880859375,9.865608215332031,1.5050854682922363,0.3086741268634796
1771680918662924500,8.500924560546874,9.29611587524414,1.2634103298187256,0.07417750358581543
1771680918673271000,8.51127099609375,10.41356372833252,1.8185452222824097,0.8446664214134216
1771680918683648000,8.52164794921875,8.901300430297852,1.2945170402526855,0.31824541091918945
1771680918693979600,8.531979736328125,10.578668594360352,1.1653046607971191,0.6675975322723389
1771680918704341200,8.54234130859375,9.707681655883789,1.6630117893218994,0.4307080805301666
1771680918714693400,8.552693359375,10.626524925231934,1.1820544004440308,0.3613162338733673
1771680918725065000,8.56306494140625,9.145368576049805,1.301695466041565,0.275174617767334
1771680918735407000,8.573406982421876,10.456634521484375,1.5936198234558105,0.22971096634864807
1771680918745788400,8.583788330078125,9.970891952514648,1.3710874319076538,0.4737788736820221
1771680918756120800,8.594120849609375,9.56889820098877,1.191625714302063,0.064606212079525
1771680918766481700,8.604481689453126,10.583454132080078,1.495514154434204,0.8350951075553894
1771680918776834800,8.614834716796874,9.592825889587402,1.5050854682922363,0.09092725813388824
1771680918787205400,8.625205322265625,10.12881851196289,1.0456634759902954,0.38285163044929504
1771680918797548500,8.635548583984376,9.518648147583008,1.8305093050003052,0.02871387079358101
1771680918807928800,8.6459287109375,10.269994735717773,1.1940184831619263,0.5934200286865234
1771680918818262300,8.65626220703125,9.540184020996094,1.8999011516571045,-0.3565305769443512
1771680918828622000,8.6666220703125,9.635896682739258,1.0504491329193115,0.672383189201355
1771680918838976000,8.67697607421875,10.289137840270996,1.8975083827972412,0.20099709928035736
1771680918849345800,8.687345703125,8.886942863464355,1.5026925802230835,0.37088751792907715
1771680918859690000,8.69768994140625,10.313065528869629,1.581655740737915,0.05742774158716202
1771680918870069200,8.7080693359375,8.872586250305176,1.373480200767517,0.49292147159576416
1771680918880403700,8.71840380859375,10.6025972366333,1.7419748306274414,0.1986042857170105
1771680918890762500,8.728762451171875,8.669196128845215,1.2849457263946533,0.16271193325519562
1771680918901117400,8.739117431640626,10.382457733154297,1.5409778356552124,0.9212366938591003
1771680918911486200,8.749486328125,9.934999465942383,1.828116536140442,0.09810572862625122
1771680918921831200,8.7598310546875,9.970891952514648,1.550549030303955,0.48574298620224
1771680918932209700,8.770209716796876,9.592825889587402,1.124626636505127,0.42352959513664246
1771680918942545200,8.780545166015624,10.202995300292969,2.014756679534912,0.33738797903060913
1771680918952903000,8.79090283203125,9.573683738708496,1.5026925802230835,0.5096712112426758
1771680918963280000,8.80127978515625,9.68375301361084,1.2490534782409668,0.8638089895248413
1771680918973626600,8.811626708984376,9.755537986755371,1.5050854682922363,0.27038896083831787
1771680918983973000,8.82197314453125,9.767501831054688,1.9860427379608154,0.605384111404419
1771680918994329600,8.83232958984375,9.693324089050293,1.4428720474243164,0.33020952343940735
1771680919004696800,8.84269677734375,9.980463027954102,1.191625714302063,0.33738797903060913
1771680919015043300,8.853043212890626,9.221938133239746,2.359323024749756,-0.21774685382843018
1771680919025420300,8.863420166015626,9.856036186218262,0.9260223507881165,0.5838487148284912
1771680919035757000,8.873757080078125,9.09990406036377,1.5409778356552124,-0.0023928226437419653
1771680919046144000,8.88414404296875,10.459028244018555,1.4644074440002441,0.26081767678260803
1771680919056471000,8.894470947265624,10.102497100830078,1.7730815410614014,0.18903298676013947
1771680919066837200,8.904837158203126,9.609575271606445,0.7704889178276062,0.4378865361213684
1771680919077184800,8.915184814453125,9.7938232421875,1.9334007501602173,0.380458801984787
1771680919087560700,8.925560791015625,9.454042434692383,1.2203395366668701,0.8350951075553894
1771680919097898500,8.9358984375,9.616754531860352,1.3567304611206055,0.3684946894645691
1771680919108284400,8.946284423828125,9.705288887023926,1.6390835046768188,0.24167509377002716
1771680919118612200,8.9566123046875,9.91107177734375,1.6654045581817627,0.5407779216766357
1771680919128977700,8.966977783203125,9.521040916442871,1.2203395366668701,0.5407779216766357
1771680919139326000,8.977325927734375,9.856036186218262,1.8185452222824097,0.3900300860404968
1771680919149701000,8.987701171875,9.987641334533691,1.34476637840271,0.42352959513664246
1771680919160040000,8.9980400390625,10.212567329406738,1.0456634759902954,0.2512463629245758
1771680919170424800,9.0084248046875,9.643074989318848,1.2705888748168945,0.5479564070701599
1771680919180771300,9.018771240234376,10.61695384979248,1.0528420209884644,0.3924229145050049
1771680919191118000,9.0291181640625,9.748359680175781,1.6103696823120117,0.18424734473228455
1771680919201495000,9.0394951171875,9.564111709594727,0.8997012972831726,0.36610186100006104
1771680919211841500,9.049841552734375,10.210174560546875,1.459621787071228,0.3158525824546814
1771680919222181000,9.06018115234375,9.114261627197266,1.0719845294952393,0.27038896083831787
1771680919232565200,9.070565185546876,11.033305168151855,1.6869399547576904,0.1866401731967926
1771680919242911700,9.080911865234375,8.547162055969238,0.6843472719192505,0.4378865361213684
1771680919253258500,9.091258544921875,11.866007804870605,1.7180466651916504,0.19381862878799438
1771680919263635500,9.101635498046875,8.599804878234863,0.7441678643226624,0.4450650215148926
1771680919273965800,9.1119658203125,11.272587776184082,1.31365966796875,0.23210379481315613
1771680919284328700,9.12232861328125,9.394221305847168,1.1341979503631592,0.11246266216039658
1771680919294679600,9.132679443359375,9.760323524475098,1.3208380937576294,0.4139583110809326
1771680919305052200,9.14305224609375,9.09272575378418,1.1341979503631592,0.19381862878799438
1771680919315393300,9.153393310546875,10.207781791687012,1.8903298377990723,-0.17706887423992157
1771680919325776000,9.16377587890625,9.626325607299805,0.672383189201355,0.397208571434021
1771680919336107000,9.17410693359375,9.982855796813965,1.6582261323928833,-0.12681959569454193
1771680919346469000,9.18446923828125,9.762716293334961,1.4452649354934692,0.1866401731967926
1771680919356821000,9.194821044921875,9.659825325012207,1.0360921621322632,0.4426721930503845
1771680919367192600,9.205192626953124,9.906285285949707,1.7132610082626343,0.31345975399017334
1771680919377534700,9.21553466796875,10.030712127685547,1.703689694404602,0.28235307335853577
1771680919387916300,9.225916259765626,10.119247436523438,0.9308080077171326,0.41156548261642456
1771680919398248400,9.23624853515625,9.477970123291016,1.6582261323928833,0.24646073579788208
1771680919408609500,9.246609619140624,10.681560516357422,2.0003998279571533,0.3732803463935852
1771680919418962400,9.25696240234375,9.28893756866455,1.2418749332427979,0.24167509377002716
1771680919429333000,9.2673330078125,9.927821159362793,1.9884356260299683,0.12681959569454193
1771680919439676200,9.27767626953125,9.154939651489258,1.648654818534851,0.26081767678260803
1771680919450033000,9.288032958984376,9.848857879638672,1.7132610082626343,0.10049854964017868
1771680919460390000,9.298389892578125,8.872586250305176,1.7276179790496826,0.07657032459974289
1771680919470750000,9.30875,10.183853149414062,1.8089739084243774,0.24646073579788208
1771680919481103600,9.319103515625,9.367900848388672,1.8592232465744019,-0.26560330390930176
1771680919491473400,9.329473388671875,9.868000984191895,1.3758729696273804,-0.031106693670153618
1771680919501817600,9.339817626953124,10.109675407409668,2.0817556381225586,0.064606212079525
1771680919512197000,9.350197021484375,9.083154678344727,1.6558332443237305,0.34695929288864136
1771680919522531300,9.36053125,10.001998901367188,1.3543375730514526,0.4546363055706024
1771680919532890400,9.370890380859375,9.56889820098877,1.7730815410614014,0.3158525824546814
1771680919543267300,9.381267333984376,10.456634521484375,2.3162522315979004,-0.05503492057323456
1771680919553613800,9.39161376953125,9.549755096435547,1.1748759746551514,0.4833501875400543
1771680919563960600,9.401960693359374,8.841479301452637,1.6223337650299072,0.15314064919948578
1771680919574315800,9.412315673828125,10.097711563110352,1.9669002294540405,0.4977070987224579
1771680919584684000,9.42268408203125,9.509077072143555,1.7228323221206665,0.16510476171970367
1771680919595029500,9.433029541015625,10.100104331970215,0.6101697683334351,-0.062213387340307236
1771680919605407700,9.44340771484375,10.071390151977539,1.6151553392410278,0.22971096634864807
1771680919615743500,9.453743408203126,10.671989440917969,1.6701902151107788,0.16271193325519562
1771680919626101000,9.46410107421875,9.726823806762695,0.7393822073936462,-0.035892341285943985
1771680919636457200,9.474457275390625,10.207781791687012,1.6845471858978271,0.24167509377002716
1771680919646824400,9.484824462890625,10.191031455993652,1.2323036193847656,0.1339980661869049
1771680919657171000,9.4951708984375,9.315258979797363,1.4117653369903564,0.5694918036460876
1771680919667548200,9.505548095703125,10.650453567504883,1.2945170402526855,0.009571290574967861
1771680919677884700,9.515884765625,9.324830055236816,1.215553879737854,-0.03349951654672623
1771680919688272000,9.52627197265625,10.265209197998047,0.4977070987224579,0.3900300860404968
1771680919698598700,9.5365986328125,9.702896118164062,1.1054840087890625,0.07896314561367035
1771680919708964900,9.54696484375,9.293723106384277,1.1988041400909424,0.13639089465141296
1771680919719312400,9.5573125,9.90149974822998,0.2847459018230438,0.2512463629245758
1771680919729688600,9.5676884765625,9.54496955871582,0.8733802437782288,-0.2967100143432617
1771680919740026000,9.578026123046875,9.882357597351074,0.9643075466156006,-0.0526420995593071
1771680919750412300,9.588412353515626,10.526026725769043,0.5216353535652161,0.22971096634864807
1771680919760758800,9.5987587890625,8.695517539978027,0.5694918036460876,0.13160525262355804
1771680919771105300,9.609105224609374,10.705488204956055,0.3756731450557709,0.29431718587875366
1771680919781453800,9.619453857421876,9.06401252746582,1.1461620330810547,0.4307080805301666
1771680919791829000,9.6298291015625,9.671789169311523,-0.2967100143432617,0.5240281820297241
1771680919802167600,9.64016748046875,9.961320877075195,0.6317051649093628,0.26081767678260803
1771680919812552700,9.650552734375,9.762716293334961,0.5096712112426758,0.30628129839897156
1771680919822899200,9.660899169921874,10.03310489654541,-0.05024927482008934,0.5623133182525635
1771680919833245700,9.67124560546875,9.312865257263184,0.5623133182525635,-0.04546362906694412
1771680919843623000,9.681622802734376,10.322636604309082,0.4259224236011505,0.06699903309345245
1771680919853952000,9.691951904296875,9.016156196594238,0.08135596662759781,-0.08374879509210587
1771680919864316000,9.70231591796875,10.540383338928223,0.40677985548973083,-0.03349951654672623
1771680919874666000,9.712666015625,9.650253295898438,0.7824530005455017,0.15074782073497772
1771680919885039600,9.72303955078125,9.990034103393555,-0.28953152894973755,0.363709032535553
1771680919895379700,9.733379638671876,9.597611427307129,1.0648061037063599,0.397208571434021
1771680919905763300,9.743763427734375,10.475777626037598,0.19142581522464752,0.33020952343940735
1771680919916093400,9.754093505859375,10.255638122558594,0.15074782073497772,0.3278166949748993
1771680919926456300,9.764456298828126,9.489934921264648,0.18424734473228455,0.07896314561367035
1771680919936807400,9.774807373046874,10.01156997680664,0.1986042857170105,0.11485548317432404
1771680919947164200,9.7851640625,9.315258979797363,0.6508477330207825,-0.16271193325519562
1771680919957521200,9.795521240234375,9.791430473327637,0.01196411345154047,0.059820566326379776
1771680919967903700,9.80590380859375,9.559326171875,-0.016749758273363113,0.12921242415905
1771680919978235000,9.81623486328125,9.55214786529541,0.3158525824546814,-0.04785645380616188
1771680919988596700,9.8265966796875,10.217352867126465,0.4953143000602722,-0.06699903309345245
1771680919998948600,9.836948486328126,10.60977554321289,-0.014356935396790504,0.019142581149935722
1771680920009320400,9.847320556640625,10.00439167022705,-0.1459621787071228,-0.08853443711996078
1771680920019662600,9.85766259765625,10.521241188049316,-0.004785645287483931,-0.07417750358581543
1771680920030044200,9.868044189453125,9.525827407836914,0.15553347766399384,0.004785645287483931
1771680920040376300,9.878376220703124,9.600004196166992,-0.2871387302875519,0.09092725813388824
1771680920050737200,9.888737060546875,9.399007797241211,0.01196411345154047,0.28953152894973755
1771680920061090000,9.899090087890626,9.791430473327637,-0.07657032459974289,0.038285162299871445
1771680920071460900,9.9094609375,10.162318229675293,-0.4977070987224579,-0.3326023519039154
1771680920081804000,9.919803955078125,10.279565811157227,-0.27756741642951965,-0.5168496966362
1771680920092184600,9.9301845703125,9.975677490234375,-0.1986042857170105,-0.35892340540885925
1771680920102531000,9.940531005859375,9.370293617248535,-0.3756731450557709,0.1698904037475586
1771680920112877600,9.950877685546875,9.425328254699707,-0.5407779216766357,0.4043870270252228
1771680920123254800,9.9612548828125,9.978070259094238,-0.07417750358581543,-0.064606212079525
1771680920133601300,9.971601318359374,10.50209903717041,-0.10767702013254166,0.08135596662759781
1771680920143947800,9.98194775390625,9.750752449035645,-0.7250252366065979,-0.09571290761232376
1771680920154302200,9.99230224609375,9.812965393066406,0.038285162299871445,0.08135596662759781
1771680920164671500,10.00267138671875,9.760323524475098,-0.2105683982372284,0.4259224236011505
1771680920175016000,10.013015869140625,9.621540069580078,0.02632104977965355,0.11964113265275955
1771680920185395200,10.023395263671874,10.514062881469727,-0.2847459018230438,-0.02392822690308094
1771680920195730000,10.03372998046875,10.296316146850586,-0.2967100143432617,0.04785645380616188
1771680920206088200,10.044088134765625,10.425528526306152,0.39481574296951294,-0.23449662327766418
1771680920216443600,10.054443603515624,9.89432144165039,-0.5982056856155396,0.5647061467170715
1771680920226812000,10.06481201171875,9.877572059631348,0.6867401003837585,0.15314064919948578
1771680920237157400,10.075157470703125,10.332208633422852,-0.4666004180908203,0.2225325107574463
1771680920247535600,10.08553564453125,10.53799057006836,1.0839486122131348,0.08374879509210587
1771680920257871400,10.095871337890625,9.253045082092285,-0.6029912829399109,-0.07896314561367035
1771680920268228600,10.106228515625,10.437492370605469,0.9116654396057129,0.38285163044929504
1771680920278585000,10.116585205078126,9.523433685302734,0.1866401731967926,0.08135596662759781
1771680920288952300,10.126952392578126,10.155138969421387,0.12203395366668701,0.28235307335853577
1771680920299298800,10.137298828125,9.750752449035645,0.18424734473228455,0.15074782073497772
1771680920309676000,10.147676025390625,10.573883056640625,0.4977070987224579,0.2991028428077698
1771680920320012800,10.1580126953125,9.734002113342285,0.1818545162677765,0.08853443711996078
1771680920330399700,10.168399658203125,10.346565246582031,0.12203395366668701,0.27038896083831787
1771680920340746200,10.178746337890624,8.958727836608887,0.48095735907554626,0.23210379481315613
1771680920351092700,10.1890927734375,10.15753173828125,0.3684946894645691,0.45942193269729614
1771680920361440300,10.199440185546875,9.032905578613281,0.46420758962631226,0.007178467698395252
1771680920371816400,10.20981640625,9.580862045288086,0.062213387340307236,0.24406790733337402
1771680920382163000,10.220162841796874,10.001998901367188,0.40677985548973083,0.19621145725250244
1771680920392540200,10.2305400390625,9.317651748657227,0.42831525206565857,0.20099709928035736
1771680920402886700,10.24088671875,10.796415328979492,0.2919243574142456,0.009571290574967861
1771680920413233200,10.251233154296875,9.547362327575684,0.17706887423992157,0.2799602448940277
1771680920423610400,10.2616103515625,10.53799057006836,0.47617170214653015,0.04785645380616188
1771680920433938700,10.271938720703124,9.432506561279297,0.20338992774486542,0.26081767678260803
1771680920444295400,10.28229541015625,10.040284156799316,0.5144568681716919,0.24167509377002716
1771680920454652400,10.29265234375,9.351150512695312,0.41156548261642456,0.17946170270442963
1771680920465027000,10.303027099609375,9.628718376159668,0.5383850932121277,0.48095735907554626
1771680920475366100,10.3133662109375,9.66939640045166,0.2153540402650833,0.4737788736820221
1771680920485750800,10.323750732421875,9.729216575622559,0.7728816866874695,0.3684946894645691
1771680920496080100,10.334080078125,10.198209762573242,0.13639089465141296,0.3445664644241333
1771680920506443800,10.34444384765625,10.571490287780762,0.22492532432079315,0.04785645380616188
1771680920516793900,10.3547939453125,9.803394317626953,0.6005984544754028,-0.07657032459974289
1771680920527167500,10.36516748046875,10.320243835449219,-0.03349951654672623,0.2105683982372284
1771680920537507600,10.375507568359374,8.812766075134277,0.5551348328590393,0.14835500717163086
1771680920547891200,10.38589111328125,10.442277908325195,0.19142581522464752,0.2105683982372284
1771680920558221300,10.39622119140625,9.554540634155273,0.641276478767395,0.2847459018230438
1771680920568584200,10.406584228515625,9.889535903930664,-0.19381862878799438,0.18424734473228455
1771680920578935300,10.416935302734375,9.791430473327637,0.6101697683334351,0.40677985548973083
1771680920589308000,10.427307861328124,9.841679573059082,0.0023928226437419653,0.39481574296951294
1771680920599649000,10.43764892578125,10.325029373168945,-0.038285162299871445,0.33020952343940735
1771680920610031600,10.448031494140626,10.188638687133789,0.7992027401924133,0.11246266216039658
1771680920620362800,10.45836279296875,10.26042366027832,0.25363919138908386,0.8111668825149536
1771680920630724600,10.468724609375,9.930213928222656,0.6508477330207825,0.23210379481315613
1771680920641076700,10.47907666015625,10.336994171142578,-0.1866401731967926,0.2871387302875519
1771680920651448300,10.4894482421875,9.262616157531738,1.1868400573730469,-0.08374879509210587
1771680920661794800,10.499794921875,10.001998901367188,-0.30628129839897156,0.23210379481315613
1771680920672172000,10.510172119140625,8.80798053741455,1.797009825706482,0.380458801984787
1771680920682518500,10.5205185546875,9.805787086486816,-0.9762716293334961,0.15074782073497772
1771680920692861200,10.530861083984375,10.370492935180664,1.2873386144638062,0.44027936458587646
1771680920703242200,10.5412421875,9.985248565673828,-0.2727817893028259,-0.10289137065410614
1771680920713588700,10.551588623046875,10.258030891418457,0.607776939868927,-0.03349951654672623
1771680920723935200,10.561935302734375,9.53061294555664,0.7154539823532104,0.14117653667926788
1771680920734289000,10.572288818359375,9.970891952514648,0.1698904037475586,0.3326023519039154
1771680920744659000,10.582658935546876,8.09252643585205,0.5790630578994751,0.1986042857170105
1771680920755002600,10.593002685546875,10.576275825500488,0.20099709928035736,0.6628118753433228
1771680920765382700,10.603382568359375,9.135796546936035,1.0289137363433838,0.30149564146995544
1771680920775716400,10.61371630859375,10.076175689697266,-0.41156548261642456,0.02392822690308094
1771680920786075600,10.62407568359375,9.846465110778809,1.155733346939087,0.20578274130821228
1771680920796430300,10.634430419921875,9.528220176696777,-0.12921242415905,0.31106695532798767
1771680920806799400,10.64479931640625,10.932806968688965,0.7034898400306702,0.24406790733337402
1771680920817144000,10.65514404296875,8.279166221618652,0.12442677468061447,0.43549370765686035
1771680920827523000,10.665523193359375,12.447463035583496,0.016749758273363113,0.43549370765686035
1771680920837857800,10.67585791015625,8.528019905090332,0.12203395366668701,0.02871387079358101
1771680920848216000,10.686216064453125,11.708081245422363,0.3613162338733673,-0.04307080805301666
1771680920858571500,10.696571533203125,8.48016357421875,-0.004785645287483931,0.4259224236011505
1771680920868939800,10.706939697265625,10.104889869689941,0.6460621356964111,0.7393822073936462
1771680920879285500,10.717285400390624,9.509077072143555,0.4307080805301666,0.3565305769443512
1771680920889663500,10.72766357421875,10.540383338928223,0.19381862878799438,0.3326023519039154
1771680920899999200,10.737999267578125,10.229316711425781,0.02871387079358101,-0.009571290574967861
1771680920910356500,10.7483564453125,11.203195571899414,0.5407779216766357,-0.035892341285943985
1771680920920733700,10.758733642578125,9.590433120727539,0.3613162338733673,-0.2919243574142456
1771680920931080200,10.769080078125,10.212567329406738,-0.20578274130821228,0.13878370821475983
1771680920941427000,10.779427001953126,9.865608215332031,0.6915257573127747,0.14356936514377594
1771680920951804000,10.789803955078124,9.798608779907227,-0.11246266216039658,0.20578274130821228
1771680920962140700,10.800140625,9.812965393066406,0.8422735929489136,0.22492532432079315
1771680920972527400,10.81052734375,9.389435768127441,0.2512463629245758,0.16031911969184875
1771680920982874000,10.8208740234375,9.832108497619629,0.35892340540885925,0.6915257573127747
1771680920993220600,10.831220703125,9.21715259552002,0.25363919138908386,0.4666004180908203
1771680921003597600,10.84159765625,9.908679008483887,0.2871387302875519,0.3852444589138031
1771680921013925000,10.851925048828125,10.535597801208496,0.6891329288482666,0.3565305769443512
1771680921024290800,10.862290771484375,9.798608779907227,-0.17946170270442963,0.6675975322723389
1771680921034639000,10.87263916015625,9.846465110778809,0.2967100143432617,0.5862415432929993
1771680921045014500,10.8830146484375,10.250852584838867,0.5096712112426758,0.6484549641609192
1771680921055352800,10.893352783203126,9.468399047851562,0.18903298676013947,0.7226324677467346
1771680921065738000,10.903738037109376,9.851250648498535,0.3732803463935852,0.5599204897880554
1771680921076066600,10.914066650390625,10.193424224853516,0.5958128571510315,0.380458801984787
1771680921086431200,10.92443115234375,9.073583602905273,0.2991028428077698,0.12921242415905
1771680921096780500,10.934780517578124,9.963713645935059,0.0526420995593071,0.3852444589138031
1771680921107155000,10.945155029296876,9.487542152404785,0.8542376756668091,0.7680960893630981
1771680921117494300,10.955494384765625,10.061819076538086,-0.08853443711996078,0.6532405614852905
1771680921127878400,10.96587841796875,9.360722541809082,0.9475577473640442,0.6484549641609192
1771680921138208000,10.9762080078125,10.39202880859375,0.02153540402650833,0.5982056856155396
1771680921148571600,10.986571533203126,10.083354949951172,-0.009571290574967861,0.4737788736820221
1771680921158922000,10.996921875,9.399007797241211,0.3206382393836975,0.5096712112426758
1771680921169295400,11.00729541015625,10.518848419189453,0.7513462901115417,0.4737788736820221
1771680921179635700,11.0176357421875,8.48734188079834,0.2847459018230438,0.32303106784820557
1771680921190018800,11.028018798828125,10.403992652893066,0.31345975399017334,0.2679961323738098
1771680921200349400,11.038349365234374,9.45882797241211,0.7824530005455017,0.35413774847984314
1771680921210712000,11.048712158203125,10.05703353881836,-0.10049854964017868,0.5096712112426758
1771680921221063400,11.0590634765625,9.442078590393066,0.7250252366065979,0.11964113265275955
1771680921231435800,11.069435791015625,9.884750366210938,-0.02871387079358101,0.3086741268634796
1771680921241777200,11.079777099609375,10.473384857177734,0.30149564146995544,0.42831525206565857
1771680921252159200,11.0901591796875,9.985248565673828,0.15314064919948578,0.08614161610603333
1771680921262491000,11.100490966796874,10.50209903717041,0.4618147611618042,0.31824541091918945
1771680921272852500,11.1108525390625,9.899106979370117,0.08135596662759781,0.08374879509210587
1771680921283229400,11.1212294921875,9.686145782470703,1.0049854516983032,0.20099709928035736
1771680921293576200,11.131576171875,10.1216402053833,0.9571290612220764,0.4546363055706024
1771680921303922700,11.141922607421876,9.621540069580078,0.9284151792526245,0.5958128571510315
1771680921314275300,11.152275390625,10.095318794250488,0.6747759580612183,0.2799602448940277
1771680921324646400,11.162646484375,9.889535903930664,1.552941918373108,0.059820566326379776
1771680921334989300,11.1729892578125,11.24626636505127,0.519242525100708,-0.035892341285943985
1771680921345369900,11.183369873046875,10.351350784301758,0.4091726839542389,-0.02632104977965355
1771680921355703000,11.193703125,10.619346618652344,1.2083754539489746,0.05742774158716202
1771680921366063000,11.20406298828125,9.367900848388672,0.5742774605751038,0.4163511395454407
1771680921376417000,11.2144169921875,9.157332420349121,0.3900300860404968,0.20817556977272034
1771680921386786800,11.224786865234375,8.760123252868652,1.1174482107162476,0.23210379481315613
1771680921397130800,11.235130859375,9.710074424743652,0.6460621356964111,0.275174617767334
1771680921407510300,11.24551025390625,8.965906143188477,0.12442677468061447,0.3445664644241333
1771680921417844500,11.255844482421875,9.784252166748047,0.48813581466674805,0.29431718587875366
1771680921428203500,11.26620361328125,9.985248565673828,0.5838487148284912,0.2847459018230438
1771680921438558200,11.27655810546875,10.030712127685547,0.31824541091918945,0.3445664644241333
1771680921448915200,11.286915283203125,9.446864128112793,0.26081767678260803,0.5216353535652161
1771680921459272200,11.297272216796875,9.643074989318848,0.06699903309345245,0.698704183101654
1771680921469650700,11.307650634765626,9.757930755615234,0.40677985548973083,0.6532405614852905
1771680921479986000,11.31798583984375,9.69093132019043,0.5718846321105957,-0.11724831163883209
1771680921490344000,11.328343994140624,10.231709480285645,0.8255237936973572,-0.19381862878799438
1771680921500721000,11.338720947265625,9.7938232421875,0.41874396800994873,-0.22492532432079315
1771680921511067600,11.349067626953126,9.872786521911621,0.8422735929489136,0.2991028428077698
1771680921521413600,11.35941357421875,9.549755096435547,0.5431707501411438,0.8350951075553894
1771680921531791000,11.369791015625,9.717252731323242,0.3517449200153351,0.6819544434547424
1771680921542127400,11.38012744140625,10.332208633422852,-0.16271193325519562,0.2512463629245758
1771680921552484400,11.390484375,9.743574142456055,-0.3613162338733673,-0.01196411345154047
1771680921562861300,11.400861328125,10.439885139465332,-0.05503492057323456,-0.02153540402650833
1771680921573208000,11.4112080078125,9.66939640045166,-0.5072783827781677,0.760917603969574
1771680921583585000,11.4215849609375,9.748359680175781,0.12203395366668701,0.5790630578994751
1771680921593911800,11.431911865234374,10.152746200561523,0.39481574296951294,0.8662018179893494
1771680921604278300,11.4422783203125,8.9850492477417,-0.5527420043945312,0.39481574296951294
1771680921614625800,11.452625732421875,10.191031455993652,0.31824541091918945,0.3565305769443512
1771680921625001700,11.463001708984375,9.324830055236816,0.13878370821475983,0.23210379481315613
1771680921635339500,11.473339599609375,9.963713645935059,-0.41156548261642456,0.4426721930503845
1771680921645725400,11.483725341796875,9.899106979370117,-0.016749758273363113,0.07417750358581543
1771680921656053200,11.49405322265625,10.454241752624512,0.23210379481315613,0.02153540402650833
1771680921666418700,11.504418701171875,10.619346618652344,0.08135596662759781,0.1459621787071228
1771680921687142400,11.525142333984375,11.033305168151855,0.8207381963729858,0.1866401731967926
1771680921697481000,11.53548095703125,9.449256896972656,0.059820566326379776,0.5383850932121277
1771680921707865900,11.545865966796875,9.7938232421875,-0.08135596662759781,-0.016749758273363113
1771680921718194700,11.556194580078126,9.899106979370117,0.6771687865257263,-0.13160525262355804
1771680921728559000,11.56655908203125,10.351350784301758,-0.09571290761232376,0.2727817893028259
1771680921738908700,11.57690869140625,9.784252166748047,0.41874396800994873,0.3732803463935852
1771680921749282800,11.58728271484375,9.992427825927734,0.31345975399017334,0.4570291340351105
1771680921759622400,11.597622314453124,10.959127426147461,0.550349235534668,0.15314064919948578
1771680921770006300,11.60800634765625,8.82951545715332,-0.2847459018230438,0.07417750358581543
1771680921780336000,11.618336181640625,10.442277908325195,0.2679961323738098,0.18903298676013947
1771680921790699500,11.628699462890625,9.667003631591797,0.8279166221618652,0.02871387079358101
1771680921801050000,11.639050048828125,9.052047729492188,-0.10289137065410614,0.4091726839542389
1771680921811423200,11.64942333984375,9.415757179260254,0.12442677468061447,0.0933200865983963
1771680921821763800,11.659763916015624,10.459028244018555,1.5744773149490356,0.2632105052471161
1771680921832146700,11.670146728515626,10.332208633422852,1.856830358505249,0.4498506486415863
1771680921842477600,11.6804775390625,9.506684303283691,1.1629117727279663,0.23688943684101105
1771680921852840000,11.69083984375,10.681560516357422,1.8592232465744019,0.0023928226437419653
1771680921863217000,11.701216796875,9.915857315063477,2.6273193359375,-0.3924229145050049
1771680921873563600,11.711563720703126,9.937392234802246,-0.48095735907554626,-0.1052841991186142
1771680921883910100,11.72191015625,11.076375961303711,2.493321180343628,-0.13639089465141296
1771680921894262300,11.73226220703125,11.028519630432129,2.8905298709869385,0.07657032459974289
1771680921904633900,11.7426337890625,9.42054271697998,1.521835207939148,0.5264210104942322
1771680921914976000,11.75297607421875,10.37767219543457,2.785245656967163,0.48813581466674805
1771680921925357300,11.763357421875,10.088140487670898,2.885744094848633,0.8255237936973572
1771680921935689700,11.773689697265626,8.673981666564941,0.760917603969574,-0.16749759018421173
1771680921946046700,11.784046630859375,8.920442581176758,-0.349352091550827,-0.34217363595962524
1771680921956403500,11.794403564453125,10.6025972366333,3.0723843574523926,0.18424734473228455
1771680921966774300,11.804774169921876,9.07119083404541,1.5433706045150757,0.15553347766399384
1771680921977117400,11.815117431640624,9.281759262084961,-0.16510476171970367,0.4785645306110382
1771680921987497700,11.825497802734375,9.564111709594727,0.8398807644844055,0.672383189201355
1771680921997831200,11.8358310546875,9.585647583007812,2.2947168350219727,0.42352959513664246
1771680922008191000,11.84619091796875,9.377471923828125,0.8685946464538574,0.28235307335853577
1771680922018545200,11.856545166015625,8.760123252868652,0.3326023519039154,0.3924229145050049
1771680922028914700,11.866914794921875,8.956335067749023,1.4069796800613403,0.3732803463935852
1771680922039259000,11.8772587890625,9.937392234802246,1.3304094076156616,0.8039883971214294
1771680922049638100,11.88763818359375,8.851051330566406,0.6843472719192505,0.397208571434021
1771680922059972600,11.89797265625,10.372885704040527,0.6125625967979431,0.35892340540885925
1771680922070331400,11.908331298828125,9.738788604736328,2.3856441974639893,-0.22492532432079315
1771680922080708400,11.918708251953126,10.277173042297363,0.7968099117279053,0.01196411345154047
1771680922091055000,11.92905517578125,9.58325481414795,0.9858429431915283,-0.09571290761232376
1771680922101400300,11.939400390625,10.564311981201172,1.7395820617675781,0.08853443711996078
1771680922111778600,11.949778564453124,9.985248565673828,0.8685946464538574,0.11246266216039658
1771680922122114000,11.960114013671875,9.717252731323242,0.6245267391204834,0.363709032535553
1771680922132471800,11.970471923828125,10.504491806030273,2.038684844970703,0.275174617767334
1771680922142848800,11.980848876953125,9.966106414794922,1.124626636505127,0.8159525394439697
1771680922153195500,11.991195556640625,9.42772102355957,0.031106693670153618,0.5383850932121277
1771680922163542000,12.0015419921875,10.698309898376465,1.7539390325546265,0.2105683982372284
1771680922173898800,12.011898681640625,10.214960098266602,1.6606189012527466,0.5120640397071838
1771680922184265700,12.022265625,9.772287368774414,-0.6652047038078308,0.28235307335853577
1771680922194612500,12.032612548828125,9.982855796813965,1.3615161180496216,0.11485548317432404
1771680922204989200,12.0429892578125,11.313265800476074,2.0027925968170166,0.36610186100006104
1771680922215326200,12.053326171875,8.73619556427002,-0.2225325107574463,0.13160525262355804
1771680922225713000,12.063712890625,10.183853149414062,0.8638089895248413,-0.031106693670153618
1771680922236040000,12.0740400390625,9.987641334533691,2.069791555404663,0.02871387079358101
1771680922246406100,12.08440625,9.533005714416504,0.3684946894645691,0.5838487148284912
1771680922256754000,12.09475390625,9.643074989318848,0.5790630578994751,0.1052841991186142
1771680922267129600,12.105129638671874,10.549955368041992,1.950150489807129,0.064606212079525
1771680922277467600,12.115467529296875,9.55214786529541,1.1772687435150146,0.5623133182525635
1771680922287853300,12.125853271484376,9.394221305847168,0.02153540402650833,0.5024927258491516
1771680922298181400,12.136181396484375,9.729216575622559,1.825723648071289,0.4450650215148926
1771680922308546600,12.146546630859374,9.836894035339355,1.210768222808838,0.7561319470405579
1771680922318895400,12.156895263671874,8.958727836608887,0.14117653667926788,0.40677985548973083
1771680922329270000,12.16727001953125,9.516255378723145,1.6390835046768188,0.1459621787071228
1771680922339609000,12.177609130859375,10.526026725769043,1.9573289155960083,0.7058826684951782
1771680922349993700,12.18799365234375,8.590232849121094,-0.47617170214653015,0.5000999569892883
1771680922360323000,12.198322998046875,9.741181373596191,1.0911271572113037,0.007178467698395252
1771680922370687000,12.20868701171875,10.131211280822754,2.675175666809082,-0.02153540402650833
1771680922381064000,12.21906396484375,9.4061861038208,0.05503492057323456,0.16031911969184875
1771680922391410400,12.229410400390625,9.109476089477539,0,0.02392822690308094
1771680922401750500,12.23975048828125,10.686346054077148,2.4287149906158447,0.4139583110809326
1771680922412134100,12.250134033203125,9.963713645935059,0.7848458290100098,0.3517449200153351
1771680922422464300,12.26046435546875,9.138189315795898,0.11246266216039658,0.20578274130821228
1771680922432827400,12.270827392578125,10.00439167022705,2.3712873458862305,0.1866401731967926
1771680922443178200,12.28117822265625,10.176674842834473,1.2610175609588623,0.916451096534729
1771680922453550800,12.29155078125,9.044869422912598,-0.1459621787071228,0.4331009089946747
1771680922463897600,12.301897705078124,10.164710998535156,1.8544375896453857,0.11724831163883209
1771680922474249000,12.3122490234375,10.389636039733887,1.2658032178878784,-0.062213387340307236
1771680922484621000,12.32262109375,9.623932838439941,-0.31106695532798767,-0.05742774158716202
1771680922494962700,12.332962646484376,10.980663299560547,1.9214365482330322,-0.2153540402650833
1771680922505344800,12.3433447265625,10.097711563110352,1.210768222808838,0.2512463629245758
1771680922515676400,12.353676513671875,9.712467193603516,-0.2225325107574463,0.07178468257188797
1771680922526038000,12.3640380859375,9.860821723937988,1.703689694404602,0.22013968229293823
1771680922536390400,12.374390380859374,11.018948554992676,2.352144718170166,0.5982056856155396
1771680922546761500,12.384761474609375,9.116654396057129,-0.23449662327766418,0.4450650215148926
1771680922557104000,12.395104248046875,10.16710376739502,0.8973084688186646,0.2799602448940277
1771680922567485200,12.405485107421875,10.37767219543457,2.6560330390930176,-0.41874396800994873
1771680922577817900,12.41581787109375,10.439885139465332,0.2225325107574463,0.5312066078186035
1771680922588178400,12.426178466796875,8.659625053405762,0.5383850932121277,-0.3038884699344635
1771680922598531800,12.43653173828125,11.408978462219238,2.2612173557281494,0.04785645380616188
1771680922608902000,12.44690185546875,9.21715259552002,0.698704183101654,-0.4043870270252228
1771680922619245600,12.45724560546875,10.037891387939453,0.7130611538887024,-0.25363919138908386
1771680922629625600,12.46762548828125,10.325029373168945,2.3569302558898926,-0.07178468257188797
1771680922639959300,12.477959228515624,9.415757179260254,0.45942193269729614,0.49292147159576416
1771680922650318800,12.48831884765625,9.635896682739258,0.5790630578994751,0.11246266216039658
1771680922660673300,12.49867333984375,10.030712127685547,2.5531418323516846,-0.14356936514377594
1771680922671042300,12.509042236328124,9.908679008483887,0.6628118753433228,0.8781659007072449
1771680922681389000,12.51938916015625,10.191031455993652,0.6939185857772827,0.5168496966362
1771680922691766000,12.52976611328125,10.205389022827148,2.0985054969787598,0.7489534616470337
1771680922702112500,12.540112548828125,9.796216011047363,0.7345965504646301,0.7585247755050659
1771680922712459300,12.550459228515624,9.789037704467773,1.2658032178878784,0.5623133182525635
1771680922722836200,12.560836181640624,9.997213363647461,1.828116536140442,-0.035892341285943985
1771680922733182700,12.5711826171875,9.399007797241211,0.5168496966362,0.4211367964744568
1771680922743529500,12.581529541015625,9.7005033493042,1.1030912399291992,-0.05742774158716202
1771680922753885400,12.591885498046874,9.999606132507324,2.258824586868286,-0.23449662327766418
1771680922764253000,12.6022529296875,9.18843936920166,0.49292147159576416,0.42831525206565857
1771680922774599200,12.61259912109375,9.554540634155273,0.4211367964744568,0.5527420043945312
1771680922784976600,12.6229765625,10.784451484680176,2.5698914527893066,0.2727817893028259
1771680922795313000,12.63331298828125,9.521040916442871,0.4307080805301666,0.39960137009620667
1771680922805700400,12.643700439453125,9.805787086486816,1.0360921621322632,0.4953143000602722
1771680922816027000,12.65402685546875,9.69093132019043,2.2683959007263184,0.2632105052471161
1771680922826393300,12.664393310546876,9.17886734008789,0.6484549641609192,0.9762716293334961
1771680922836740600,12.67474072265625,9.516255378723145,1.2035897970199585,0.43549370765686035
1771680922847117000,12.685116943359375,10.01874828338623,2.1607189178466797,-0.07178468257188797
1771680922857454300,12.695454345703125,9.595218658447266,0.1986042857170105,0.18424734473228455
1771680922867840800,12.7058408203125,10.06421184539795,1.0289137363433838,0.08853443711996078
1771680922878168300,12.716168212890626,10.834700584411621,2.0793628692626953,-0.3445664644241333
1771680922888533800,12.72653369140625,9.987641334533691,0.11006984114646912,0.14356936514377594
1771680922898882000,12.736882080078125,9.748359680175781,0.9762716293334961,-0.035892341285943985
1771680922909257500,12.747257568359375,10.777273178100586,2.4765713214874268,0.2512463629245758
1771680922919595800,12.757595703125,9.236295700073242,0.5264210104942322,0.8135597109794617
1771680922929981200,12.767981201171875,9.193224906921387,0.8901300430297852,0.2560320198535919
1771680922940309800,12.778309814453126,9.722038269042969,2.0889341831207275,0.6293123364448547
1771680922950674200,12.788674072265625,9.298508644104004,0.7513462901115417,0.5934200286865234
1771680922961023500,12.7990234375,9.884750366210938,1.1820544004440308,0.1746760457754135
1771680922971398000,12.80939794921875,10.016355514526367,1.2705888748168945,-0.15074782073497772
1771680922981737200,12.8197373046875,9.645467758178711,0.26560330390930176,-0.07896314561367035
1771680922992121600,12.83012158203125,10.265209197998047,1.820937991142273,-0.17706887423992157
1771680923002451200,12.840451171875,9.705288887023926,1.2705888748168945,0.2799602448940277
1771680923012814600,12.850814697265625,9.140582084655762,-0.12921242415905,0.2392822653055191
1771680923023165000,12.8611650390625,9.844072341918945,1.8831514120101929,0.26081767678260803
1771680923033538300,12.871538330078126,10.214960098266602,1.9381862878799438,-0.09092725813388824
1771680923043884800,12.881884765625,8.877371788024902,-0.08374879509210587,0.7322037220001221
1771680923054235600,12.892235595703125,10.17428207397461,1.9262222051620483,0.7728816866874695
1771680923064608500,12.9026083984375,9.750752449035645,1.7850457429885864,0.4666004180908203
1771680923074949400,12.912949462890625,10.332208633422852,0.40677985548973083,0.3613162338733673
1771680923085332200,12.923332275390624,10.02592658996582,1.9094724655151367,0.07178468257188797
1771680923095663400,12.933663330078126,10.047462463378906,1.2634103298187256,0.3565305769443512
1771680923106025200,12.944025146484375,9.91825008392334,0.6795616149902344,-0.062213387340307236
1771680923116377000,12.954377197265625,10.03549861907959,1.9525432586669922,-0.29431718587875366
1771680923126749000,12.9647490234375,9.65503978729248,0.9906286001205444,-0.004785645287483931
1771680923137090800,12.9750908203125,9.626325607299805,0.8279166221618652,0.5000999569892883
1771680923147472600,12.98547265625,9.80100154876709,1.6941183805465698,0.3278166949748993
1771680923157804800,12.9958046875,9.588040351867676,1.0863415002822876,0.38285163044929504
1771680923168165600,13.00616552734375,10.028319358825684,0.9547362327575684,0.4139583110809326
1771680923178518500,13.0165185546875,9.123832702636719,1.7371892929077148,0.4546363055706024
1771680923188889300,13.026889404296876,9.564111709594727,0.8685946464538574,0.8614161610603333
1771680923199232300,13.037232177734374,10.389636039733887,1.4069796800613403,0.2153540402650833
1771680923209613000,13.047613037109375,9.865608215332031,1.153340458869934,-0.3038884699344635
1771680923219946200,13.0579462890625,9.518648147583008,0.24885354936122894,0.016749758273363113
1771680923230306000,13.06830615234375,10.526026725769043,1.4261223077774048,0.17706887423992157
1771680923240683300,13.078683349609374,10.06421184539795,1.2179467678070068,-0.28953152894973755
1771680923251029800,13.08902978515625,9.463613510131836,0.11006984114646912,0.07657032459974289
1771680923261373700,13.099373779296876,10.095318794250488,2.0027925968170166,0.4259224236011505
1771680923271753500,13.10975341796875,9.66221809387207,1.521835207939148,0.8183453679084778
1771680923282087700,13.120087646484375,9.671789169311523,0.4666004180908203,0.7585247755050659
1771680923292446500,13.130446533203125,10.573883056640625,1.8807586431503296,0.41874396800994873
1771680923302823700,13.14082373046875,9.846465110778809,1.1222338676452637,0.6628118753433228
1771680923313170200,13.151170166015625,9.90149974822998,0.5096712112426758,0.2847459018230438
1771680923323516700,13.1615166015625,9.781859397888184,1.7802600860595703,0.3326023519039154
1771680923333872000,13.1718720703125,9.812965393066406,0.9667003750801086,-0.2679961323738098
1771680923344240400,13.182240478515626,9.604789733886719,0.9499505758285522,-0.550349235534668
1771680923354585900,13.1925859375,10.009177207946777,1.6295121908187866,0.11006984114646912
1771680923364964000,13.202964111328125,9.602396965026855,0.4713860750198364,-0.05503492057323456
1771680923375299800,13.2132998046875,10.29870891571045,1.3782658576965332,0.007178467698395252
1771680923385657000,13.223656982421875,9.135796546936035,1.495514154434204,0.38763725757598877
1771680923396013600,13.234013671875,9.824930191040039,0.3206382393836975,0.7441678643226624
1771680923406380800,13.244380859375,10.145567893981934,1.8496519327163696,0.7776673436164856
1771680923416727300,13.254727294921874,9.848857879638672,0.5431707501411438,0.6747759580612183
1771680923427104500,13.2651044921875,8.891729354858398,1.1676974296569824,0.4211367964744568
1771680923437441300,13.275441162109376,10.808380126953125,1.9310078620910645,0.2919243574142456
1771680923447798000,13.285798095703125,8.528019905090332,0.1698904037475586,0.33738797903060913
1771680923458155000,13.296155029296875,9.89432144165039,1.0169496536254883,0.07178468257188797
1771680923468521200,13.306521240234375,9.966106414794922,1.919043779373169,-0.10767702013254166
1771680923478868700,13.31686865234375,9.525827407836914,0.05742774158716202,-0.08374879509210587
1771680923489245000,13.327244873046874,10.466206550598145,0.914058268070221,0.16031911969184875
1771680923499582500,13.33758251953125,9.882357597351074,1.923829436302185,0.44027936458587646
1771680923509968600,13.34796875,9.119047164916992,0.14117653667926788,0.17228323221206665
1771680923520296400,13.35829638671875,9.353543281555176,1.7204394340515137,0.7417750358581543
1771680923530661600,13.36866162109375,9.707681655883789,1.5002998113632202,0.8015955686569214
1771680923541010200,13.37901025390625,10.370492935180664,0.1339980661869049,0.16271193325519562
1771680923551385300,13.38938525390625,10.382457733154297,2.1511476039886475,-0.24646073579788208
1771680923561724200,13.39972412109375,9.985248565673828,0.5383850932121277,-0.11246266216039658
1771680923572109000,13.410109130859375,9.695717811584473,0.4618147611618042,-0.09810572862625122
1771680923582455600,13.42045556640625,10.114460945129395,1.7084753513336182,-0.07896314561367035
1771680923592802000,13.430802001953126,9.571290969848633,0.5216353535652161,0.20099709928035736
1771680923603179300,13.44117919921875,9.66221809387207,0.9643075466156006,0.46420758962631226
1771680923613525800,13.45152587890625,10.152746200561523,1.7467604875564575,0.5838487148284912
1771680923623872300,13.461872314453124,9.731609344482422,0.5910272002220154,0.47617170214653015
1771680923634222300,13.472222412109375,9.91107177734375,1.6390835046768188,0.6340979933738708
1771680923644596000,13.482595947265626,9.250652313232422,0.7513462901115417,0.641276478767395
