time,seconds_elapsed,z,y,x
1773047956117346800,0.220346923828125,0,0,0
1773047956127302400,0.230302490234375,0.25859737396240234,0.40653806924819946,-0.11963891983032227
1773047956147165400,0.25016552734375,-0.7422218322753906,-0.33228474855422974,0.3226552903652191
1773047956157142300,0.260142333984375,0.23748397827148438,-0.020552217960357666,-0.6803504228591919
1773047956167119000,0.270119140625,0.32952404022216797,-0.23717957735061646,-0.289351224899292
1773047956177091300,0.28009130859375,-0.4891090393066406,-0.3850640058517456,0.15417072176933289
1773047956187045600,0.290045654296875,0.5523767471313477,-0.3459356725215912,0.45567989349365234
1773047956196931000,0.29993115234375,0.018622398376464844,0.37568795680999756,1.0220519304275513
1773047956206857000,0.30985693359375,0.3185243606567383,-0.03820875287055969,-0.43249940872192383
1773047956216843500,0.319843505859375,0.37235355377197266,-0.45843786001205444,-0.6932572722434998
1773047956226794500,0.32979443359375,-1.273834228515625,-0.3965664803981781,-0.0381283164024353
1773047956236795100,0.339795166015625,-1.1360740661621094,-0.04510176181793213,0.2948744595050812
1773047956246766800,0.349766845703125,1.0436792373657227,-0.3176921606063843,-0.41718798875808716
1773047956256946700,0.35994677734375,-0.6659212112426758,-0.04900407791137695,-0.11095619201660156
1773047956267126800,0.370126708984375,0.3766489028930664,0.029083192348480225,-0.04445558786392212
1773047956277306600,0.380306640625,-0.2672901153564453,-0.08727812767028809,-0.07645684480667114
1773047956287486700,0.39048681640625,-0.20277786254882812,-0.5901288986206055,0.540439248085022
1773047956297356000,0.40035595703125,-1.4349279403686523,-0.2891198396682739,0.0371745228767395
1773047956307361300,0.410361328125,0.37894725799560547,-0.16154323518276215,-0.9184609055519104
1773047956317310500,0.420310546875,-0.40978240966796875,-0.2467900514602661,0.045896828174591064
1773047956327293000,0.43029296875,-0.17201805114746094,0.45385366678237915,1.7160472869873047
1773047956337226000,0.44022607421875,0.3714485168457031,0.7309536933898926,-0.9355341196060181
1773047956347188200,0.450188232421875,1.016627311706543,0.07646802067756653,-0.6837775707244873
1773047956357217800,0.4602177734375,-0.9777975082397461,-0.497976690530777,1.6622427701950073
1773047956367207200,0.470207275390625,-0.44754791259765625,-0.046539247035980225,0.45124125480651855
1773047956377171500,0.48017138671875,1.3304357528686523,0.2687259614467621,-1.6269325017929077
1773047956387150800,0.49015087890625,-0.6425008773803711,0.0030964016914367676,-0.39223700761795044
1773047956397125400,0.50012548828125,-0.578974723815918,0.02090880274772644,2.006376266479492
1773047956407102700,0.510102783203125,0.07917499542236328,0.25045713782310486,0.1397814154624939
1773047956417079000,0.5200791015625,0.7300519943237305,-0.21274437010288239,-0.9348950982093811
1773047956427055900,0.530055908203125,0.025322914123535156,0.001110464334487915,0.039083003997802734
1773047956437032700,0.54003271484375,-0.6393489837646484,0.37647005915641785,0.0021406710147857666
1773047956447009500,0.550009521484375,-0.33710289001464844,0.5095585584640503,0.23786120116710663
1773047956456986400,0.559986328125,-1.3089256286621094,0.6114996075630188,0.19472767412662506
1773047956466963200,0.569963134765625,0.13321876525878906,0.2755099833011627,-0.9990518093109131
1773047956476940000,0.57993994140625,0.5534791946411133,-0.03297829627990723,-0.6327016353607178
1773047956486916900,0.589916748046875,0.7204380035400391,0.34226930141448975,2.148125171661377
1773047956496893700,0.599893798828125,-0.039811134338378906,-0.07673671841621399,1.1242790222167969
1773047956506870500,0.60987060546875,1.0023775100708008,-0.008982151746749878,-1.4505281448364258
1773047956516847400,0.619847412109375,0.3612403869628906,0.018293648958206177,-0.09016150236129761
1773047956526824200,0.62982421875,-1.4890356063842773,-0.23665395379066467,2.0423591136932373
1773047956536801000,0.639801025390625,1.3142967224121094,-0.3347606658935547,1.1213902235031128
1773047956546777900,0.64977783203125,0.7044467926025391,-0.8266310691833496,-1.7729854583740234
1773047956556754700,0.659754638671875,1.039957046508789,-0.7222937345504761,-0.9494652152061462
1773047956566731500,0.6697314453125,-0.12547874450683594,0.02418878674507141,1.2159597873687744
1773047956576611600,0.679611572265625,-1.2473487854003906,0.778097927570343,1.7209646701812744
1773047956586429700,0.6894296875,0.724553108215332,0.33263111114501953,-0.41927605867385864
1773047956596609500,0.699609619140625,1.5073471069335938,-0.24015100300312042,-1.41337251663208
1773047956606686700,0.709686767578125,-0.30116748809814453,-0.09873080253601074,0.636786162853241
1773047956616615700,0.71961572265625,-0.7551803588867188,-0.09946441650390625,0.9445282220840454
1773047956626595800,0.729595947265625,0.6307535171508789,0.5024629235267639,-0.3920663893222809
1773047956636569300,0.7395693359375,-1.0769519805908203,0.37838515639305115,-1.4385643005371094
1773047956646549000,0.749549072265625,-0.7282686233520508,0.6483145952224731,-0.03198647499084473
1773047956656523000,0.75952294921875,-0.8277063369750977,-0.030371755361557007,-0.08785378932952881
1773047956666502100,0.769502197265625,-1.960421085357666,0.6396763324737549,-0.7049651145935059
1773047956676476700,0.7794765625,-0.5619926452636719,1.1879115104675293,-0.39266321063041687
1773047956686455300,0.789455322265625,-1.0746431350708008,0.41369420289993286,-0.11794137954711914
1773047956696430300,0.799430419921875,-0.8162565231323242,-0.3237878680229187,-0.18473771214485168
1773047956706408700,0.80940869140625,0.2617483139038086,-0.22354991734027863,-0.3822743594646454
1773047956716384000,0.819384033203125,-1.060739517211914,-0.0882515013217926,-0.4866198003292084
1773047956726362000,0.829362060546875,-0.506007194519043,0.4280773401260376,-0.39625313878059387
1773047956736337700,0.839337646484375,-0.5771656036376953,0.6076897382736206,0.6799805760383606
1773047956746315500,0.8493154296875,-0.3177986145019531,1.0093103647232056,0.34380701184272766
1773047956756291300,0.859291259765625,-0.2709674835205078,0.8617485761642456,-0.35118305683135986
1773047956766269000,0.86926904296875,0.5493745803833008,-0.11444899439811707,-0.427145779132843
1773047956776149000,0.87914892578125,0.41512298583984375,-0.10376685857772827,0.11304515600204468
1773047956785966800,0.888966796875,0.21358489990234375,0.014232665300369263,1.6986671686172485
1773047956796146700,0.899146728515625,0.9607467651367188,0.027146100997924805,1.3108959197998047
1773047956806181000,0.90918115234375,0.7636175155639648,-0.02431732416152954,-2.0754361152648926
1773047956816152300,0.91915234375,0.05515098571777344,-0.16961385309696198,-1.0116817951202393
1773047956826133800,0.9291337890625,-0.04189014434814453,-0.2546679377555847,2.4635136127471924
1773047956836106000,0.93910595703125,0.09936904907226562,0.42814821004867554,0.7839868068695068
1773047956846086400,0.94908642578125,0.841069221496582,0.5204027891159058,-1.9489771127700806
1773047956856059600,0.9590595703125,0.6730499267578125,-0.5745783448219299,-0.1255732774734497
1773047956866039600,0.96903955078125,0.6657381057739258,-1.0457932949066162,2.250667095184326
1773047956875919400,0.97891943359375,0.7195777893066406,-0.9551836252212524,0.0962224006652832
1773047956885737000,0.988737060546875,1.0102825164794922,-0.6807990074157715,-0.9882016181945801
1773047956895916800,0.998916748046875,-0.2759571075439453,-0.6666326522827148,-0.29611051082611084
1773047956905950700,1.00895068359375,0.23338031768798828,-0.7781737446784973,1.271923303604126
1773047956915920600,1.018920654296875,0.3857231140136719,-0.6860222816467285,-0.45681798458099365
1773047956925903000,1.028903076171875,0.3731966018676758,-0.9344577789306641,-0.6637190580368042
1773047956935874300,1.038874267578125,0.4225339889526367,-1.0657930374145508,0.5915738344192505
1773047956945855700,1.048855712890625,-0.2244739532470703,-0.46752190589904785,0.44654881954193115
1773047956955828000,1.058827880859375,-0.13726139068603516,-0.15981680154800415,-0.14968359470367432
1773047956965808400,1.068808349609375,0.03517436981201172,-0.6851898431777954,-0.3618422746658325
1773047956975688400,1.0786884765625,1.472517967224121,-1.5217862129211426,-0.10721182823181152
1773047956985505800,1.088505859375,0.8181076049804688,-0.7659008502960205,1.354849100112915
1773047956995686000,1.098685791015625,1.2809791564941406,-0.41622304916381836,0.47554171085357666
1773047957005719600,1.108719482421875,0.36891841888427734,-0.508549690246582,-0.7215390205383301
1773047957015689000,1.11868896484375,0.5357627868652344,-0.5380454659461975,0.9617633819580078
1773047957025672000,1.128671875,-0.6239805221557617,-0.4172338843345642,1.2240023612976074
1773047957035643000,1.138642822265625,0.2903890609741211,-0.5755636692047119,-0.20300793647766113
1773047957045624300,1.148624267578125,0.6182050704956055,-0.8359403014183044,0.5446710586547852
1773047957055596500,1.158596435546875,0.3911399841308594,-0.6361317038536072,2.7681772708892822
1773047957065577200,1.1685771484375,0.06389236450195312,0.09115375578403473,-1.7912726402282715
1773047957075550200,1.17855029296875,-1.7414336204528809,0.1036510169506073,-0.9225544929504395
1773047957085530000,1.188530029296875,0.5411386489868164,-0.09946312010288239,1.2351009845733643
1773047957095504000,1.19850390625,-0.9050121307373047,-1.0935232639312744,-2.0005412101745605
1773047957105483300,1.208483154296875,1.449859619140625,-1.3237589597702026,0.043755531311035156
1773047957115457800,1.218457763671875,1.4815540313720703,-0.668205738067627,3.02531099319458
1773047957125436400,1.2284365234375,0.8348731994628906,-1.137353539466858,0.7113368511199951
1773047957135411500,1.238411376953125,0.7793407440185547,-1.27944016456604,-1.439556360244751
1773047957145389800,1.248389892578125,0.7536525726318359,-0.6567161083221436,0.6882336139678955
1773047957155365000,1.258365234375,-0.5800695419311523,-0.24598680436611176,2.0379295349121094
1773047957165343200,1.26834326171875,0.40488719940185547,-0.23551353812217712,-0.2107558250427246
1773047957175318800,1.27831884765625,-1.0300226211547852,-0.11095072329044342,-0.3446173667907715
1773047957185296600,1.288296630859375,-0.9489364624023438,-0.2003048062324524,0.4235978126525879
1773047957195272400,1.2982724609375,-0.00203704833984375,-1.3376647233963013,-0.7424390316009521
1773047957205250000,1.30825,0.6469926834106445,-0.5930277109146118,-0.07160377502441406
1773047957215226000,1.31822607421875,0.9869909286499023,0.0864836573600769,1.8752665519714355
1773047957225203700,1.32820361328125,0.7882680892944336,-0.02039770781993866,-0.12763690948486328
1773047957235180000,1.338179931640625,0.5164976119995117,0.23593762516975403,-0.271848201751709
1773047957245157400,1.348157470703125,0.5693445205688477,0.026987701654434204,1.1655977964401245
1773047957255133700,1.3581337890625,0.2996683120727539,0.3995278775691986,0.28655362129211426
1773047957265110800,1.36811083984375,0.24054241180419922,0.5945098996162415,-0.5168600082397461
1773047957275087400,1.37808740234375,-0.5500802993774414,0.826592206954956,0.5269231796264648
1773047957285064400,1.388064453125,-0.9233551025390625,1.4210014343261719,1.0604867935180664
1773047957294944500,1.397944580078125,-1.4961590766906738,1.5563760995864868,-0.9068245887756348
1773047957304762400,1.407762451171875,-1.3420662879943848,1.2608833312988281,-2.1966567039489746
1773047957314942500,1.4179423828125,-0.6090202331542969,0.756365180015564,0.3656489849090576
1773047957324977000,1.427976806640625,-0.31467151641845703,0.659318208694458,1.1926984786987305
1773047957334948400,1.4379482421875,0.04050159454345703,1.2032626867294312,-0.38927292823791504
1773047957344929300,1.44792919921875,-0.1575946807861328,1.3006925582885742,-0.447246789932251
1773047957354902000,1.457902099609375,-0.5698509216308594,0.9949833154678345,0.7430224418640137
1773047957364882400,1.46788232421875,-0.9531307220458984,0.46540942788124084,0.2397594451904297
1773047957374855700,1.477855712890625,-0.14157772064208984,-0.16183051466941833,-1.6200072765350342
1773047957384835300,1.48783544921875,-2.1998558044433594,-0.20825831592082977,-1.9930152893066406
1773047957394809600,1.4978095703125,0.2490711212158203,-0.40589165687561035,-1.0032825469970703
1773047957404788500,1.50778857421875,-2.8428869247436523,0.25285184383392334,-0.3774256706237793
1773047957414763300,1.51776318359375,0.17334842681884766,0.3105939030647278,-1.0201807022094727
1773047957424742000,1.527741943359375,-0.7253665924072266,0.9447861909866333,-0.010762691497802734
1773047957434621700,1.53762158203125,-0.6433134078979492,1.18181574344635,0.5960023403167725
1773047957444439600,1.547439453125,1.4908790588378906,0.5428444147109985,1.520634651184082
1773047957454619400,1.557619384765625,3.698000907897949,1.2349776029586792,2.3963310718536377
1773047957464653600,1.567653564453125,0.625706672668457,0.9857878684997559,1.1742939949035645
1773047957474624300,1.577624267578125,-0.6128396987915039,0.8635196685791016,-0.8551092147827148
1773047957484606200,1.587606201171875,-0.6445531845092773,0.4222180247306824,-0.41662120819091797
1773047957494578000,1.597577880859375,-0.48089027404785156,-0.2805013656616211,0.612189531326294
1773047957504558800,1.607558837890625,-0.20178604125976562,-0.01506739854812622,-0.8076181411743164
1773047957514531800,1.61753173828125,-0.7015795707702637,0.7591762542724609,-0.978456974029541
1773047957524512000,1.627511962890625,-0.788480281829834,0.27509158849716187,0.8251259326934814
1773047957534485500,1.637485595703125,-0.3333721160888672,-0.28700217604637146,1.0988848209381104
1773047957544465000,1.64746484375,0.13705158233642578,-0.4764040410518646,-0.9147734642028809
1773047957554439200,1.657439208984375,-0.13225460052490234,-0.21607692539691925,-0.4400467872619629
1773047957564418300,1.667418212890625,-0.10996723175048828,-0.6263184547424316,0.5418605804443359
1773047957574393000,1.67739306640625,-0.1927804946899414,-0.2572591304779053,0.4135270118713379
1773047957584371500,1.687371337890625,0.6017122268676758,0.007381439208984375,-0.3809676170349121
1773047957594346800,1.6973466796875,0.26702404022216797,0.09612637758255005,-0.4691004753112793
1773047957604324900,1.707324951171875,0.14742469787597656,-0.3350061774253845,0.9050068855285645
1773047957614340900,1.7173408203125,0.15127277374267578,-0.3895176649093628,1.0934796333312988
1773047957624278800,1.72727880859375,-1.0161309242248535,-0.048748791217803955,-0.7382912635803223
1773047957634254000,1.737254150390625,-1.5867929458618164,0.23266735672950745,-0.7605953216552734
1773047957644232200,1.747232177734375,-1.3892145156860352,0.4521111845970154,0.29010677337646484
1773047957654256400,1.75725634765625,-0.9845328330993652,0.7665902376174927,0.1726064682006836
1773047957664239000,1.767239013671875,-0.5475325584411621,0.7566763162612915,-0.16223859786987305
1773047957674161700,1.77716162109375,-0.518653392791748,0.14761972427368164,-0.24373197555541992
1773047957684138200,1.78713818359375,-0.20186758041381836,-0.09118746221065521,0.523679256439209
1773047957694115300,1.797115234375,0.7278680801391602,0.023531019687652588,0.8237175941467285
1773047957704092200,1.807092041015625,0.63916015625,0.04334056377410889,0.7849345207214355
1773047957714069200,1.8170693359375,1.171015739440918,-0.4293021559715271,0.5150156021118164
1773047957724045800,1.8270458984375,1.2316436767578125,-0.7206299304962158,0.505462646484375
1773047957733926000,1.83692578125,-1.1995635032653809,0.8727706074714661,-0.12696218490600586
1773047957743744000,1.846743896484375,-0.3574519157409668,-0.08074405789375305,-1.9944243431091309
1773047957753923800,1.856923828125,-0.5515103340148926,-0.1310926377773285,0.16165542602539062
1773047957763958500,1.86695849609375,-0.08231782913208008,0.7413536906242371,-0.6305265426635742
1773047957773930200,1.87693017578125,0.7118644714355469,-0.1913231611251831,-1.525864601135254
1773047957783911200,1.8869111328125,0.4939308166503906,-0.2735821604728699,0.887138843536377
1773047957793884000,1.8968837890625,-0.44051313400268555,0.1865682303905487,1.7470858097076416
1773047957803864000,1.906864013671875,-1.3228816986083984,-0.1117953360080719,-1.7762269973754883
1773047957813837800,1.916837890625,-0.8144059181213379,0.0775260329246521,-1.4102997779846191
1773047957823817200,1.926817138671875,-0.3363795280456543,0.4748435914516449,1.9942591190338135
1773047957833697300,1.936697265625,-0.015461921691894531,0.018667072057724,0.32729673385620117
1773047957843515000,1.946514892578125,-0.014694690704345703,-0.05076274275779724,-1.3075265884399414
1773047957853512400,1.956512451171875,0.32421016693115234,0.050880491733551025,0.33304548263549805
1773047957863472400,1.966472412109375,0.17642927169799805,-0.14260333776474,0.08679771423339844
1773047957873652500,1.976652587890625,-0.2093338966369629,0.08890002965927124,-0.7191791534423828
1773047957883686000,1.986685791015625,-0.5472750663757324,0.6998283863067627,0.004839420318603516
1773047957893652700,1.99665283203125,-0.8362541198730469,0.6655542850494385,-0.18728113174438477
1773047957903637800,2.0066376953125,-0.6099638938903809,0.3420695662498474,-0.2618842124938965
1773047957913606400,2.0166064453125,-1.086559772491455,0.4161447286605835,0.752202033996582
1773047957923590000,2.02658984375,-1.1646933555603027,1.1087188720703125,0.0666193962097168
1773047957933469700,2.0364697265625,-0.3675880432128906,1.2481703758239746,-0.7043771743774414
1773047957943286500,2.04628662109375,-0.3157987594604492,0.8041325807571411,0.17087602615356445
1773047957953466400,2.05646630859375,-0.6159458160400391,0.7820684909820557,0.3674139976501465
1773047957963500000,2.0665,-0.48177146911621094,1.181470274925232,-0.39128923416137695
1773047957973467600,2.076467529296875,-0.12160110473632812,1.1990885734558105,-0.7595186233520508
1773047957983452200,2.0864521484375,-0.2689371109008789,0.7930023670196533,0.4872283935546875
1773047957993332000,2.09633203125,0.8876056671142578,0.4096486270427704,0.7628607749938965
1773047958003191000,2.10619091796875,0.7986335754394531,0.9811469316482544,0.7832956314086914
1773047958013375200,2.116375244140625,-0.3218522071838379,0.5478374361991882,-0.6532025337219238
1773047958023361000,2.126361083984375,-0.21904706954956055,0.7890520095825195,-0.24537229537963867
1773047958033329000,2.136328857421875,-0.3109421730041504,0.6336087584495544,0.21982097625732422
1773047958053282800,2.15628271484375,0.6065988540649414,-0.9111471176147461,0.9721248149871826
1773047958063265500,2.166265625,-0.23798084259033203,-0.6485272645950317,-1.1921863555908203
1773047958073145300,2.176145263671875,-3.2601137161254883,1.4800864458084106,-2.3384103775024414
1773047958083005000,2.1860048828125,0.8910808563232422,0.8366689682006836,1.2015533447265625
1773047958093190400,2.1961904296875,0.14236736297607422,1.0272555351257324,-0.06786680221557617
1773047958103175200,2.206175048828125,0.4772777557373047,0.39971622824668884,-1.0903334617614746
1773047958113144000,2.21614404296875,0.8294868469238281,-0.4984210133552551,0.1255505084991455
1773047958123127300,2.226127197265625,0.5773410797119141,-0.6296935677528381,1.6429083347320557
1773047958133098000,2.236097900390625,0.14943218231201172,-0.4216555058956146,-0.20304012298583984
1773047958143080000,2.246079833984375,-0.17842864990234375,-0.16702385246753693,-1.478654384613037
1773047958153051600,2.2560517578125,-0.6146678924560547,-0.11472004652023315,0.6535587310791016
1773047958163032600,2.266032470703125,-0.6585454940795898,0.007953882217407227,0.27593255043029785
1773047958172912600,2.27591259765625,0.02171039581298828,-0.2802179455757141,-0.4900031089782715
1773047958182772500,2.2857724609375,0.0951375961303711,-0.9164972305297852,-0.4050629138946533
1773047958192959200,2.295959228515625,-0.15784549713134766,-0.7887643575668335,0.1558828353881836
1773047958202943000,2.30594287109375,0.5846633911132812,-0.4192229211330414,0.06031680107116699
1773047958212913000,2.315912841796875,0.7034053802490234,-0.4369378983974457,0.5795032978057861
1773047958222895400,2.325895263671875,0.20937728881835938,-0.18318578600883484,0.650672197341919
1773047958232866800,2.33586669921875,0.13912487030029297,-0.2266111522912979,-1.1276705265045166
1773047958242848000,2.345847900390625,-0.05191230773925781,-0.7654151320457458,-0.39182496070861816
1773047958252820700,2.35582080078125,-0.1891775131225586,-0.6059348583221436,1.07582426071167
1773047958262801200,2.36580126953125,0.05109691619873047,-0.4280712902545929,0.037698984146118164
1773047958272774400,2.3757744140625,0.0744466781616211,-0.25624871253967285,-0.21259868144989014
1773047958282754000,2.385754150390625,-0.28876209259033203,-0.23313210904598236,0.5051698684692383
1773047958292728300,2.395728271484375,0.4655113220214844,-0.09388378262519836,0.5453408360481262
1773047958302707500,2.40570751953125,1.0718746185302734,0.0074142515659332275,-0.40875303745269775
1773047958312682000,2.415681884765625,1.4927349090576172,-0.4909260869026184,0.07269775867462158
1773047958322660900,2.425660888671875,1.2610063552856445,-0.4243166148662567,0.8198316097259521
1773047958332636000,2.435635986328125,0.26317691802978516,-0.3016383945941925,0.037853121757507324
1773047958342614300,2.4456142578125,0.15319347381591797,0.3538268506526947,0.9928898215293884
1773047958352589600,2.455589599609375,0.12863922119140625,0.6837942600250244,2.826389789581299
1773047958362567700,2.465567626953125,1.1128931045532227,0.39095887541770935,3.9036970138549805
1773047958372447700,2.47544775390625,0.4475250244140625,0.07783398032188416,0.8428723812103271
1773047958382308000,2.48530810546875,0.0025110244750976562,-0.24316711723804474,-4.127589225769043
1773047958392497200,2.4954970703125,0.42929840087890625,-0.5211851000785828,-1.3372660875320435
1773047958402478800,2.505478759765625,-0.03599071502685547,-0.02937018871307373,-0.37000349164009094
1773047958432408600,2.53540869140625,0.3745841979980469,0.1833103597164154,-0.6640401482582092
1773047958442381600,2.545381591796875,-0.35643863677978516,-0.13499614596366882,1.6932305097579956
1773047958452361700,2.55536181640625,-0.08307266235351562,-0.5474947690963745,0.4976685345172882
1773047958462241800,2.56524169921875,0.6945734024047852,0.05751991271972656,-0.8210064768791199
1773047958472059100,2.57505908203125,0.8059701919555664,-0.10445767641067505,1.45548677444458
1773047958482239200,2.5852392578125,-0.7182703018188477,-0.0871216356754303,0.9854122400283813
1773047958492273200,2.595273193359375,0.5627069473266602,-0.7108536958694458,-1.3151280879974365
1773047958502242800,2.605242919921875,0.5937232971191406,-1.065788984298706,-1.2575339078903198
1773047958512225500,2.6152255859375,-0.6197891235351562,-0.3386004567146301,1.286341667175293
1773047958522196700,2.62519677734375,0.7370967864990234,-0.6872622966766357,-0.045546263456344604
1773047958532178200,2.63517822265625,0.7295637130737305,-0.18193015456199646,-1.706500768661499
1773047958542150700,2.645150634765625,-0.7753486633300781,0.6029462814331055,0.8830671310424805
1773047958552131300,2.65513134765625,-0.7146205902099609,0.3860381245613098,1.7072958946228027
1773047958562104300,2.665104248046875,0.8004140853881836,0.08554884791374207,-0.4548671245574951
1773047958572084200,2.675084228515625,0.23919296264648438,0.06703919172286987,-0.752862811088562
1773047958582058200,2.685058349609375,-0.8205118179321289,0.2878420054912567,1.922354817390442
1773047958592037600,2.69503759765625,0.3275299072265625,0.6949948072433472,0.2277003973722458
1773047958602012200,2.70501220703125,1.036942481994629,0.7622233629226685,-0.940946102142334
1773047958611990800,2.71499072265625,0.23173141479492188,-0.038829416036605835,0.3191990852355957
1773047958621965800,2.7249658203125,-0.3411111831665039,-0.17311713099479675,0.8363327383995056
1773047958631944200,2.734944091796875,0.8000335693359375,0.6175390481948853,0.16573724150657654
1773047958641824300,2.74482421875,-0.20978260040283203,0.07762375473976135,-1.3381563425064087
1773047958651642000,2.75464208984375,0.7213077545166016,-0.01387295126914978,0.6502174735069275
1773047958661822200,2.764822265625,1.1059389114379883,0.41093680262565613,0.571871817111969
1773047958671856400,2.7748564453125,0.7747611999511719,0.43189650774002075,2.2317709922790527
1773047958681827300,2.784827392578125,0.16466808319091797,0.49522072076797485,3.275939702987671
1773047958691809000,2.79480908203125,0.9174022674560547,0.27027320861816406,-3.189063787460327
1773047958701781000,2.804781005859375,-0.49566078186035156,-0.2368682622909546,-1.2147281169891357
1773047958711762000,2.814761962890625,0.050971031188964844,-0.15562179684638977,1.420710802078247
1773047958721735000,2.82473486328125,0.24150657653808594,0.3626824617385864,1.246713638305664
1773047958731714800,2.83471484375,-0.40474891662597656,0.8681473135948181,-2.3087024688720703
1773047958741688600,2.8446884765625,0.4145660400390625,0.08744686841964722,-0.30438733100891113
1773047958751668000,2.85466796875,-0.09974479675292969,0.2936711311340332,1.2727261781692505
1773047958761642500,2.864642578125,-0.6836671829223633,0.3897308111190796,0.8766525983810425
1773047958771621400,2.874621337890625,-1.2831459045410156,0.4566270112991333,-0.9572900533676147
1773047958781596400,2.884596435546875,-1.283452033996582,0.7045894861221313,-0.6548820734024048
1773047958791575000,2.894574951171875,-1.7068734169006348,0.7315828204154968,0.16274547576904297
1773047958801550000,2.904550048828125,-1.1498126983642578,0.23011958599090576,0.2437729835510254
1773047958811528200,2.914528076171875,-0.3484077453613281,0.36857491731643677,0.3854447603225708
1773047958821504000,2.92450390625,0.5249462127685547,0.01771026849746704,-0.0768129825592041
1773047958831481900,2.93448193359375,0.9942283630371094,-0.34010589122772217,-0.33237266540527344
1773047958841458000,2.9444580078125,0.6149635314941406,-0.5240095257759094,0.7688397169113159
1773047958851435500,2.954435546875,0.17429828643798828,0.08873516321182251,1.0225679874420166
1773047958861315600,2.964315673828125,0.4149513244628906,0.4173678159713745,-0.6572055816650391
1773047958871133400,2.974133544921875,-0.15793800354003906,0.18691611289978027,-0.4840388298034668
1773047958881313500,2.9843134765625,-0.7292089462280273,-0.23708504438400269,1.1426209211349487
1773047958891347700,2.99434765625,-0.30710411071777344,-0.40640828013420105,0.20640897750854492
1773047958901319200,3.004319091796875,-0.2346506118774414,-0.3004475235939026,-0.7573747634887695
1773047958911300600,3.014300537109375,-0.07147789001464844,0.22471356391906738,0.7673821449279785
1773047958921273000,3.024273193359375,0.17446517944335938,0.6862383484840393,0.4170973300933838
1773047958931253500,3.03425341796875,-0.19362640380859375,0.5400758981704712,-0.6707243919372559
1773047958941226800,3.044226806640625,-0.06521892547607422,0.2518596649169922,0.6112747192382812
1773047958951206700,3.05420654296875,-0.7542991638183594,-0.021555721759796143,0.08635568618774414
1773047958961180700,3.0641806640625,-0.4067373275756836,-0.19844627380371094,-0.7754013538360596
1773047958971159800,3.074159912109375,0.169921875,-0.32635411620140076,-0.17119121551513672
1773047958981134300,3.08413427734375,0.3995656967163086,0.09491074085235596,0.8125557899475098
1773047958991113200,3.09411328125,0.3099555969238281,0.5209247469902039,0.0519561767578125
1773047959001088300,3.104088134765625,-0.3036231994628906,0.47797346115112305,0.39450716972351074
1773047959011066600,3.114066650390625,-0.6715421676635742,0.13145798444747925,-0.016755104064941406
1773047959021042000,3.1240419921875,-0.7576460838317871,-0.569941520690918,-0.3218212127685547
1773047959031020000,3.13402001953125,-0.701911449432373,-0.42324596643447876,0.02366495132446289
1773047959040900000,3.143900146484375,0.05572986602783203,0.017800360918045044,0.5696241855621338
1773047959050718000,3.153718017578125,0.1831073760986328,0.08040294051170349,-0.1654524803161621
1773047959060898000,3.16389794921875,0.3626441955566406,-0.21851113438606262,-0.888615608215332
1773047959070932500,3.173932373046875,0.34516048431396484,-0.2082863748073578,0.48864221572875977
1773047959080903400,3.1839033203125,0.6392221450805664,-0.4328770041465759,0.03066110610961914
1773047959090885000,3.193885009765625,0.5931634902954102,-0.22193484008312225,-0.25244140625
1773047959100857300,3.203857421875,0.7114992141723633,-0.27683693170547485,0.6675877571105957
1773047959110838000,3.213838134765625,1.1042137145996094,-0.43424904346466064,0.6192255020141602
1773047959120811000,3.22381103515625,0.8858203887939453,0.3511584997177124,0.18675804138183594
1773047959130791000,3.233791015625,-0.12343311309814453,0.515929639339447,-1.0402894020080566
1773047959140765000,3.243764892578125,-1.4210638999938965,0.41831979155540466,0.41194677352905273
1773047959150744300,3.253744384765625,-1.3035187721252441,0.04130607843399048,0.13637256622314453
1773047959160721200,3.26372119140625,-0.21928834915161133,-0.4074136018753052,-0.2165226936340332
1773047959180578000,3.283578125,-0.9377889633178711,-0.19055144488811493,-0.5252890586853027
1773047959190395600,3.293395751953125,-1.829573631286621,0.3506803512573242,-0.5810070037841797
1773047959200575700,3.30357568359375,-1.081467628479004,0.8182169198989868,0.21078777313232422
1773047959210610000,3.31360986328125,-0.010552406311035156,0.2927149832248688,0.5274057388305664
1773047959230369800,3.333369873046875,0.01494741439819336,0.23701319098472595,-1.2647714614868164
1773047959240550000,3.3435498046875,-0.6667923927307129,0.8113703727722168,0.8727669715881348
1773047959250564000,3.353564208984375,-0.8109173774719238,0.7730808258056641,0.7953886985778809
1773047959260487700,3.36348779296875,0.10361385345458984,0.26178351044654846,-1.204221248626709
1773047959270472200,3.37347216796875,1.0255231857299805,0.10396283864974976,-1.0789976119995117
1773047959280441600,3.383441650390625,1.8573932647705078,0.15484026074409485,0.9996132850646973
1773047959290424600,3.393424560546875,1.1611270904541016,0.4743371903896332,0.6148333549499512
1773047959300401400,3.4034013671875,-1.1014704704284668,1.678636074066162,0.16065073013305664
1773047959310378200,3.413378173828125,1.1901063919067383,0.3578612804412842,-0.46215200424194336
1773047959320349200,3.42334912109375,1.4637880325317383,0.4781119227409363,1.1571571826934814
1773047959330331000,3.433330810546875,-0.21947479248046875,1.0642266273498535,-0.35530996322631836
1773047959340303000,3.44330322265625,-0.3950495719909668,0.6602122783660889,-0.6304845809936523
1773047959350283800,3.45328369140625,-0.1297454833984375,0.3276565968990326,1.4046080112457275
1773047959360256800,3.4632568359375,-0.8580565452575684,-0.05897077918052673,-0.35983943939208984
1773047959370237000,3.47323681640625,-0.8880915641784668,0.2985362112522125,-1.6029748916625977
1773047959380210700,3.483210693359375,-0.08314132690429688,0.4819125831127167,0.7348122596740723
1773047959390190000,3.493190185546875,0.7035484313964844,0.21879056096076965,1.4785034656524658
1773047959400164600,3.50316455078125,0.8626241683959961,-0.1956901252269745,0.021174907684326172
1773047959410143500,3.5131435546875,0.8758630752563477,-0.5567408800125122,-0.8084721565246582
1773047959420118300,3.5231181640625,-0.19821739196777344,-0.3875904381275177,0.7372317314147949
1773047959430097000,3.533096923828125,-0.6600422859191895,-0.2323278784751892,1.1434459686279297
1773047959440072200,3.543072265625,-0.8996787071228027,0.0641213059425354,0.5015168190002441
1773047959450050300,3.55305029296875,-0.8134589195251465,0.5951638221740723,-1.860243797302246
1773047959460025900,3.56302587890625,-0.826901912689209,0.2619965076446533,-0.2293701171875
1773047959470004000,3.57300390625,0.17745685577392578,-0.2736252546310425,0.6907782554626465
1773047959479979800,3.582979736328125,0.6534318923950195,0.0191841721534729,-0.7391204833984375
1773047959489957600,3.59295751953125,0.7735538482666016,0.2736867070198059,-1.537795066833496
1773047959499933700,3.60293359375,0.00232696533203125,-0.21858566999435425,-0.2178497314453125
1773047959509911300,3.612911376953125,-0.3704032897949219,-0.2542579174041748,0.34882402420043945
1773047959519887400,3.622887451171875,-0.3497352600097656,0.4706913232803345,-0.03766298294067383
1773047959529865000,3.632864990234375,-0.522712230682373,0.39486163854599,0.5504789352416992
1773047959539841300,3.64284130859375,0.008329391479492188,-0.31325846910476685,1.2738611698150635
1773047959549818600,3.652818603515625,-0.07503890991210938,-0.3692692220211029,0.06641912460327148
1773047959559795000,3.662794921875,-0.5173525810241699,-0.8235588073730469,-0.29944849014282227
1773047959569772300,3.672772216796875,-0.5423417091369629,-0.6569592356681824,-0.4568643569946289
1773047959579748900,3.682748779296875,-0.49602460861206055,-0.02834141254425049,-1.1243934631347656
1773047959589726200,3.692726318359375,-0.2782135009765625,-0.49447178840637207,0.07751941680908203
1773047959599702800,3.702702880859375,-0.48574066162109375,-0.0347173810005188,0.655461311340332
1773047959609680000,3.712679931640625,-0.8459897041320801,1.3142192363739014,-0.0380859375
1773047959619656400,3.722656494140625,0.27587127685546875,0.935081958770752,-0.17121267318725586
1773047959629633500,3.732633544921875,0.2557840347290039,0.30585867166519165,0.6177244186401367
1773047959639610400,3.7426103515625,0.05266380310058594,-0.3754456639289856,1.4223146438598633
1773047959649587500,3.75258740234375,1.3076353073120117,0.7748004198074341,-0.004058361053466797
1773047959659564300,3.762564208984375,-0.07396411895751953,0.8689812421798706,-0.3856010437011719
1773047959669541000,3.772541015625,0.3293571472167969,-0.423908531665802,-0.3796238899230957
1773047959679518000,3.78251806640625,-0.32056713104248047,-0.5598177909851074,-1.0091824531555176
1773047959689495000,3.7924951171875,-0.7659430503845215,-0.2510443329811096,-1.4615697860717773
1773047959699472000,3.802471923828125,-0.11839580535888672,-1.212900161743164,-0.6890835762023926
1773047959709448700,3.81244873046875,-2.5259294509887695,0.28183770179748535,-1.9812703132629395
1773047959719425500,3.822425537109375,-1.3080601692199707,0.7419477701187134,-1.2598090171813965
1773047959729402600,3.832402587890625,0.5839776992797852,-0.3064194917678833,0.5471923351287842
1773047959739379500,3.84237939453125,0.5611763000488281,0.6915096640586853,-0.7309317588806152
1773047959749356300,3.852356201171875,-0.5292673110961914,2.0493271350860596,-0.31533193588256836
1773047959759333000,3.8623330078125,1.3416204452514648,1.2435154914855957,1.948004961013794
1773047959769310200,3.872310302734375,-0.1435995101928711,1.3772289752960205,-1.7386174201965332
1773047959779287000,3.882287109375,-0.34125709533691406,0.11408543586730957,-0.8041629791259766
1773047959789264000,3.892263916015625,1.040940284729004,-0.3325047492980957,0.41693758964538574
1773047959799241000,3.902240966796875,1.305521011352539,-1.7221472263336182,0.7496600151062012
1773047959809217800,3.9122177734375,0.6269893646240234,-1.7693870067596436,0.10031819343566895
1773047959829171700,3.932171630859375,0.9722023010253906,-0.8766298294067383,0.05971240997314453
1773047959839148500,3.9421484375,0.1599712371826172,0.7075161933898926,0.17279911041259766
1773047959849125400,3.95212548828125,-0.47559642791748047,0.7885595560073853,0.26108741760253906
1773047959859102200,3.962102294921875,-0.6208629608154297,0.23479688167572021,-0.24617910385131836
1773047959869079300,3.972079345703125,-0.6732215881347656,0.3269045352935791,-0.8068442344665527
1773047959879056100,3.98205615234375,-0.6115684509277344,0.3842630386352539,-0.7708263397216797
1773047959889033000,3.992032958984375,-0.5700416564941406,-0.08450448513031006,-0.302060604095459
1773047959899009800,4.002009765625,-1.3196043968200684,-0.29552584886550903,-0.6048269271850586
1773047959908987000,4.01198681640625,-1.1959586143493652,0.09866809844970703,-1.5279426574707031
1773047959918963700,4.021963623046875,-1.2095532417297363,-0.09990665316581726,-0.850313663482666
1773047959928940800,4.03194091796875,-0.18752002716064453,-0.3587360084056854,-0.2858295440673828
1773047959938820600,4.041820556640625,-0.749539852142334,-0.6037747859954834,0.4763009548187256
1773047959948700700,4.05170068359375,-0.6115608215332031,-0.2007851004600525,-0.6046309471130371
1773047959958871300,4.061871337890625,0.2269430160522461,0.62568199634552,-0.563046932220459
1773047959968848100,4.07184814453125,-0.00571441650390625,0.015475451946258545,0.34324049949645996
1773047959978825200,4.0818251953125,0.9262094497680664,0.16479778289794922,0.21828484535217285
1773047959988802000,4.091802001953125,1.703963279724121,0.0849960446357727,1.2521123886108398
1773047959998779100,4.101779052734375,0.16292572021484375,-0.15448862314224243,0.9687261581420898
1773047960008756000,4.111755859375,2.2273902893066406,0.5906039476394653,1.0520081520080566
1773047960018732800,4.12173291015625,0.6739177703857422,0.8583513498306274,1.5250494480133057
1773047960028709600,4.131709716796875,-0.46998119354248047,0.6182308197021484,0.17141985893249512
1773047960038589700,4.141589599609375,-0.6692075729370117,0.977804958820343,-0.9569835662841797
1773047960048469800,4.1514697265625,-0.3044710159301758,0.5084480047225952,-1.049835205078125
1773047960058640400,4.161640380859375,-0.026938438415527344,-0.549839973449707,0.013925552368164062
1773047960068617500,4.171617431640625,-0.5561666488647461,-0.38356196880340576,0.5528132915496826
1773047960078555400,4.181555419921875,-0.4098949432373047,0.07446327805519104,-0.9469428062438965
1773047960088528400,4.1915283203125,-0.5514068603515625,0.19756647944450378,-1.1745052337646484
1773047960098509300,4.20150927734375,-1.0409483909606934,0.22901326417922974,0.0985097885131836
1773047960108483000,4.211483154296875,-0.7188739776611328,0.33252373337745667,0.5861709117889404
1773047960118424000,4.221424072265625,-0.4943103790283203,0.23919272422790527,-0.7503490447998047
1773047960128394800,4.231394775390625,-0.20827102661132812,-0.3596915006637573,-1.272028923034668
1773047960138455600,4.24145556640625,-0.45719051361083984,-0.1829858422279358,0.09100198745727539
1773047960148435200,4.251435302734375,-0.6159896850585938,-0.15342003107070923,0.08718156814575195
1773047960158370600,4.26137060546875,-0.42499828338623047,0.16353687644004822,-0.31158971786499023
1773047960168345900,4.271345947265625,-0.3525381088256836,-0.08942466974258423,-0.7499494552612305
1773047960178324500,4.281324462890625,0.06283950805664062,0.0002478361129760742,-0.5824875831604004
1773047960188300000,4.291300048828125,0.14451122283935547,-0.1480729877948761,-0.08764982223510742
1773047960198278100,4.301278076171875,-0.39549922943115234,-0.11703598499298096,0.5765039920806885
1773047960208254000,4.31125390625,-0.6087169647216797,0.10498547554016113,-0.8996663093566895
1773047960218271000,4.32127099609375,-0.11003398895263672,0.3931284248828888,-1.5322847366333008
1773047960228251000,4.3312509765625,-0.015984535217285156,0.15015164017677307,0.6073386669158936
1773047960238130700,4.341130615234375,-0.15969276428222656,0.14713674783706665,1.1011700630187988
1773047960248010800,4.3510107421875,0.3170490264892578,0.20755064487457275,-1.2163987159729004
1773047960257945300,4.3609453125,0.11241340637207031,0.06178182363510132,-1.1679272651672363
1773047960267913000,4.370912841796875,0.2676048278808594,-0.15908154845237732,0.3538382053375244
1773047960278015200,4.38101513671875,-0.14532756805419922,0.03534418344497681,0.7266676425933838
1773047960287996700,4.39099658203125,-0.2542095184326172,0.5157597064971924,-0.2588067054748535
1773047960297930200,4.40093017578125,0.2533702850341797,0.3026351034641266,-0.9461665153503418
1773047960307906800,4.41090673828125,0.43758392333984375,-0.3263091444969177,-0.5093050003051758
1773047960317845200,4.42084521484375,-0.0021047592163085938,-0.519758939743042,0.3990004062652588
1773047960327818000,4.43081787109375,0.07698249816894531,-0.01987767219543457,-0.1432933807373047
1773047960337799200,4.440799072265625,-0.2647533416748047,0.49265605211257935,-0.9669356346130371
1773047960347772700,4.450772705078125,-0.09729766845703125,0.2410241663455963,-0.8097014427185059
1773047960357714200,4.460714111328125,-0.3603219985961914,0.31978076696395874,0.727961540222168
1773047960367684400,4.470684326171875,-0.7680168151855469,0.42242300510406494,0.4002072811126709
1773047960387554300,4.49055419921875,-0.07132434844970703,0.06046062707901001,-0.6439042091369629
1773047960397544200,4.500544189453125,-0.6147031784057617,0.3786836862564087,0.9395749568939209
1773047960407510500,4.510510498046875,-0.6646223068237305,0.49152928590774536,0.5812942981719971
1773047960417420500,4.520420654296875,-0.2538423538208008,0.4039032459259033,-0.884427547454834
1773047960427381200,4.53038134765625,0.5555925369262695,0.006221592426300049,-0.49085235595703125
1773047960437335600,4.54033544921875,0.34532928466796875,-0.3007046580314636,0.7233729362487793
1773047960447295500,4.55029541015625,-0.39333629608154297,-0.357808917760849,-0.5886960029602051
1773047960457250300,4.560250244140625,0.36053466796875,-0.30799999833106995,-1.2519197463989258
1773047960467210000,4.5702099609375,-0.7228260040283203,-0.07719919085502625,-0.6125397682189941
1773047960477126700,4.580126708984375,-0.7730684280395508,0.027157247066497803,0.3186666965484619
1773047960487082000,4.59008203125,-0.4188566207885742,0.2493044137954712,-0.17060518264770508
1773047960497080000,4.600080078125,-0.9260849952697754,0.14724284410476685,-1.2348036766052246
1773047960507039700,4.610039794921875,-0.8713345527648926,-0.3430456221103668,-1.1046853065490723
1773047960516918000,4.61991796875,-0.646519660949707,-0.040340960025787354,-0.2590179443359375
1773047960526869500,4.629869384765625,-0.8584113121032715,0.6851572394371033,-0.17621088027954102
1773047960536832800,4.639832763671875,-0.5156288146972656,0.2733415365219116,-0.866610050201416
1773047960546785500,4.64978564453125,-0.6969518661499023,-0.24342411756515503,-1.3610308170318604
1773047960556786200,4.6597861328125,-0.049185752868652344,-0.267151415348053,-0.2267611026763916
1773047960566743800,4.669743896484375,0.19943523406982422,-0.4391915202140808,-0.3911478519439697
1773047960576923600,4.679923583984375,0.6873779296875,-0.5432909727096558,-1.758408546447754
1773047960587103700,4.690103759765625,0.7710227966308594,0.1026659607887268,-0.7083120346069336
1773047960597283800,4.700283935546875,-0.0720205307006836,0.43672817945480347,1.3133037090301514
1773047960607389700,4.7103896484375,-0.08897972106933594,-0.0741165280342102,-0.300689697265625
1773047960617346600,4.7203466796875,0.2228708267211914,-0.4695965051651001,-1.6375160217285156
1773047960627339800,4.73033984375,-0.36454296112060547,-0.4495158791542053,-0.45712733268737793
1773047960637300500,4.740300537109375,-1.2228918075561523,-0.12974455952644348,0.49809908866882324
1773047960647290400,4.750290283203125,-0.16658687591552734,-0.18700268864631653,-1.4650733470916748
1773047960657254400,4.76025439453125,0.15572834014892578,0.2817556858062744,-1.0280578136444092
1773047960667241700,4.77024169921875,-0.3033447265625,0.8128867745399475,0.3933420181274414
1773047960677218600,4.780218505859375,-0.1646137237548828,0.6731414794921875,-0.7716889381408691
1773047960707147300,4.810147216796875,0.7947254180908203,0.9427459836006165,1.5710842609405518
1773047960717027300,4.82002734375,1.187159538269043,1.2074164152145386,-1.4548667669296265
1773047960726843600,4.82984375,-0.5239992141723633,0.22759920358657837,1.7237392663955688
1773047960737023700,4.840023681640625,1.6335258483886719,0.3975045680999756,0.7891135215759277
1773047960747057200,4.85005712890625,-0.5501327514648438,0.5651798844337463,-0.3667384386062622
1773047960757023500,4.8600234375,-1.081899642944336,0.1812625527381897,-2.9463069438934326
1773047960767008800,4.8700087890625,-0.8979034423828125,-0.3899051547050476,-0.5865447521209717
1773047960776888800,4.879888916015625,0.5661478042602539,-1.0669341087341309,0.49546802043914795
1773047960796931300,4.899931396484375,-0.12862396240234375,-0.7598866820335388,0.4224300682544708
1773047960806914800,4.909914794921875,-1.097691535949707,-0.17628192901611328,-0.05157339572906494
1773047960816885000,4.919885009765625,-0.4347524642944336,0.6301473379135132,-0.6209231615066528
1773047960826867500,4.929867431640625,2.4448184967041016,2.494691848754883,-2.6641626358032227
1773047960836839000,4.9398388671875,2.2430763244628906,0.6195115447044373,-0.7745985984802246
1773047960846820000,4.949820068359375,-2.3832154273986816,0.10855567455291748,-0.6237322092056274
1773047960856792800,4.959792724609375,-1.5371742248535156,1.9722731113433838,-1.2671048641204834
1773047960866773200,4.969773193359375,-0.15420055389404297,1.9847431182861328,0.2701771855354309
1773047960876746500,4.97974658203125,0.16998672485351562,0.25635379552841187,-0.47321805357933044
1773047960886726100,4.98972607421875,-0.652806282043457,0.173894464969635,-0.43045926094055176
1773047960896700400,4.999700439453125,-1.001002311706543,0.6001356244087219,0.05727356672286987
1773047960906679600,5.009679443359375,-0.5226783752441406,0.32683688402175903,-0.13500970602035522
1773047960916654300,5.019654296875,0.4695720672607422,0.24009180068969727,-1.3711360692977905
1773047960926633000,5.029633056640625,0.2650413513183594,-0.12064516544342041,-1.3092401027679443
1773047960936608000,5.03960791015625,-1.3861465454101562,-0.6548191905021667,-0.16616860032081604
1773047960946586400,5.04958642578125,0.19063282012939453,-0.12595361471176147,-0.8237013816833496
1773047960956466400,5.059466552734375,4.668305397033691,0.13073444366455078,1.2950568199157715
1773047960966284300,5.0692841796875,-2.0826258659362793,-0.2915250062942505,-0.7925466299057007
1773047960976283000,5.079282958984375,-0.2729835510253906,-0.4137548506259918,0.7791102528572083
1773047960986242300,5.0892421875,0.969325065612793,-0.19901415705680847,-0.546968936920166
1773047960996422100,5.099422119140625,0.7327814102172852,-0.21129289269447327,-1.9488611221313477
1773047961006455800,5.109455810546875,-0.36779117584228516,-0.6677898168563843,0.5270980596542358
1773047961016423200,5.119423095703125,-0.41933441162109375,-0.47077804803848267,0.36554330587387085
1773047961026407700,5.12940771484375,1.7884550094604492,-0.29768484830856323,-2.2276957035064697
1773047961036377000,5.139377197265625,0.1934528350830078,-0.5130268931388855,-1.202214241027832
1773047961046360000,5.149360107421875,-0.7431507110595703,0.05477184057235718,1.3297977447509766
1773047961056330800,5.159330810546875,0.8494644165039062,0.14315640926361084,-0.4330024719238281
1773047961066312700,5.169312744140625,1.071986198425293,-0.48484647274017334,-2.3458893299102783
1773047961076284700,5.17928466796875,-0.9033241271972656,-0.4280604422092438,-0.11741723120212555
1773047961086265600,5.189265625,-0.6382904052734375,0.37399381399154663,0.8612217307090759
1773047961096238600,5.199238525390625,1.0542640686035156,0.32910633087158203,-1.9284729957580566
1773047961106218500,5.209218505859375,-0.29527759552001953,0.28867578506469727,-1.2089533805847168
1773047961116192300,5.219192138671875,-1.1257095336914062,-0.29002583026885986,0.62984299659729
1773047961126172000,5.229171875,0.20490360260009766,-0.12162917852401733,-0.36119747161865234
1773047961136146200,5.239146240234375,0.7011594772338867,0.48483699560165405,-1.6741769313812256
1773047961146125000,5.249125,-0.8004369735717773,0.31164395809173584,-0.38714247941970825
1773047961156100000,5.25910009765625,-0.5645389556884766,-0.12277793884277344,0.7087698578834534
1773047961166078500,5.269078369140625,-0.042542457580566406,-0.25083473324775696,-0.9220964312553406
1773047961176053800,5.2790537109375,0.32532787322998047,0.09803467988967896,-1.3087810277938843
1773047961186032000,5.2890322265625,-1.3042383193969727,0.03931504487991333,0.20102664828300476
1773047961196007700,5.299007568359375,-1.081273078918457,0.10057580471038818,0.1406250149011612
1773047961205985500,5.308985595703125,0.22061729431152344,0.7494937181472778,-1.3368839025497437
1773047961215961600,5.318961669921875,-0.22417736053466797,0.8041980862617493,-0.24336546659469604
1773047961225939200,5.328939208984375,-0.5055255889892578,-0.5445759296417236,1.0668249130249023
1773047961235915300,5.338915283203125,0.5751886367797852,0.5171473026275635,-0.09752893447875977
1773047961245892900,5.348892822265625,0.029247283935546875,1.2847397327423096,-0.7706746459007263
1773047961255773000,5.35877294921875,-1.007462501525879,0.471243679523468,0.49501609802246094
1773047961265590800,5.3685908203125,0.22235488891601562,0.25387662649154663,0.3687376081943512
1773047961275771000,5.37877099609375,0.6801633834838867,0.695488691329956,-0.7352668642997742
1773047961285805300,5.388805419921875,0.277069091796875,0.28574585914611816,-1.0343022346496582
1773047961295776800,5.39877685546875,-0.8940715789794922,0.1211233139038086,0.5723802447319031
1773047961305758200,5.40875830078125,0.43099021911621094,0.19635576009750366,-0.3890710771083832
1773047961315730400,5.41873046875,0.37717247009277344,0.03704041242599487,-0.7213816046714783
1773047961325711000,5.428711181640625,0.3090858459472656,-0.3750220537185669,0.6775844097137451
1773047961335684400,5.438684326171875,0.26517295837402344,-0.46665436029434204,-0.029637053608894348
1773047961345664000,5.4486640625,1.5921602249145508,-0.13710829615592957,-1.0411869287490845
1773047961355638300,5.45863818359375,-0.2603902816772461,0.0992051362991333,0.19013123214244843
1773047961365617400,5.468617431640625,0.6953468322753906,-0.7718607187271118,0.1895906925201416
1773047961375497500,5.47849755859375,0.8941965103149414,-0.572487473487854,-0.9729973077774048
1773047961385315000,5.488315185546875,0.39997100830078125,-0.3887768089771271,-0.7066094875335693
1773047961395495000,5.498494873046875,-0.4703550338745117,-0.5067306756973267,0.7764043211936951
1773047961405529300,5.508529296875,1.0306291580200195,-0.672156035900116,-0.7331868410110474
1773047961415409200,5.5184091796875,0.6126117706298828,-0.2891233563423157,-1.0773587226867676
1773047961425226000,5.52822607421875,0.940699577331543,-0.5662084221839905,-0.14328926801681519
1773047961435406000,5.538406005859375,0.6089296340942383,-0.5470210909843445,-0.5123640894889832
1773047961445439500,5.548439453125,0.7603693008422852,-0.030598104000091553,-0.6563866138458252
1773047961455407000,5.558406982421875,-0.9465065002441406,0.2545356750488281,-0.5353224873542786
1773047961465391600,5.5683916015625,0.2930173873901367,-0.15198001265525818,-0.44529399275779724
1773047961475361000,5.578361083984375,-0.4812965393066406,-0.34367233514785767,-0.7063561677932739
1773047961485344000,5.588343994140625,-1.1056365966796875,-0.004914700984954834,-0.2998230755329132
1773047961495314700,5.598314697265625,0.019733428955078125,-0.00529557466506958,-1.3453989028930664
1773047961505296600,5.608296630859375,-0.36699867248535156,-0.23110052943229675,-1.3087797164916992
1773047961515268600,5.6182685546875,-1.2018117904663086,-0.3232297897338867,0.7540929317474365
1773047961525249500,5.62824951171875,-0.30538368225097656,-0.5343160629272461,-0.9294657707214355
1773047961535222500,5.638222412109375,1.305276870727539,-0.1293286383152008,-2.33758282661438
1773047961545202400,5.648202392578125,-1.2196769714355469,0.27297353744506836,0.3293999433517456
1773047961555176200,5.65817626953125,-1.6845788955688477,-0.23147740960121155,0.8206267952919006
1773047961565155600,5.668155517578125,0.2543153762817383,0.12553071975708008,-2.3299143314361572
1773047961575130000,5.678130126953125,-0.4435157775878906,0.39472252130508423,-1.3212525844573975
1773047961585109200,5.688109130859375,-2.6586127281188965,0.2815322279930115,1.5498772859573364
1773047961595123000,5.698123046875,0.132659912109375,0.30477797985076904,-0.5708310008049011
1773047961605105200,5.708105224609375,0.3282804489135742,0.546249270439148,-2.1779472827911377
1773047961615038000,5.718037841796875,-0.8524379730224609,-0.01960545778274536,1.2035918235778809
1773047961625015300,5.728015380859375,0.2864809036254883,-0.2301611602306366,-0.05180445313453674
1773047961634991600,5.73799169921875,0.16170597076416016,0.17017388343811035,-1.6648799180984497
1773047961644969000,5.747968994140625,-0.47883033752441406,0.07315897941589355,0.9230189323425293
1773047961654945500,5.757945556640625,-0.03339958190917969,-0.29605990648269653,0.40787792205810547
1773047961664923000,5.7679228515625,0.5781822204589844,-0.5123317837715149,-1.418249487876892
1773047961674899500,5.7778994140625,-0.7557687759399414,-0.07474207878112793,-0.0321526825428009
1773047961684876500,5.78787646484375,0.10589981079101562,0.023358821868896484,0.5654116868972778
1773047961694853000,5.79785302734375,0.17752456665039062,-0.5488287210464478,-1.4275891780853271
1773047961704830200,5.807830322265625,0.1868114471435547,0.2981671690940857,-0.25767871737480164
1773047961714807000,5.81780712890625,0.00026607513427734375,0.10218769311904907,-0.034796953201293945
1773047961724784000,5.8277841796875,0.3109254837036133,0.24644052982330322,-0.33695903420448303
1773047961734761000,5.837760986328125,0.06671142578125,0.39073312282562256,0.2784748673439026
1773047961744737800,5.84773779296875,0.3294048309326172,0.23882406949996948,-0.2487087845802307
1773047961754714600,5.857714599609375,0.81591796875,0.040045976638793945,-1.0557658672332764
1773047961764691700,5.867691650390625,-0.829132080078125,-0.3108844757080078,0.49707913398742676
1773047961774571800,5.87757177734375,0.567683219909668,0.3000630736351013,-0.30374255776405334
1773047961784390000,5.887389892578125,1.1061067581176758,0.19302338361740112,-1.9403676986694336
1773047961794569700,5.89756982421875,0.042938232421875,0.005095958709716797,0.0953298956155777
1773047961804604400,5.9076044921875,-0.31064605712890625,0.3394339680671692,-0.10147204995155334
1773047961814484200,5.917484130859375,1.1324472427368164,0.9948949217796326,-0.6278618574142456
1773047961824301300,5.92730126953125,-0.5851879119873047,0.8940173983573914,-0.800925612449646
1773047961834481400,5.9374814453125,-0.07776641845703125,0.6855016350746155,1.524323582649231
1773047961844515000,5.94751513671875,1.355168342590332,0.24830925464630127,-1.1468994617462158
1773047961854483500,5.9574833984375,-1.485426902770996,0.5410270094871521,-0.924929141998291
1773047961864467500,5.967467529296875,1.3168296813964844,-0.09541374444961548,0.5302695035934448
1773047961874437400,5.977437255859375,-0.20524978637695312,0.7179780006408691,-0.7636866569519043
1773047961884419800,5.987419921875,1.7915830612182617,-0.0070343017578125,-0.6247761249542236
1773047961894391300,5.997391357421875,-1.4606866836547852,-0.0598524808883667,-0.3456539809703827
1773047961904372700,6.007372802734375,1.217559814453125,0.5491981506347656,0.18359658122062683
1773047961914345200,6.01734521484375,-1.1878042221069336,0.6712095737457275,-0.4657023847103119
1773047961924325600,6.02732568359375,0.3578224182128906,0.65669184923172,-0.12643903493881226
1773047961934205700,6.037205810546875,0.801116943359375,0.1689426302909851,-0.6450662612915039
1773047961944023000,6.04702294921875,-0.7675323486328125,0.2692970633506775,0.08424068987369537
1773047961954203000,6.057202880859375,0.08925342559814453,0.49467819929122925,0.031163066625595093
1773047961964237000,6.067237060546875,0.5140933990478516,-0.4887423515319824,-1.5045201778411865
1773047961974206500,6.07720654296875,0.13056087493896484,-0.16616278886795044,0.2268809825181961
1773047961984189400,6.087189453125,-0.9875431060791016,-0.09275561571121216,0.6607924699783325
1773047961994160400,6.097160400390625,0.2567472457885742,-0.3821265697479248,-1.5599020719528198
1773047962004142000,6.10714208984375,-0.16914939880371094,-0.1309221386909485,-0.37720027565956116
1773047962014114300,6.1171142578125,-0.5558385848999023,-0.4007819890975952,1.0443694591522217
1773047962024095200,6.12709521484375,0.5870285034179688,-0.46021607518196106,-0.7345201969146729
1773047962034068200,6.137068115234375,0.38486289978027344,-0.5054959654808044,-1.0145862102508545
1773047962044048100,6.147048095703125,-0.1559925079345703,-0.22588428854942322,0.5141063928604126
1773047962054022100,6.157022216796875,0.8903217315673828,-0.25703397393226624,-0.3566341996192932
1773047962064001300,6.167001220703125,0.018781661987304688,-0.3224824070930481,-0.8749953508377075
1773047962073976000,6.17697607421875,-0.4542255401611328,-0.4543415606021881,0.01956799626350403
1773047962083954700,6.18695458984375,-0.14749717712402344,-0.016865968704223633,-0.08536526560783386
1773047962093929700,6.1969296875,-0.37642574310302734,0.4289546012878418,-0.6418547630310059
1773047962103908000,6.206908203125,0.4840860366821289,-0.7255309820175171,-0.3116662800312042
1773047962113883600,6.216883544921875,-1.2031793594360352,-0.3792005777359009,-0.31378066539764404
1773047962123861800,6.22686181640625,-0.32612037658691406,0.5495002269744873,-0.803917407989502
1773047962133741800,6.236741943359375,1.3749713897705078,-0.12343233823776245,-0.754558801651001
1773047962143602200,6.246602294921875,-0.9114856719970703,0.04839438199996948,-0.07665103673934937
1773047962153791200,6.256791259765625,0.3373756408691406,-0.13242852687835693,0.39595288038253784
1773047962163773200,6.266773193359375,0.9050836563110352,-0.18550798296928406,-0.8677301406860352
1773047962173745000,6.276744873046875,-0.2529134750366211,0.5827799439430237,-0.6958439350128174
1773047962183726000,6.28672607421875,-0.4433021545410156,0.743478536605835,0.7919648885726929
1773047962193698800,6.29669873046875,0.8713998794555664,-0.31835293769836426,-0.8549822568893433
1773047962203679000,6.306678955078125,-0.9073486328125,0.8702295422554016,-1.211148977279663
1773047962213559000,6.31655908203125,0.747431755065918,0.04784435033798218,0.14223860204219818
1773047962223419000,6.3264189453125,-0.6489572525024414,0.27600932121276855,0.22686809301376343
1773047962233606400,6.3366064453125,0.18379974365234375,0.05130487680435181,-0.30204737186431885
1773047962243589600,6.346589599609375,0.8569211959838867,-0.18789640069007874,-1.029660940170288
1773047962253560300,6.356560302734375,-0.28661537170410156,0.20796239376068115,-1.000330924987793
1773047962263542300,6.366542236328125,-1.6901321411132812,0.2211330533027649,0.8027710318565369
1773047962273514200,6.37651416015625,0.243804931640625,-0.04657483100891113,-1.2372779846191406
1773047962283495200,6.3864951171875,-1.1274900436401367,0.18190068006515503,-1.7523853778839111
1773047962293468200,6.39646826171875,-1.7648835182189941,0.4923386573791504,0.32596853375434875
1773047962303448300,6.4064482421875,-0.4853248596191406,0.3209533095359802,-0.44032180309295654
1773047962313421800,6.416421875,-0.25026512145996094,0.34572160243988037,-0.8620362877845764
1773047962323401500,6.4264013671875,-1.3532285690307617,0.15516453981399536,0.2777245044708252
1773047962333375700,6.436375732421875,1.8356084823608398,0.06310349702835083,-0.578130304813385
1773047962343355000,6.44635498046875,-0.9202880859375,0.3166313171386719,-0.7882370948791504
1773047962353329700,6.45632958984375,-0.6317558288574219,0.3796898126602173,0.11935968697071075
1773047962363308300,6.466308349609375,0.8645620346069336,-0.16340050101280212,-1.0406270027160645
1773047962373283600,6.47628369140625,-1.4494991302490234,0.6968534588813782,-0.40087369084358215
1773047962383261700,6.48626171875,-0.5101070404052734,0.19612354040145874,0.5482527017593384
1773047962393237200,6.4962373046875,0.5943546295166016,-0.03242754936218262,-0.8505430817604065
1773047962403215400,6.50621533203125,-0.2097930908203125,-0.32761460542678833,0.21668139100074768
1773047962413191200,6.516191162109375,0.8270339965820312,-0.2350834310054779,-0.7045435905456543
1773047962423169000,6.5261689453125,0.4475831985473633,0.8018118739128113,-0.2506785988807678
1773047962433145000,6.53614501953125,0.5417776107788086,0.2421148419380188,0.28542372584342957
1773047962443122700,6.546122802734375,-0.9784669876098633,0.11350411176681519,-0.744839608669281
1773047962453098800,6.5560986328125,0.8578081130981445,0.47424864768981934,-0.21238690614700317
1773047962463076400,6.566076416015625,-0.9021167755126953,0.2648724317550659,-0.22426360845565796
1773047962473052700,6.576052734375,1.3876056671142578,0.006695687770843506,0.20246335864067078
1773047962483030000,6.586030029296875,-0.7080373764038086,-0.1292419731616974,-0.030364185571670532
1773047962493006600,6.596006591796875,1.7341537475585938,0.15725255012512207,-0.6581711769104004
1773047962502984000,6.60598388671875,0.18686676025390625,0.026462137699127197,-0.28291767835617065
1773047962512960300,6.615960205078125,0.01894092559814453,-0.26578426361083984,0.24176113307476044
1773047962522937600,6.6259375,0.6396598815917969,0.11110824346542358,-0.14912837743759155
1773047962532914200,6.6359140625,0.7668542861938477,-0.49241888523101807,-0.6829522848129272
1773047962542891300,6.645891357421875,-0.20956802368164062,-0.7468894720077515,0.15509048104286194
1773047962552868000,6.6558681640625,0.5025672912597656,-0.16535469889640808,0.11239995062351227
1773047962562845200,6.66584521484375,-0.33452510833740234,0.08848714828491211,0.1949388086795807
1773047962572822000,6.675822021484375,0.4926166534423828,-0.36448749899864197,-0.520793616771698
1773047962582798800,6.685798828125,0.23347091674804688,-0.009618818759918213,-0.2842092514038086
1773047962592775700,6.695775634765625,-0.4071083068847656,0.17179518938064575,0.32902422547340393
1773047962602752800,6.705752685546875,0.5970115661621094,-0.4876893162727356,-0.8929079174995422
1773047962612632800,6.7156328125,-0.6127471923828125,-0.0680840015411377,-0.29673466086387634
1773047962622493400,6.725493408203125,-0.6350259780883789,-0.1694328486919403,0.0431729257106781
1773047962632683300,6.735683349609375,0.3601980209350586,-0.447914183139801,-0.6008445024490356
1773047962642664400,6.74566455078125,-0.9396638870239258,-0.45497941970825195,-0.20682692527770996
1773047962652637200,6.75563720703125,0.05147838592529297,-0.08345091342926025,0.4035414755344391
1773047962662617600,6.76561767578125,0.027655601501464844,0.33450937271118164,-0.5851215720176697
1773047962672591000,6.775591064453125,0.24734783172607422,-0.12620553374290466,-0.14991021156311035
1773047962682570800,6.78557080078125,0.848602294921875,-0.23233217000961304,-0.18401101231575012
1773047962692545000,6.795544921875,-0.8728599548339844,0.25326210260391235,-0.01036304235458374
1773047962702524000,6.80552392578125,0.9060277938842773,-0.21507754921913147,-0.05146580934524536
1773047962712404000,6.815404052734375,-0.22808456420898438,0.2808576822280884,-1.0423946380615234
1773047962722264300,6.825264404296875,0.17357921600341797,0.16069376468658447,0.0933680534362793
1773047962732258600,6.835258544921875,-0.5098342895507812,-0.2940409183502197,-0.5273534059524536
1773047962742221300,6.84522119140625,-0.6614580154418945,0.3131498694419861,-0.45609474182128906
1773047962752406300,6.85540625,0.31447887420654297,-0.04572552442550659,-0.2524031698703766
1773047962762391600,6.8653916015625,-0.4934062957763672,0.08610016107559204,-0.7724907398223877
1773047962772360200,6.875360107421875,0.29107189178466797,-0.215721994638443,0.06160619854927063
1773047962782344000,6.885343994140625,0.4719429016113281,-0.08805131912231445,-0.37361928820610046
1773047962792313900,6.89531396484375,0.5758895874023438,0.330657422542572,-0.06886652112007141
1773047962802296300,6.90529638671875,0.784703254699707,-0.08330148458480835,-0.07971611618995667
1773047962812267800,6.915267822265625,0.04257774353027344,0.516198456287384,-0.4512324035167694
1773047962822249200,6.925249267578125,-0.48291492462158203,0.6572092771530151,0.5518290996551514
1773047962832221700,6.9352216796875,0.07724380493164062,0.46331602334976196,-0.8288808465003967
1773047962842202000,6.9452021484375,-1.1217355728149414,0.7477772831916809,-1.2412620782852173
1773047962852175600,6.955175537109375,-0.7751741409301758,0.5033124685287476,-0.47155481576919556
1773047962862155300,6.9651552734375,-0.16198062896728516,0.8136427402496338,-0.3048551678657532
1773047962872129500,6.975129638671875,-0.5056915283203125,0.6368335485458374,0.43835756182670593
1773047962882108700,6.985108642578125,1.6112356185913086,0.14647573232650757,-0.325045108795166
1773047962892083500,6.99508349609375,1.0720643997192383,0.38773173093795776,-0.5586426258087158
1773047962902062000,7.00506201171875,0.04694366455078125,0.4760392904281616,1.3556396961212158
1773047962912037000,7.015037109375,0.7631101608276367,-0.5440030694007874,-0.600770115852356
1773047962922015500,7.025015380859375,-1.6938676834106445,0.21825504302978516,-1.0787725448608398
1773047962931991000,7.034990966796875,-0.1998138427734375,0.18393301963806152,1.1642169952392578
1773047962941969200,7.04496923828125,-1.1880006790161133,0.012137353420257568,-0.5561268329620361
1773047962951945000,7.054945068359375,0.30979442596435547,-0.2059578001499176,-0.4811808466911316
1773047962961922600,7.064922607421875,0.4521512985229492,-0.5534141659736633,0.9876501560211182
1773047962971899000,7.07489892578125,-0.060021400451660156,0.23524683713912964,0.08680957555770874
1773047962981876500,7.08487646484375,2.1276369094848633,0.010038435459136963,-0.10280588269233704
1773047962991852500,7.0948525390625,0.9378633499145508,-0.38831064105033875,-0.34647107124328613
1773047963001830100,7.104830078125,-0.10578346252441406,-0.2928623557090759,1.4233423471450806
1773047963011806500,7.114806396484375,0.49628353118896484,-0.4457201361656189,1.002050757408142
1773047963021783800,7.12478369140625,-0.7418498992919922,-0.6000589728355408,-0.9191527962684631
1773047963031760400,7.134760498046875,0.6736955642700195,-0.2700492739677429,0.0849473625421524
1773047963041737500,7.144737548828125,-1.6491966247558594,0.3394983410835266,0.4616265296936035
1773047963051617500,7.154617431640625,-0.12158489227294922,0.5779587626457214,1.1622496843338013
1773047963061435600,7.164435546875,-0.9046134948730469,-0.1491169035434723,-0.14859890937805176
1773047963071615700,7.17461572265625,0.28200721740722656,0.13451284170150757,0.1444069743156433
1773047963081650200,7.184650146484375,-0.27766990661621094,0.1933363676071167,1.3995965719223022
1773047963091621600,7.19462158203125,0.22434139251708984,0.3727537989616394,1.5578502416610718
1773047963101603000,7.20460302734375,-0.2348155975341797,0.5700963139533997,0.3053727149963379
1773047963111575600,7.214575439453125,0.8784418106079102,0.13352960348129272,0.2765069007873535
1773047963121556000,7.224555908203125,0.1979055404663086,0.22181588411331177,0.20160911977291107
1773047963131435800,7.234435791015625,0.006228446960449219,0.4202272891998291,-0.05015203356742859
1773047963141253400,7.24425341796875,-0.3521137237548828,0.7463654279708862,0.8493995666503906
1773047963151433500,7.25443359375,0.0880880355834961,-0.0983399748802185,0.509456217288971
1773047963161467400,7.26446728515625,-0.11275672912597656,-0.7838553190231323,-0.7255226373672485
1773047963171437000,7.27443701171875,0.3603181838989258,-0.44136708974838257,0.37990057468414307
1773047963181419800,7.284419677734375,-0.6960773468017578,0.3851696848869324,1.0156753063201904
1773047963191391000,7.294390869140625,-0.5270748138427734,-0.20334306359291077,-0.36453235149383545
1773047963201372400,7.304372314453125,0.9023885726928711,0.1271091103553772,-1.027083396911621
1773047963211344600,7.3143447265625,-0.9530353546142578,1.0528523921966553,0.8113207817077637
1773047963221325300,7.3243251953125,-0.9602870941162109,0.47803205251693726,1.9643975496292114
1773047963231298600,7.334298583984375,-0.27954578399658203,-0.09012722969055176,-1.2304770946502686
1773047963241278500,7.344278564453125,-0.3315134048461914,0.08399730920791626,0.668426513671875
1773047963251252500,7.35425244140625,0.2949075698852539,-0.4207773208618164,0.5610471963882446
1773047963261231900,7.36423193359375,-0.6753606796264648,-0.18017885088920593,-0.38691356778144836
1773047963271206400,7.374206298828125,0.8879966735839844,-0.6215771436691284,-0.07826611399650574
1773047963281185300,7.384185302734375,-2.8635544776916504,0.768990695476532,0.11652491986751556
1773047963291160300,7.394160400390625,1.6855382919311523,0.5762972831726074,-0.4954903721809387
1773047963301138700,7.404138671875,-1.953535556793213,-0.2067241072654724,-0.7107459306716919
1773047963311114000,7.414114013671875,0.2718172073364258,0.2105368971824646,1.4903193712234497
1773047963321092000,7.424092041015625,0.47148895263671875,0.3621059060096741,1.1081479787826538
1773047963331106800,7.43410693359375,0.7231664657592773,-0.26026004552841187,0.1577097475528717
1773047963341088500,7.444088623046875,0.9551362991333008,-0.4663692116737366,0.4030207693576813
1773047963351021800,7.454021728515625,0.4988727569580078,-0.30086857080459595,-0.07116842269897461
1773047963360998700,7.46399853515625,0.8271045684814453,-0.08925679326057434,0.10863171517848969
1773047963370975700,7.473975830078125,-1.2956418991088867,-0.29100900888442993,0.7382110953330994
1773047963380952600,7.48395263671875,-0.26546764373779297,-0.023640930652618408,-0.13916745781898499
1773047963390929400,7.493929443359375,0.0648050308227539,-0.13947448134422302,0.3615575134754181
1773047963400906500,7.503906494140625,1.1345643997192383,-0.9812599420547485,0.267171174287796
1773047963410883300,7.51388330078125,-0.3487539291381836,-0.251564085483551,0.8020309209823608
1773047963420860200,7.523860107421875,1.515000343322754,0.2147403359413147,0.4158976078033447
1773047963430837200,7.533837158203125,-0.19848060607910156,0.4349434971809387,0.06830628216266632
1773047963440814000,7.54381396484375,0.5567865371704102,0.025565266609191895,-0.11929991841316223
1773047963450791000,7.553791015625,-0.2182178497314453,0.008880317211151123,0.14991137385368347
1773047963460768000,7.56376806640625,0.7614870071411133,0.4333242177963257,0.5062121748924255
1773047963470744800,7.573744873046875,-0.9549779891967773,0.2298583984375,-0.041664183139801025
1773047963480721700,7.5837216796875,0.31307315826416016,0.04819083213806152,0.1805783361196518
1773047963490698800,7.59369873046875,-0.6715831756591797,0.13384658098220825,-0.3670576214790344
1773047963500675600,7.603675537109375,0.6577978134155273,-0.037305235862731934,0.3665601909160614
1773047963510652400,7.61365234375,0.15944576263427734,-0.008652687072753906,0.17108292877674103
1773047963520629500,7.62362939453125,0.3118610382080078,0.02969348430633545,1.2014790773391724
1773047963530606300,7.6336064453125,0.04364204406738281,-0.4769796133041382,0.7360389232635498
1773047963540583400,7.64358349609375,-0.6441030502319336,-0.01432335376739502,0.020051926374435425
1773047963550560300,7.653560302734375,1.4734487533569336,0.04738819599151611,-0.07218044996261597
1773047963560537000,7.663537109375,-0.07758712768554688,-0.20827066898345947,-0.19827890396118164
1773047963570514200,7.67351416015625,-0.277923583984375,0.18194371461868286,0.5605367422103882
1773047963580491000,7.683490966796875,-0.8549823760986328,-0.13624528050422668,-0.007396012544631958
1773047963590467800,7.6934677734375,0.8428792953491211,0.0722881555557251,-1.3693727254867554
1773047963600445000,7.70344482421875,-0.8928508758544922,0.3027242422103882,-0.23312288522720337
1773047963610324700,7.71332470703125,-0.5897359848022461,0.2771311402320862,1.7513428926467896
1773047963620143000,7.72314306640625,-0.2728433609008789,0.25111472606658936,0.3459325134754181
1773047963630323000,7.733322998046875,0.5063400268554688,0.1408115029335022,0.5583940744400024
1773047963640357600,7.743357666015625,-0.5598793029785156,0.1006622314453125,-0.7960086464881897
1773047963650329300,7.753329345703125,0.4014873504638672,1.008423089981079,0.6269575357437134
1773047963660310300,7.763310302734375,0.05659770965576172,-0.1926994025707245,0.4212111830711365
1773047963670283300,7.773283203125,-1.481492042541504,0.06049239635467529,-0.20902076363563538
1773047963680263400,7.783263427734375,1.2159547805786133,0.05230659246444702,-0.30187007784843445
1773047963690237000,7.79323681640625,-0.8599977493286133,0.2522420287132263,0.33504655957221985
1773047963700216600,7.803216552734375,0.794651985168457,0.061461806297302246,0.4311893880367279
1773047963710190800,7.81319091796875,-0.9028797149658203,-0.38393959403038025,0.45493268966674805
1773047963720170000,7.823169921875,1.4397125244140625,-0.6265823841094971,0.02925221621990204
1773047963730144800,7.833144775390625,-0.9231967926025391,0.044836461544036865,-0.15585863590240479
1773047963740123400,7.843123291015625,1.5866498947143555,0.20587342977523804,0.6027743816375732
1773047963750098400,7.853098388671875,-1.158731460571289,0.3306052088737488,0.5071097016334534
1773047963760076800,7.863076904296875,1.0317192077636719,0.08505618572235107,-0.2533247172832489
1773047963770052400,7.87305224609375,-0.46094608306884766,-0.515093207359314,0.03342495858669281
1773047963780030500,7.883030517578125,0.11815166473388672,-0.6399387717247009,0.6162601113319397
1773047963790006300,7.89300634765625,-0.23540687561035156,-0.5512909293174744,-0.09337170422077179
1773047963799983900,7.90298388671875,0.3671579360961914,-0.49650949239730835,0.48602503538131714
1773047963809960200,7.912960205078125,-0.058646202087402344,-0.452037513256073,1.2610465288162231
1773047963819937800,7.922937744140625,0.5626859664916992,-0.25047338008880615,0.6539365649223328
1773047963829913900,7.932913818359375,0.652348518371582,0.15067553520202637,0.04489812254905701
1773047963839891500,7.942891357421875,0.7560148239135742,-0.19306322932243347,0.8930568099021912
1773047963849867800,7.95286767578125,0.0761566162109375,-0.5268153548240662,0.6374640464782715
1773047963859845000,7.96284521484375,0.6016225814819336,0.29220765829086304,0.12519007921218872
1773047963869821700,7.97282177734375,0.6337766647338867,0.35947608947753906,0.2679084837436676
1773047963879798800,7.982798828125,-0.02670001983642578,0.029922902584075928,0.45875072479248047
1773047963889775400,7.992775390625,0.15026473999023438,-0.015756607055664062,0.15205678343772888
1773047963899752700,8.002752685546875,-0.20333576202392578,0.5063448548316956,0.14287470281124115
1773047963909729300,8.012729248046876,0.5901880264282227,0.249708354473114,0.03203335404396057
1773047963919706400,8.022706298828124,0.2211017608642578,0.10814303159713745,-0.08195774257183075
1773047963929683200,8.03268310546875,0.12037467956542969,0.526086151599884,0.2952811121940613
1773047963939660300,8.042660400390625,-0.4625368118286133,-0.01189035177230835,0.6289950609207153
1773047963949637000,8.05263720703125,-0.20331668853759766,-0.03754913806915283,0.02163451910018921
1773047963959614000,8.062614013671874,-0.0020952224731445312,0.4196888208389282,0.22269853949546814
1773047963969590800,8.0725908203125,-0.9142751693725586,0.9377738833427429,1.006087064743042
1773047963979567900,8.08256787109375,0.16276073455810547,0.8349854946136475,-0.279293417930603
1773047963989544700,8.092544677734375,-0.4632902145385742,0.502776563167572,0.5443384051322937
1773047963999521500,8.102521484375,-0.7486791610717773,0.3770993947982788,1.0072792768478394
1773047964009498600,8.11249853515625,-0.4075193405151367,0.8095670938491821,-0.8259626626968384
1773047964019475500,8.122475341796875,0.0855560302734375,-0.11514145135879517,-0.8560833930969238
1773047964029452300,8.132452392578125,-0.6597299575805664,-0.12066304683685303,1.3710777759552002
1773047964039429400,8.142429443359376,0.2686033248901367,0.2515920400619507,1.315794587135315
1773047964049406200,8.15240625,0.9702548980712891,0.5405789017677307,-0.5472490191459656
1773047964059383000,8.162383056640625,-0.111541748046875,0.19440674781799316,1.0081771612167358
1773047964069360000,8.172360107421875,0.5096282958984375,0.004116833209991455,0.897524356842041
1773047964079337000,8.1823369140625,-0.31787586212158203,1.0463117361068726,0.21893450617790222
1773047964089314800,8.192314697265624,0.2177591323852539,0.7448485493659973,0.7398823499679565
1773047964099291600,8.202291748046875,-1.5929584503173828,-0.11063694953918457,-1.3845386505126953
1773047964109268500,8.2122685546875,1.095047950744629,0.8397318124771118,0.2893213629722595
1773047964119245600,8.22224560546875,-1.2624597549438477,0.4087967872619629,0.6022230386734009
1773047964129222400,8.232222412109374,-0.46183204650878906,-0.2243879735469818,-0.18195246160030365
1773047964139199500,8.242199462890625,1.4209918975830078,-0.009730994701385498,-1.1073436737060547
1773047964149176300,8.25217626953125,-0.2306385040283203,0.9250946640968323,0.6060092449188232
1773047964159153200,8.262153076171876,0.07527828216552734,0.7027121782302856,1.7724303007125854
1773047964169130000,8.2721298828125,-0.3645153045654297,-1.0143274068832397,-1.3706332445144653
1773047964179107000,8.282107177734375,0.20925235748291016,-0.20513316988945007,-0.4803498387336731
1773047964189084000,8.292083984375,-0.5987739562988281,0.07132560014724731,1.3244388103485107
1773047964199061000,8.30206103515625,-0.9174280166625977,0.06404715776443481,0.008709073066711426
1773047964209037800,8.312037841796876,0.11159324645996094,-0.2816123962402344,-0.9800565838813782
1773047964219014700,8.3220146484375,-1.1975717544555664,0.04063534736633301,0.8594242334365845
1773047964228991700,8.33199169921875,-0.17738819122314453,-0.19603994488716125,0.415956974029541
1773047964248945400,8.3519453125,0.1092844009399414,-0.4308452308177948,0.5856283903121948
1773047964268899300,8.3718994140625,0.9010639190673828,0.11304950714111328,0.10372725129127502
1773047964278876200,8.381876220703125,0.47359752655029297,-0.5018660426139832,-0.10256682336330414
1773047964288853200,8.391853271484376,-0.7074775695800781,-0.09806150197982788,0.6511234641075134
1773047964298830000,8.401830078125,-0.26163387298583984,-0.38744068145751953,-0.43580180406570435
1773047964308807000,8.411806884765625,0.4314403533935547,-0.38452303409576416,0.13192500174045563
1773047964318784000,8.421783935546875,0.23442935943603516,-0.4593847393989563,0.3103931248188019
1773047964328760800,8.4317607421875,-0.8743095397949219,-0.04249989986419678,0.8107074499130249
1773047964338737700,8.441737548828126,1.6352863311767578,0.3560037612915039,1.0432795286178589
1773047964348714800,8.45171484375,0.06939315795898438,-0.35231733322143555,-0.6620123386383057
1773047964358691600,8.461691650390625,0.7282562255859375,-0.6757295727729797,0.3916160762310028
1773047964368668400,8.47166845703125,-0.12366867065429688,-0.49844735860824585,0.31559255719184875
1773047964378645500,8.4816455078125,-0.11375045776367188,-0.03471720218658447,0.34369152784347534
1773047964388525300,8.491525390625,0.14452171325683594,0.36078935861587524,0.6914381980895996
1773047964398405400,8.5014052734375,-0.49578380584716797,0.1582556962966919,0.07034346461296082
1773047964408576000,8.511575927734375,0.6995754241943359,-0.3484377861022949,-0.8224554061889648
1773047964418560000,8.52156005859375,0.029188156127929688,-0.2860965132713318,0.1311667561531067
1773047964428491000,8.531490966796875,0.38256168365478516,0.16328012943267822,1.5433162450790405
1773047964438469600,8.5414697265625,-0.4732074737548828,0.4674168825149536,-0.3523375391960144
1773047964448444700,8.551444580078124,0.7029476165771484,0.07487642765045166,-0.23257146775722504
1773047964458423300,8.56142333984375,-0.2683124542236328,0.35056859254837036,0.4146723747253418
1773047964468437500,8.5714375,0.8070955276489258,0.6263992786407471,0.34768974781036377
1773047964478419500,8.58141943359375,0.17950153350830078,-0.0264320969581604,0.42945146560668945
1773047964488275000,8.59127490234375,-0.5850353240966797,-0.5153046250343323,0.11934901773929596
1773047964498244000,8.601244140625,0.5533113479614258,0.04824554920196533,0.4776865243911743
1773047964508306200,8.61130615234375,0.843440055847168,-0.3692247271537781,-0.23835335671901703
1773047964518285000,8.62128515625,-0.14716815948486328,0.0496179461479187,-0.33500978350639343
1773047964528299000,8.631299072265625,0.4742107391357422,0.41610878705978394,0.5734042525291443
1773047964538281200,8.64128125,-1.2892465591430664,0.2742503881454468,0.2556305229663849
1773047964548214000,8.651214111328125,0.022835731506347656,-0.1813446581363678,-1.3336211442947388
1773047964558191400,8.66119140625,-0.02487659454345703,-0.2059151828289032,-0.8080897927284241
1773047964568168000,8.67116796875,-1.1853103637695312,0.22219765186309814,0.24121832847595215
1773047964578145000,8.68114501953125,-0.6711349487304688,0.2817806601524353,0.3173978924751282
1773047964588082700,8.691082763671876,0.19525527954101562,-0.6525681614875793,-0.5178439021110535
1773047964598056200,8.70105615234375,0.13761520385742188,-1.0072579383850098,0.003249123692512512
1773047964607997700,8.710997802734376,-0.5072669982910156,-0.6791670322418213,-0.029307514429092407
1773047964617967900,8.7209677734375,0.8650264739990234,0.03571343421936035,-0.1304873377084732
1773047964627912700,8.73091259765625,0.5479211807250977,-0.7804715037345886,-1.2655425071716309
1773047964637880300,8.74088037109375,-1.2013206481933594,0.8116604089736938,0.8186608552932739
1773047964647789000,8.7507890625,0.24912261962890625,0.11378741264343262,-0.0015060901641845703
1773047964657750800,8.760750732421876,-0.2144298553466797,0.20379865169525146,-2.2545371055603027
1773047964667704000,8.7707041015625,-0.5385217666625977,0.17996829748153687,0.21115325391292572
1773047964677665000,8.7806650390625,-1.4827384948730469,0.5055022835731506,1.2488749027252197
1773047964687657700,8.79065771484375,-0.38030052185058594,0.8313413262367249,-0.44099074602127075
1773047964697621800,8.800621826171875,0.8625192642211914,0.9714293479919434,-1.0450661182403564
1773047964707572700,8.81057275390625,-0.8496103286743164,0.6721364259719849,0.4594627320766449
1773047964717535500,8.820535400390625,0.6950931549072266,1.3070648908615112,1.2128665447235107
1773047964727487700,8.83048779296875,-0.5867786407470703,0.6455826759338379,0.6706655025482178
1773047964737449500,8.840449462890625,0.37451934814453125,0.43098390102386475,0.4258648157119751
1773047964747325400,8.850325439453124,-0.6152181625366211,0.5030864477157593,-0.9974136352539062
1773047964757278500,8.860278564453125,0.06430912017822266,0.5235002040863037,-0.9032928347587585
1773047964767278800,8.87027880859375,-2.1713290214538574,0.8239148855209351,0.7109941840171814
1773047964777236700,8.88023681640625,-0.9530258178710938,1.1163982152938843,0.49349862337112427
1773047964787193900,8.89019384765625,-0.6738834381103516,0.7445431351661682,-0.9517287015914917
1773047964797151500,8.9001513671875,1.7489805221557617,0.804516613483429,0.012551739811897278
1773047964807108900,8.91010888671875,-0.16144561767578125,0.9054872989654541,1.8573310375213623
1773047964817066500,8.92006640625,1.2189903259277344,-0.4446908235549927,1.2316466569900513
1773047964826985200,8.929985107421874,0.800297737121582,-0.5138713121414185,-0.7729490995407104
1773047964836939000,8.93993896484375,0.3683586120605469,0.22310370206832886,-0.43467220664024353
1773047964846900000,8.94989990234375,0.8019866943359375,-0.039835453033447266,0.8467239737510681
1773047964856854500,8.9598544921875,-1.9989323616027832,0.41280877590179443,0.29481491446495056
1773047964866853400,8.969853271484375,-1.268101692199707,0.9389687180519104,-0.4211886525154114
1773047964876812500,8.9798125,0.019659042358398438,0.39014172554016113,-0.7064210176467896
1773047964886992400,8.989992431640625,-0.3771333694458008,0.49754565954208374,0.4993323087692261
1773047964897172500,9.00017236328125,0.817469596862793,0.2051447629928589,2.0914297103881836
1773047964907352300,9.010352294921875,1.2401924133300781,0.39558500051498413,0.28402525186538696
1773047964917417500,9.02041748046875,0.9454193115234375,0.035785138607025146,0.2622137665748596
1773047964927375400,9.030375244140625,2.112874984741211,0.31313109397888184,0.7492669224739075
1773047964937367600,9.040367431640625,-0.7488737106323242,1.13266921043396,-0.26980239152908325
1773047964947329300,9.050329345703124,1.9606103897094727,-0.036995112895965576,1.148206114768982
1773047964957318400,9.060318359375,-2.758756160736084,-0.6160846948623657,-0.28538328409194946
1773047964967283000,9.070282958984375,-0.0680704116821289,-0.7165534496307373,-0.09297530353069305
1773047964977270000,9.08027001953125,0.8488473892211914,-0.04577219486236572,0.2937838137149811
1773047964987236900,9.09023681640625,0.535923957824707,0.1075676679611206,1.400488018989563
1773047964997222000,9.100221923828125,2.04836368560791,0.14631348848342896,0.498840868473053
1773047965007190800,9.110190673828125,1.6035938262939453,0.2890024781227112,-1.1792513132095337
1773047965017174000,9.120174072265625,1.952707290649414,-0.4801328182220459,0.8772419095039368
1773047965027144700,9.130144775390624,-0.793971061706543,-0.747682511806488,0.7425336241722107
1773047965037126700,9.140126708984376,-0.18079090118408203,-0.526536226272583,-0.9356537461280823
1773047965047098600,9.1500986328125,-0.3905820846557617,-0.3840310275554657,-1.6733918190002441
1773047965057079600,9.16007958984375,-0.29898834228515625,-0.3946242034435272,-0.11035998165607452
1773047965067052300,9.17005224609375,-1.0482187271118164,0.5063892602920532,1.3539884090423584
1773047965077032400,9.180032470703125,-0.5345649719238281,0.18229049444198608,0.017478689551353455
1773047965087006200,9.190006103515625,0.9999208450317383,-0.06924432516098022,-0.39589136838912964
1773047965096985900,9.19998583984375,0.5579624176025391,-1.0230003595352173,-0.35849371552467346
1773047965106960100,9.209960205078126,0.6187171936035156,-1.2689118385314941,-0.058602869510650635
1773047965116939000,9.21993896484375,-0.14219188690185547,-0.36433443427085876,2.335207462310791
1773047965126913800,9.229913818359375,0.32645606994628906,-0.40868547558784485,0.2843545973300934
1773047965136892400,9.239892333984375,1.0996770858764648,0.3250275254249573,-2.3288822174072266
1773047965146867700,9.24986767578125,-0.43137454986572266,0.5557965636253357,-0.2495814859867096
1773047965156845800,9.259845703125,-1.6529779434204102,-0.11550727486610413,1.5714988708496094
1773047965166726000,9.269725830078125,-0.7746734619140625,0.13704872131347656,0.3704795241355896
1773047965176543700,9.279543701171875,-0.1851644515991211,-0.026053547859191895,-1.390329122543335
1773047965186723800,9.289723876953126,-0.06524276733398438,-0.2895984649658203,-0.5225757956504822
1773047965196758300,9.29975830078125,-0.48534202575683594,-0.6813328266143799,-0.042741164565086365
1773047965206638000,9.30963818359375,-0.41722869873046875,-0.0017537474632263184,0.9465242624282837
1773047965216455000,9.319454833984375,0.46271324157714844,0.5949291586875916,-0.1536807268857956
1773047965226635000,9.329635009765624,-0.9235067367553711,0.3491348624229431,-1.1008353233337402
1773047965236668700,9.339668701171876,-0.21440601348876953,0.18744581937789917,-0.4783962368965149
1773047965246636500,9.349636474609374,-1.4270906448364258,0.29258787631988525,-0.25627759099006653
1773047965256620800,9.359620849609374,-0.038567543029785156,0.1030721664428711,0.8249191045761108
1773047965266590500,9.369590576171875,-1.2708511352539062,0.7391162514686584,0.4072508215904236
1773047965276573200,9.3795732421875,1.0152530670166016,0.6920839548110962,-1.1823095083236694
1773047965286544400,9.38954443359375,-0.2483673095703125,0.6101832389831543,-0.393595427274704
1773047965296526000,9.399526123046876,0.11981773376464844,-0.12941882014274597,-0.15831513702869415
1773047965306406000,9.409406005859376,-1.3039264678955078,0.16745448112487793,0.3841783106327057
1773047965316223000,9.419222900390626,0.2514486312866211,-0.05054420232772827,0.3157782554626465
1773047965326403000,9.429403076171875,-0.016658782958984375,-0.031724631786346436,-0.5699546933174133
1773047965336437000,9.43943701171875,0.51824951171875,-0.9773694276809692,0.3815234899520874
1773047965346406000,9.449406005859375,0.0680837631225586,-0.5950757265090942,0.5227855443954468
1773047965356389000,9.45938916015625,0.7510242462158203,0.2975432276725769,1.3932461738586426
1773047965366359600,9.469359619140626,0.094970703125,0.2793785333633423,0.4400351643562317
1773047965376341800,9.479341796875,0.5629959106445312,-0.23465043306350708,-1.2113211154937744
1773047965386313500,9.4893134765625,0.9247074127197266,-0.6804201006889343,-0.3113519847393036
1773047965396294700,9.499294677734374,-2.3968796730041504,-0.17237666249275208,-0.18764238059520721
1773047965406267400,9.509267333984376,0.06426143646240234,-0.33587193489074707,-0.24603325128555298
1773047965416247600,9.51924755859375,0.6039590835571289,-1.043887734413147,-0.12092138826847076
1773047965426221000,9.529220947265625,-0.22840118408203125,0.731453001499176,0.4861275255680084
1773047965436200700,9.53920068359375,1.1669998168945312,-0.5907120704650879,0.09264444559812546
1773047965446175000,9.549175048828126,1.0162582397460938,-1.0993379354476929,0.5470069050788879
1773047965456154000,9.559154052734375,0.48854637145996094,-0.02050703763961792,0.2990294098854065
1773047965466034200,9.5690341796875,-0.09036636352539062,0.21052169799804688,-1.2213598489761353
1773047965475851800,9.578851806640625,-0.9974679946899414,0.6187340021133423,-1.1858500242233276
1773047965486032000,9.589031982421876,-3.24459171295166,0.5783373117446899,0.33347323536872864
1773047965496066000,9.599066162109375,-0.7194652557373047,1.4055938720703125,0.575313150882721
1773047965506036500,9.609036376953124,0.6386632919311523,1.8593441247940063,-0.05920116603374481
1773047965516018400,9.619018310546876,0.9616222381591797,1.1277141571044922,0.819503664970398
1773047965525990100,9.628990234375,1.360182762145996,-0.2082812488079071,0.9467382431030273
1773047965535971300,9.638971435546875,1.3423385620117188,0.363522469997406,-0.0934632420539856
1773047965545944000,9.648944091796874,1.6111812591552734,0.2594831585884094,-0.6536484956741333
1773047965555924200,9.65892431640625,0.45598602294921875,0.05029857158660889,0.8743023872375488
1773047965565898000,9.66889794921875,-0.35233020782470703,1.2073884010314941,-0.320605605840683
1773047965575877400,9.67887744140625,-1.2494010925292969,1.1012414693832397,-1.3782284259796143
1773047965585851600,9.6888515625,-1.5712251663208008,0.21264159679412842,1.0758264064788818
1773047965595830800,9.698830810546875,-0.4162445068359375,0.01834404468536377,0.31650999188423157
1773047965605710800,9.7087109375,0.2391977310180664,0.03366023302078247,-1.5999470949172974
1773047965615528400,9.718528564453125,2.6314220428466797,-0.7000566720962524,0.44597136974334717
1773047965625708500,9.72870849609375,0.25111865997314453,-0.18392542004585266,0.968799352645874
1773047965635742700,9.73874267578125,1.6404848098754883,-0.10195761919021606,-0.6065981388092041
1773047965645713200,9.748713134765625,0.39933204650878906,1.0213797092437744,0.6499953866004944
1773047965655695400,9.7586953125,-0.6573305130004883,0.32427066564559937,0.34219956398010254
1773047965665666800,9.768666748046876,0.6577434539794922,0.36540156602859497,-1.6061663627624512
1773047965675648000,9.77864794921875,-0.5237636566162109,-0.16704484820365906,-1.7117584943771362
1773047965685620700,9.788620849609375,-3.230815887451172,-1.204888105392456,0.5586507320404053
1773047965695601200,9.79860107421875,-0.6293315887451172,-0.2032274305820465,1.583804726600647
1773047965705481000,9.80848095703125,2.711215019226074,-0.11920461058616638,-0.15805035829544067
1773047965715298600,9.818298583984374,1.6725339889526367,-0.26154232025146484,-2.991331100463867
1773047965725478400,9.828478515625,-0.5006694793701172,-0.6060657501220703,-2.0266788005828857
1773047965735512600,9.8385126953125,-1.4495553970336914,-0.5922764539718628,1.5136058330535889
1773047965745482200,9.848482177734375,3.909067153930664,-0.606706976890564,1.9389491081237793
1773047965755465000,9.85846484375,1.1818418502807617,-0.8890586495399475,-1.7890088558197021
1773047965765436000,9.868435791015624,-2.398831844329834,-1.0030683279037476,-1.1579653024673462
1773047965775417600,9.87841748046875,-0.1621723175048828,-0.25401872396469116,1.5342202186584473
1773047965785389800,9.888389892578125,-0.5098714828491211,0.13611114025115967,-0.17463189363479614
1773047965795370500,9.89837060546875,1.2538928985595703,-0.41491174697875977,-1.5717918872833252
1773047965805343700,9.90834375,0.4293174743652344,-1.2756879329681396,-0.38367652893066406
1773047965815323600,9.91832373046875,0.7723674774169922,-0.765341579914093,0.4005587100982666
1773047965825297400,9.92829736328125,0.20719623565673828,-0.8597714900970459,1.103570580482483
1773047965835276800,9.93827685546875,0.8423500061035156,-0.7155444622039795,-0.03396591544151306
1773047965845156900,9.948156982421875,0.4635429382324219,-0.2096422016620636,-2.3766751289367676
1773047965854974500,9.957974365234374,0.3385782241821289,0.04674631357192993,-0.4654495120048523
1773047965865154300,9.968154296875,-2.0355582237243652,-0.11011964082717896,1.2385437488555908
1773047965875188500,9.9781884765625,-0.8120498657226562,0.3045496940612793,0.13430015742778778
1773047965885158700,9.98815869140625,-0.7427234649658203,0.16010308265686035,-1.0615888833999634
1773047965895141000,9.99814111328125,-0.7119235992431641,0.8331923484802246,-1.7230491638183594
1773047965905112600,10.008112548828125,0.16881942749023438,0.3696677088737488,-0.19733023643493652
1773047965915093800,10.01809375,-0.6387224197387695,0.18433904647827148,0.8228529095649719
1773047965925066500,10.02806640625,-2.2369980812072754,0.5964481234550476,0.49729397892951965
1773047965935047000,10.038046875,2.310835838317871,0.6858295202255249,-1.3038616180419922
1773047965945020400,10.0480205078125,-0.21648025512695312,0.029987335205078125,-2.8061838150024414
1773047965955000000,10.058,-1.1522397994995117,-0.5933908820152283,0.8422082662582397
1773047965964974000,10.06797412109375,-1.8082690238952637,-0.5279843807220459,2.537193775177002
1773047965974953200,10.077953125,-0.8333749771118164,0.8052899837493896,-0.48548540472984314
1773047965984928000,10.087927978515625,1.2324533462524414,0.5124115347862244,-3.200606346130371
1773047965994906600,10.09790673828125,-1.6364145278930664,0.46967613697052,0.4191757142543793
1773047966004882000,10.1078818359375,-0.44759559631347656,0.24274122714996338,2.254810094833374
1773047966014860000,10.117860107421874,0.1658926010131836,0.7348665595054626,0.6642245054244995
1773047966024740000,10.127739990234375,1.5652837753295898,1.5960772037506104,-1.547992467880249
1773047966034558000,10.137557861328125,-0.33477306365966797,0.5787575840950012,-1.218008041381836
1773047966044738000,10.147738037109375,0.27263355255126953,0.20972883701324463,-0.02147740125656128
1773047966054772200,10.157772216796875,-1.4043092727661133,0.703772783279419,1.0610852241516113
1773047966064743200,10.1677431640625,-0.23059940338134766,0.2861749529838562,1.0859122276306152
1773047966074724900,10.177724853515626,1.4563913345336914,-0.35580873489379883,-2.803041458129883
1773047966084696800,10.18769677734375,0.43071460723876953,-0.232489675283432,-1.4347343444824219
1773047966094677800,10.197677734375,-0.7740898132324219,-0.706562876701355,2.0651912689208984
1773047966104557800,10.207557861328125,-1.2540321350097656,-0.31563425064086914,1.5154037475585938
1773047966114375200,10.217375244140625,1.815896987915039,0.12337672710418701,-2.2747390270233154
1773047966124371700,10.227371826171876,-0.4238557815551758,0.25358712673187256,-2.2658610343933105
1773047966134332700,10.237332763671875,-0.8625125885009766,0.16693419218063354,1.1478590965270996
1773047966144512800,10.2475126953125,-0.44472599029541016,0.0470733642578125,1.4430960416793823
1773047966154546000,10.2575458984375,-0.10436439514160156,0.1236119270324707,-1.2939133644104004
1773047966164512000,10.267511962890625,-0.0564117431640625,-0.07165908813476562,-0.9518622159957886
1773047966174497500,10.27749755859375,-0.013417243957519531,-0.9063823819160461,0.4196920096874237
1773047966184466000,10.2874658203125,-1.0879764556884766,-0.8195289969444275,0.8535168766975403
1773047966194449700,10.29744970703125,-1.3095331192016602,-0.24578526616096497,-0.6025993227958679
1773047966204419800,10.307419921875,1.4211082458496094,0.21706056594848633,-1.9778320789337158
1773047966214402300,10.31740234375,-1.4623174667358398,1.0347914695739746,-1.5408704280853271
1773047966224282000,10.3272822265625,-1.836240291595459,0.7474921941757202,-0.10676616430282593
1773047966244279300,10.347279296875,-0.7682809829711914,1.9957313537597656,0.18665070831775665
1773047966254313000,10.35731298828125,1.1578388214111328,1.5415399074554443,-0.3216330409049988
1773047966264281000,10.367281005859375,1.0732011795043945,0.2229488492012024,-1.8487610816955566
1773047966274265000,10.37726513671875,0.25777626037597656,0.6264368891716003,0.8248519897460938
1773047966284235000,10.387235107421875,-0.6793375015258789,0.6399258971214294,1.4312752485275269
1773047966294217500,10.397217529296874,1.6005134582519531,0.5103428959846497,-1.8541638851165771
1773047966304189000,10.40718896484375,0.5213222503662109,-0.07964456081390381,-2.572265863418579
1773047966314170000,10.417170166015625,-1.4056949615478516,0.7176935076713562,-1.0122615098953247
1773047966324050200,10.42705029296875,-0.972813606262207,0.4162583351135254,1.0937504768371582
1773047966333867300,10.4368671875,0.9545421600341797,0.058254122734069824,1.1442255973815918
1773047966343863600,10.446863525390626,1.6254072189331055,0.12992936372756958,-1.688835859298706
1773047966353824800,10.45682470703125,0.7752189636230469,0.822076678276062,0.5982506275177002
1773047966364004900,10.4670048828125,0.6964826583862305,-0.8568869233131409,0.7328263521194458
1773047966374038000,10.4770380859375,0.08305549621582031,-0.034037768840789795,0.7438802719116211
1773047966384003800,10.48700390625,0.7750368118286133,0.5345539450645447,-1.0991896390914917
1773047966393989600,10.49698974609375,0.5292034149169922,-0.3501631021499634,-2.2185583114624023
1773047966403957800,10.506957763671876,0.8042802810668945,-0.7114422917366028,0.4401403069496155
1773047966413941800,10.516941650390624,-2.6369309425354004,-0.2248765528202057,1.541630744934082
1773047966423821800,10.52682177734375,1.462493896484375,-1.9662346839904785,0.4724014103412628
1773047966433638400,10.536638427734376,0.9144144058227539,-1.077183723449707,-2.7402091026306152
1773047966443818500,10.546818603515625,1.0693855285644531,-0.4667316675186157,-0.6872291564941406
1773047966453852000,10.556851806640625,0.7417211532592773,-0.737581193447113,2.4431166648864746
1773047966463819300,10.5668193359375,-0.4388265609741211,-0.8006384372711182,2.035857915878296
1773047966473803800,10.5768037109375,4.5302886962890625,-0.9578433632850647,-1.5166001319885254
1773047966483773000,10.58677294921875,-0.3190956115722656,-1.1816020011901855,-1.8927862644195557
1773047966493756200,10.596756103515625,-1.9661364555358887,-0.9257798790931702,1.2244126796722412
1773047966503726800,10.606726806640625,-0.9484071731567383,-0.7272798418998718,2.27091908454895
1773047966513708800,10.616708740234374,0.1961832046508789,-0.4932202696800232,-1.3344225883483887
1773047966523680800,10.6266806640625,0.6545391082763672,0.13066285848617554,-2.4527640342712402
1773047966533661700,10.63666162109375,-0.18314266204833984,-0.17280271649360657,-1.6399555206298828
1773047966543634700,10.646634765625,-1.4243650436401367,-0.3590771555900574,1.3318451642990112
1773047966553614600,10.656614501953126,0.6239910125732422,0.1453303098678589,1.2121905088424683
1773047966563494700,10.66649462890625,1.5062532424926758,-0.24706241488456726,-2.3861911296844482
1773047966573312000,10.67631201171875,-0.4321556091308594,-0.6059935688972473,-2.490384101867676
1773047966583492000,10.6864921875,-2.604276180267334,-0.011148333549499512,0.7453409433364868
1773047966593526000,10.696526123046874,-0.3953123092651367,0.3324194550514221,2.0553579330444336
1773047966603496000,10.706495849609375,0.21775054931640625,0.7484768629074097,0.42374393343925476
1773047966613478700,10.716478759765625,0.2552642822265625,0.42820829153060913,-1.8932371139526367
1773047966623449900,10.726449951171874,-2.344062328338623,-0.15006327629089355,-2.108470916748047
1773047966633431300,10.736431396484376,-2.280665874481201,-0.2935449481010437,1.1637626886367798
1773047966643403500,10.746403564453125,2.038834571838379,0.09263789653778076,1.9780499935150146
1773047966653384200,10.75638427734375,1.6760692596435547,0.1965450644493103,-0.8641639947891235
1773047966663357400,10.766357421875,0.248138427734375,0.8257908225059509,-2.251086950302124
1773047966673337300,10.77633740234375,-1.4049978256225586,0.5377559661865234,0.09598979353904724
1773047966683311000,10.78631103515625,-0.636378288269043,0.2752078175544739,2.0371146202087402
1773047966693290500,10.79629052734375,1.2282829284667969,0.7024712562561035,-0.1331968903541565
1773047966703265000,10.80626513671875,-0.44632434844970703,0.07983744144439697,-1.7451984882354736
1773047966713244000,10.816243896484375,-1.2859926223754883,0.5210078358650208,0.46735137701034546
1773047966723219000,10.826218994140625,-1.654994010925293,0.7616773247718811,1.6231005191802979
1773047966733197300,10.836197265625,1.1529693603515625,1.2752158641815186,-0.7683219909667969
1773047966743172600,10.846172607421876,-0.22573566436767578,0.3292236924171448,-1.9928900003433228
1773047966753150700,10.856150634765624,-1.8689398765563965,0.8208718299865723,-1.961297869682312
1773047966763126500,10.86612646484375,0.44256019592285156,0.3736046552658081,1.7472808361053467
1773047966773104400,10.8761044921875,0.8958024978637695,0.3729817867279053,1.5100035667419434
1773047966783080400,10.88608056640625,1.6194581985473633,0.029512643814086914,-1.5322613716125488
1773047966793058000,10.89605810546875,0.1438007354736328,0.708745539188385,-1.5383788347244263
1773047966803034000,10.9060341796875,-1.6001644134521484,0.0879817008972168,1.458399772644043
1773047966813011700,10.91601171875,0.26165771484375,-0.19520986080169678,1.0307354927062988
1773047966822988000,10.925988037109375,0.38994884490966797,-0.45017480850219727,-2.0487220287323
1773047966832965400,10.93596533203125,0.3025093078613281,-0.6751430034637451,-2.6571171283721924
1773047966842941700,10.945941650390624,-1.2796297073364258,0.09306514263153076,0.3146420419216156
1773047966852919000,10.9559189453125,0.32854557037353516,-0.04726487398147583,1.9027988910675049
1773047966862895600,10.9658955078125,2.3817405700683594,-0.5656295418739319,-0.8457316756248474
1773047966872872700,10.975872802734376,0.09710216522216797,-0.11097949743270874,-2.887479305267334
1773047966882849300,10.985849365234374,-1.1457128524780273,-0.46562859416007996,-0.1364193856716156
1773047966892826600,10.99582666015625,0.9646005630493164,-0.5934459567070007,2.2684848308563232
1773047966902803200,11.00580322265625,1.8033037185668945,-0.19994482398033142,0.04388946294784546
1773047966912780300,11.0157802734375,0.05519866943359375,-0.21506652235984802,-1.763775110244751
1773047966922756900,11.0257568359375,-1.9463191032409668,0.10482656955718994,0.15835225582122803
1773047966932734000,11.03573388671875,-1.028792381286621,-0.12766033411026,1.8220487833023071
1773047966942710800,11.045710693359375,0.2921895980834961,0.25200241804122925,-0.4932158291339874
1773047966952687900,11.05568798828125,0.36313343048095703,-0.14837384223937988,-1.7739417552947998
1773047966962664400,11.06566455078125,0.6248483657836914,-0.6666310429573059,-0.5790091753005981
1773047966972641500,11.0756416015625,0.37480640411376953,0.8214877247810364,2.1631789207458496
1773047966982618400,11.085618408203125,0.4605579376220703,0.5291939377784729,0.46551644802093506
1773047966992595500,11.095595458984375,2.6374263763427734,-0.35758131742477417,-2.4743378162384033
1773047967002572300,11.105572265625,-1.4005241394042969,0.025022149085998535,-1.2279608249664307
1773047967012549000,11.115549072265624,-1.36395263671875,-0.1913532316684723,1.566251277923584
1773047967022526000,11.12552587890625,0.6799411773681641,-0.7659294009208679,1.4576618671417236
1773047967032502800,11.135502685546875,1.7001724243164062,-0.41965681314468384,-1.6834394931793213
1773047967042479900,11.14547998046875,-1.6820497512817383,0.6558271646499634,-1.4248459339141846
1773047967052456700,11.155456787109374,-0.7042980194091797,-0.023535430431365967,0.9749001264572144
1773047967062433500,11.16543359375,1.9447202682495117,-0.7524013519287109,-1.2567764520645142
1773047967072410600,11.17541064453125,-0.7734003067016602,-0.19691643118858337,-3.2991437911987305
1773047967082387500,11.185387451171875,-0.5481576919555664,0.07529550790786743,0.1426207721233368
1773047967092364300,11.1953642578125,-0.5320062637329102,0.11000645160675049,1.735222339630127
1773047967102341000,11.205341064453124,0.10949134826660156,0.2497294545173645,-1.4788331985473633
1773047967112318200,11.215318115234375,0.19971942901611328,0.017204642295837402,-1.5492359399795532
1773047967122295000,11.225294921875,-0.3693990707397461,-1.0696187019348145,0.3729900121688843
1773047967132271900,11.23527197265625,-0.5023002624511719,-0.8652251958847046,0.2666504979133606
1773047967142152000,11.24515185546875,0.48286914825439453,-0.22170814871788025,-1.9300514459609985
1773047967151970000,11.254969970703126,0.5293073654174805,-0.2688570022583008,-1.9802403450012207
1773047967162150100,11.265150146484375,0.2841987609863281,-0.14948800206184387,0.06886240839958191
1773047967172184600,11.2751845703125,-0.6480846405029297,0.127937912940979,1.899213433265686
1773047967182156300,11.28515625,0.7817811965942383,-0.7799922227859497,0.7118375897407532
1773047967192137200,11.29513720703125,1.1192045211791992,-0.17456677556037903,-2.0590527057647705
1773047967202110200,11.305110107421875,-0.0204925537109375,-0.6778822541236877,-1.013259768486023
1773047967212090400,11.31509033203125,-2.1266703605651855,-0.03916311264038086,1.7354321479797363
1773047967222063900,11.32506396484375,0.2869548797607422,0.632622241973877,1.6161084175109863
1773047967232043500,11.33504345703125,1.3664121627807617,0.7052385210990906,-0.23902001976966858
1773047967242017800,11.345017822265625,-0.23756122589111328,-0.3681942820549011,-1.8646713495254517
1773047967251996700,11.35499658203125,-2.6539816856384277,-0.5161866545677185,0.16587203741073608
1773047967261971500,11.364971435546876,1.7332687377929688,-0.33775806427001953,1.6645694971084595
1773047967271950000,11.3749501953125,1.041707992553711,0.23312050104141235,-0.6770336627960205
1773047967281925400,11.38492529296875,0.23577880859375,-0.4314502775669098,-1.8543968200683594
1773047967291903700,11.39490380859375,-1.164076805114746,0.1218070387840271,0.9705532789230347
1773047967301879000,11.404879150390625,1.528390884399414,-0.24541673064231873,1.4557931423187256
1773047967311857200,11.414857177734374,0.27833080291748047,-1.2409403324127197,-1.3610363006591797
1773047967321833000,11.4248330078125,-1.0457372665405273,-0.161836177110672,-1.984533429145813
1773047967331810800,11.434810791015625,-1.1055307388305664,0.6832101345062256,0.6590341329574585
1773047967341787000,11.444786865234375,-0.39509105682373047,0.2725400924682617,0.005288571119308472
1773047967351764500,11.454764404296874,0.12665939331054688,-0.015759825706481934,-1.464536428451538
1773047967361740500,11.464740478515624,-0.19846057891845703,-0.2647610604763031,0.26241248846054077
1773047967371718100,11.47471826171875,-0.0019426345825195312,0.05556488037109375,-0.18389540910720825
1773047967381694500,11.484694580078125,0.6573724746704102,0.08922547101974487,-1.7081480026245117
1773047967391671800,11.494671875,-1.1544017791748047,0.7437092661857605,-0.03381103277206421
1773047967401648000,11.504648193359374,-0.6168041229248047,0.41052937507629395,1.3456382751464844
1773047967411625500,11.51462548828125,-0.25212860107421875,0.020881235599517822,-0.8533350229263306
1773047967421602000,11.52460205078125,0.163970947265625,0.29592186212539673,-1.7137444019317627
1773047967431579100,11.5345791015625,-0.8443851470947266,-0.11247849464416504,-0.5997894406318665
1773047967441459200,11.544459228515626,-1.2674894332885742,0.15806734561920166,0.004771590232849121
1773047967451277300,11.55427734375,-0.35230541229248047,0.319075345993042,0.056494712829589844
1773047967461457400,11.56445751953125,-0.432769775390625,0.45997774600982666,-0.5491931438446045
1773047967471491600,11.57449169921875,0.06004619598388672,-0.282426655292511,-1.2211781740188599
1773047967481463300,11.58446337890625,0.11684703826904297,-0.2973729372024536,0.4173457622528076
1773047967491444500,11.594444580078125,0.00157928466796875,-0.1112436056137085,0.6388902068138123
1773047967501417200,11.604417236328125,0.27382850646972656,0.5411728024482727,-1.8435001373291016
1773047967511397400,11.6143974609375,1.366476058959961,0.09057515859603882,-1.0639715194702148
1773047967521371000,11.624370849609376,-2.014061450958252,0.08293288946151733,1.7604944705963135
1773047967531350500,11.6343505859375,0.24016380310058594,-0.16052356362342834,0.696750819683075
1773047967541230600,11.644230712890625,0.9370174407958984,-0.5069102048873901,-2.544140100479126
1773047967551048200,11.654048095703125,-0.47506141662597656,-0.6467518210411072,-1.889331579208374
1773047967561228000,11.66422802734375,-1.0426807403564453,-0.20823892951011658,1.5203986167907715
1773047967571262200,11.67426220703125,1.4817581176757812,-0.2715737819671631,0.538546621799469
1773047967581232000,11.684232177734375,0.5371255874633789,-0.4142662584781647,-2.5001494884490967
1773047967591214600,11.694214599609374,-0.5346775054931641,-1.1331467628479004,-0.08601149916648865
1773047967601186000,11.70418603515625,-0.18962764739990234,-0.7564342617988586,1.774789810180664
1773047967611167500,11.71416748046875,1.2391128540039062,0.14889484643936157,-1.2070902585983276
1773047967621140000,11.724139892578124,1.0876483917236328,0.053646087646484375,-2.0689473152160645
1773047967631120400,11.734120361328126,-1.542327880859375,-0.11340358853340149,0.7884464859962463
1773047967641093600,11.74409375,0.5531406402587891,0.009229123592376709,0.8761656284332275
1773047967651073500,11.754073486328124,-0.11675262451171875,-0.4158145785331726,-1.9641002416610718
1773047967661047600,11.764047607421874,-0.6280641555786133,-1.316681146621704,-0.3925480544567108
1773047967671026700,11.774026611328125,0.34284114837646484,-0.9264820218086243,1.1407687664031982
1773047967681001500,11.78400146484375,0.09374046325683594,0.17738550901412964,0.06378164887428284
1773047967690980000,11.79397998046875,2.4862098693847656,-0.725577175617218,-1.0454081296920776
1773047967700955100,11.803955078125,-1.2883243560791016,-0.40285083651542664,0.28631943464279175
1773047967710933500,11.81393359375,0.33370304107666016,-0.4490758180618286,1.405092477798462
1773047967720909000,11.823908935546875,-1.424407958984375,-0.02042144536972046,-0.7841835021972656
1773047967730887200,11.83388720703125,1.7456121444702148,0.16756337881088257,-1.379063606262207
1773047967740767200,11.843767333984376,-1.1532163619995117,0.7341090440750122,1.2507860660552979
1773047967750585000,11.853585205078126,-0.037403106689453125,-0.25461167097091675,1.8426218032836914
1773047967760765000,11.863764892578125,2.3416624069213867,-0.8929965496063232,-0.5950291156768799
1773047967770842000,11.873842041015624,1.160874366760254,-0.4485510587692261,-2.2662265300750732
1773047967780770300,11.883770263671876,-1.7126789093017578,-0.2541133165359497,0.7738993763923645
1773047967790751200,11.893751220703125,0.35509586334228516,-0.2008274495601654,1.9438955783843994
1773047967800724200,11.90372412109375,1.0997800827026367,0.09825003147125244,-1.507796287536621
1773047967810704400,11.913704345703126,-0.13063335418701172,0.20535165071487427,-1.8008646965026855
1773047967820678000,11.923677978515625,-0.6320829391479492,0.3804841637611389,0.9006322026252747
1773047967830657500,11.933657470703125,1.1083612442016602,-0.3606889545917511,1.008670687675476
1773047967840537600,11.94353759765625,1.000624656677246,-0.45653605461120605,-2.651646852493286
1773047967850417400,11.95341748046875,-1.2043800354003906,0.2109919786453247,-1.9956841468811035
1773047967860585700,11.963585693359375,-1.2010564804077148,0.3057172894477844,1.5786707401275635
1773047967870564600,11.973564697265624,1.1719942092895508,-0.4549041986465454,1.5551244020462036
1773047967880539400,11.983539306640624,0.5815973281860352,-0.6567965149879456,-0.7340802550315857
1773047967890518000,11.99351806640625,-2.1624999046325684,-0.37545904517173767,-2.2546112537384033
1773047967900493300,12.003493408203125,-0.5855293273925781,0.06992799043655396,1.3456581830978394
1773047967910471400,12.013471435546874,1.4377813339233398,-0.8468022346496582,0.3247791826725006
1773047967920447000,12.023447021484374,0.4449577331542969,-0.4326971769332886,-1.6727485656738281
1773047967930425000,12.033425048828125,-1.5481281280517578,-0.8270397186279297,0.33360424637794495
1773047967940401000,12.04340087890625,0.5674543380737305,-0.94921875,-0.08730226755142212
1773047967950378800,12.053378662109376,0.06970787048339844,-0.49982887506484985,-1.968624472618103
1773047967960354800,12.063354736328124,-2.490687847137451,0.4310370087623596,-0.3250780403614044
1773047967970332200,12.073332275390625,-0.4783201217651367,0.13944488763809204,1.606091856956482
1773047968010239700,12.11323974609375,1.1480464935302734,0.8011935949325562,-1.2057709693908691
1773047968020216000,12.123216064453125,0.7008943557739258,0.6316057443618774,-0.8227484822273254
1773047968030193400,12.133193359375,-2.2670187950134277,-0.6502549648284912,1.1230721473693848
1773047968040170000,12.143169921875,0.2889862060546875,-0.36995571851730347,0.19951772689819336
1773047968050147300,12.153147216796874,-0.5664339065551758,0.5803290605545044,-0.7422407865524292
1773047968060124000,12.1631240234375,1.6078758239746094,-0.20744004845619202,0.2139735221862793
1773047968070101000,12.17310107421875,-0.3589630126953125,0.6228999495506287,-0.11636605858802795
1773047968080077600,12.18307763671875,1.3564949035644531,0.6699908375740051,0.7219924926757812
1773047968090054700,12.1930546875,0.8422393798828125,-0.6698456406593323,-0.08351674675941467
1773047968100031500,12.203031494140625,-0.3727731704711914,-0.47901827096939087,-0.6812185049057007
1773047968110008600,12.213008544921875,0.6647500991821289,0.25634920597076416,-0.0963955819606781
1773047968119985200,12.222985107421875,-0.6500644683837891,0.9503331780433655,0.10370025038719177
1773047968129962200,12.232962158203126,-0.1276683807373047,0.45003741979599,-0.12447401881217957
1773047968139939000,12.24293896484375,-0.84356689453125,-0.3069208264350891,-0.2734685242176056
1773047968149916000,12.252916015625,-0.42109012603759766,0.10946553945541382,-0.3530384302139282
1773047968159892700,12.262892822265625,-0.6634855270385742,0.6967560648918152,-0.8935624957084656
1773047968169869800,12.272869873046876,-0.3563213348388672,0.8738826513290405,-0.4720052480697632
1773047968179846700,12.2828466796875,-1.0624732971191406,0.9129055738449097,0.4617825448513031
1773047968189823700,12.29282373046875,0.4777507781982422,0.32819169759750366,0.25762540102005005
1773047968199800600,12.302800537109375,0.060929298400878906,0.4034842252731323,-1.3198890686035156
1773047968209777400,12.31277734375,0.6620759963989258,0.40350019931793213,0.05571666359901428
1773047968219754200,12.322754150390624,-1.374587059020996,0.6315485239028931,0.8873958587646484
1773047968229731000,12.33273095703125,-0.34455299377441406,0.21193766593933105,-0.8513422608375549
1773047968239708200,12.342708251953125,0.7305889129638672,0.08329266309738159,-0.8888304233551025
1773047968249685000,12.35268505859375,-1.6025161743164062,-0.8055185675621033,0.5060796141624451
1773047968259661800,12.362661865234376,0.03941154479980469,-0.5887534618377686,0.38784414529800415
1773047968269639000,12.372638916015624,1.003870964050293,0.1278613805770874,-0.2498997151851654
1773047968279615700,12.38261572265625,-0.4937257766723633,-0.5774715542793274,-1.3755571842193604
1773047968289592600,12.392592529296875,-0.23500537872314453,-0.46332383155822754,0.2606780529022217
1773047968299569400,12.4025693359375,-0.10573196411132812,-0.30304157733917236,0.6669261455535889
1773047968309546500,12.41254638671875,-0.783660888671875,-0.535862922668457,-0.15449190139770508
1773047968319523300,12.4225234375,1.8018407821655273,-1.3252838850021362,0.42550748586654663
1773047968329500200,12.432500244140625,-1.049163818359375,-1.3540818691253662,-0.03779485821723938
1773047968339477000,12.44247705078125,-0.11517715454101562,-1.1908214092254639,-1.527046799659729
1773047968349454000,12.4524541015625,-1.542628288269043,-1.0764341354370117,-1.328499674797058
1773047968369407700,12.47240771484375,-0.2581367492675781,-1.0469307899475098,1.4102212190628052
1773047968379384600,12.482384521484375,4.012752532958984,-0.4560438394546509,0.17174598574638367
1773047968389361700,12.492361572265626,-0.8399925231933594,0.9386531114578247,0.8912948369979858
1773047968399338500,12.50233837890625,2.524333953857422,-0.43034467101097107,1.03749418258667
1773047968409315600,12.512315673828125,0.19249343872070312,0.9897398948669434,-0.9305007457733154
1773047968419292400,12.52229248046875,1.213789939880371,1.9176077842712402,-0.07350265979766846
1773047968429269200,12.532269287109376,-2.161098003387451,0.6161529421806335,0.3841687738895416
1773047968439246000,12.54224609375,1.6983795166015625,0.024928152561187744,-0.12128075957298279
1773047968449223000,12.552222900390625,-1.4436225891113281,0.8012474775314331,0.10853779315948486
1773047968459200000,12.562199951171875,3.3882265090942383,0.6820548176765442,1.73307466506958
1773047968469176800,12.5721767578125,0.2136373519897461,-0.3304864764213562,0.043905019760131836
1773047968479153700,12.582153564453124,2.409918785095215,-0.28159773349761963,-0.03532925248146057
1773047968489130500,12.592130615234375,0.4698801040649414,0.2947654724121094,-0.3770449161529541
1773047968499107600,12.602107666015625,0.029298782348632812,1.318436861038208,1.4931721687316895
1773047968509084400,12.61208447265625,-0.5291748046875,0.36627399921417236,0.34870320558547974
1773047968519061200,12.622061279296876,0.05996513366699219,-0.6740542650222778,-2.12339186668396
1773047968529038300,12.632038330078124,-1.2055883407592773,0.028528273105621338,-0.8483895063400269
1773047968539015200,12.64201513671875,-4.421245574951172,-0.21312913298606873,1.5023388862609863
1773047968548992000,12.651991943359375,-1.9111151695251465,-1.109096646308899,1.279809832572937
1773047968558969000,12.661968994140626,1.7772655487060547,-1.0584851503372192,-0.5786391496658325
1773047968568946000,12.67194580078125,-0.5148754119873047,-0.05273914337158203,-0.9233729243278503
1773047968578922800,12.6819228515625,-0.43141746520996094,-0.5197770595550537,1.1672821044921875
1773047968588899600,12.691899658203125,3.9661502838134766,-0.888919472694397,1.6897701025009155
1773047968598876700,12.701876708984376,1.7652301788330078,0.2402302622795105,-0.46639466285705566
1773047968608853500,12.711853515625,-1.4536170959472656,0.12291133403778076,-0.4905959665775299
1773047968618830300,12.721830322265625,-0.4076852798461914,0.5248816013336182,1.453864574432373
1773047968628807200,12.73180712890625,-0.6494626998901367,0.8021504282951355,0.007288992404937744
1773047968638784300,12.7417841796875,-2.1428017616271973,0.6499346494674683,-0.11249327659606934
1773047968648761000,12.751760986328126,1.3447113037109375,0.8821483254432678,1.872671127319336
1773047968658738200,12.76173828125,4.265617370605469,1.500074028968811,0.6288475394248962
1773047968668715000,12.771715087890625,1.0258417129516602,1.2500874996185303,-2.0330393314361572
1773047968678691800,12.78169189453125,0.13300037384033203,1.3617143630981445,-0.24510839581489563
1773047968688668700,12.791668701171876,-0.04880809783935547,0.09786772727966309,2.7982704639434814
1773047968698645800,12.801645751953124,2.76729679107666,0.7396658658981323,0.7557071447372437
1773047968708622600,12.81162255859375,0.5056734085083008,1.4304797649383545,-0.9701995849609375
