time,seconds_elapsed,z,y,x
1773047956047740400,0.150740478515625,0.04673844203352928,0.006524739786982536,0.009720530360937119
1773047956057655300,0.1606552734375,0.04993423447012901,-0.0019973693415522575,0.018242640420794487
1773047956097432600,0.2004326171875,0.0552605502307415,-0.012650005519390106,0.020373167470097542
1773047956127302400,0.230302490234375,0.053130023181438446,0.0033289489801973104,0.0043942127376794815
1773047956147165400,0.25016552734375,0.05099949613213539,-0.005193160381168127,0.007590003311634064
1773047956157142300,0.260142333984375,0.0456731803715229,0.0033289489801973104,-0.003062632866203785
1773047956167119000,0.270119140625,0.05099949613213539,-0.017976323142647743,0.0043942127376794815
1773047956177091300,0.28009130859375,0.05206476151943207,0.0022636852227151394,0.01078579481691122
1773047956187045600,0.290045654296875,0.05099949613213539,-0.01904158666729927,0.0043942127376794815
1773047956196931000,0.29993115234375,0.04993423447012901,0.00013315795513335615,0.02143843099474907
1773047956206857000,0.30985693359375,0.04780370742082596,0.011851058341562748,0.013981585390865803
1773047956216843500,0.319843505859375,0.04993423447012901,0.005459476262331009,0.013981585390865803
1773047956226794500,0.32979443359375,0.05099949613213539,0.006524739786982536,0.026764748618006706
1773047956236795100,0.339795166015625,0.05206476151943207,-0.013715269044041634,0.016112113371491432
1773047956246766800,0.349766845703125,0.05206476151943207,-0.017976323142647743,-0.0009321057004854083
1773047956256946700,0.35994677734375,0.05419528856873512,0.016112113371491432,0.026764748618006706
1773047956267126800,0.370126708984375,0.05845634266734123,-0.032890014350414276,0.01078579481691122
1773047956277306600,0.380306640625,0.05419528856873512,0.01717737689614296,0.018242640420794487
1773047956287486700,0.39048681640625,0.05632581561803818,-0.02330264262855053,0.009720530360937119
1773047956297356000,0.40035595703125,0.05952160432934761,0.018242640420794487,0.02143843099474907
1773047956307361300,0.410361328125,0.06591318547725677,-0.03075948730111122,0.0033289489801973104
1773047956317310500,0.420310546875,0.0691089779138565,-0.004127896390855312,0.01504684891551733
1773047956327293000,0.43029296875,0.07123950868844986,-0.05419528856873512,0.0043942127376794815
1773047956337226000,0.44022607421875,0.06804371625185013,0.020373167470097542,0.006524739786982536
1773047956347188200,0.450188232421875,0.07230477035045624,-0.028628960251808167,-0.004127896390855312
1773047956357217800,0.4602177734375,0.074435293674469,-0.02649843320250511,0.01078579481691122
1773047956367207200,0.470207275390625,0.07337003201246262,-0.004127896390855312,0.0022636852227151394
1773047956377171500,0.48017138671875,0.07550056278705597,-0.0009321057004854083,-0.003062632866203785
1773047956387150800,0.49015087890625,0.0786963477730751,-0.0062584239058196545,0.018242640420794487
1773047956397125400,0.50012548828125,0.07763108611106873,-0.05206476151943207,0.0022636852227151394
1773047956407102700,0.510102783203125,0.07123950868844986,0.011851058341562748,0.009720530360937119
1773047956417079000,0.5200791015625,0.07230477035045624,0.005459476262331009,0.007590003311634064
1773047956427055900,0.530055908203125,0.07550056278705597,-0.013715269044041634,0.012916321866214275
1773047956437032700,0.54003271484375,0.07123950868844986,0.01717737689614296,0.0043942127376794815
1773047956447009500,0.550009521484375,0.07230477035045624,-0.010519478470087051,-0.004127896390855312
1773047956456986400,0.559986328125,0.06804371625185013,0.011851058341562748,-0.005193160381168127
1773047956466963200,0.569963134765625,0.06804371625185013,-0.010519478470087051,-0.02649843320250511
1773047956476940000,0.57993994140625,0.07017423957586288,-0.005193160381168127,-0.022237379103899002
1773047956486916900,0.589916748046875,0.0691089779138565,-0.053130023181438446,-0.017976323142647743
1773047956496893700,0.599893798828125,0.06378266215324402,0.020373167470097542,-0.0062584239058196545
1773047956506870500,0.60987060546875,0.06058686971664429,0.027830012142658234,-0.007323687430471182
1773047956516847400,0.619847412109375,0.06271740049123764,-0.01584579609334469,0.007590003311634064
1773047956526824200,0.62982421875,0.06378266215324402,-0.009454214945435524,0.019307903945446014
1773047956536801000,0.639801025390625,0.05632581561803818,-0.03502054139971733,0.005459476262331009
1773047956546777900,0.64977783203125,0.05632581561803818,0.048070020973682404,0.0342215932905674
1773047956556754700,0.659754638671875,0.06271740049123764,-0.02330264262855053,0.02889527566730976
1773047956566731500,0.6697314453125,0.06591318547725677,-0.004127896390855312,0.04593949392437935
1773047956576611600,0.679611572265625,0.0648479238152504,0.016112113371491432,0.048070020973682404
1773047956586429700,0.6894296875,0.05419528856873512,0.01078579481691122,0.02569948509335518
1773047956596609500,0.699609619140625,0.05419528856873512,0.013981585390865803,0.02996053919196129
1773047956606686700,0.709686767578125,0.05952160432934761,-0.004127896390855312,0.04061317816376686
1773047956616615700,0.71961572265625,0.06058686971664429,0.012916321866214275,0.02569948509335518
1773047956626595800,0.729595947265625,0.05419528856873512,0.01504684891551733,0.009720530360937119
1773047956636569300,0.7395693359375,0.05632581561803818,0.035286858677864075,0.01717737689614296
1773047956646549000,0.749549072265625,0.06271740049123764,-0.0648479238152504,0.0011984215816482902
1773047956656523000,0.75952294921875,0.05845634266734123,0.051265813410282135,-0.009454214945435524
1773047956666502100,0.769502197265625,0.061652131378650665,0.02463422156870365,-0.020106852054595947
1773047956676476700,0.7794765625,0.057391077280044556,-0.009454214945435524,-0.04780370742082596
1773047956686455300,0.789455322265625,0.012650005519390106,0.047004759311676025,-0.041412122547626495
1773047956696430300,0.799430419921875,-0.027830012142658234,0.0672447681427002,-0.03928159549832344
1773047956706408700,0.80940869140625,0.020106852054595947,0.11930952966213226,-0.057391077280044556
1773047956716384000,0.819384033203125,0.04247738793492317,0.17576849460601807,-0.048868969082832336
1773047956726362000,0.829362060546875,0.03608580678701401,0.17576849460601807,-0.06591318547725677
1773047956736337700,0.839337646484375,0.0691089779138565,0.253532737493515,-0.08082687854766846
1773047956746315500,0.8493154296875,0.08815056830644608,0.19920429587364197,-0.11491531878709793
1773047956756291300,0.859291259765625,0.15419691801071167,-0.007323687430471182,-0.10745847225189209
1773047956766269000,0.86926904296875,0.15206637978553772,0.19387798011302948,-0.14580796658992767
1773047956776149000,0.87914892578125,0.1339569091796875,0.3153180480003357,-0.10319741815328598
1773047956785966800,0.888966796875,0.1201084777712822,0.5315665602684021,-0.09254477918148041
1773047956796146700,0.899146728515625,0.074435293674469,0.7839008569717407,-0.09147951751947403
1773047956806181000,0.90918115234375,0.020106852054595947,0.815858781337738,-0.05952160432934761
1773047956816152300,0.91915234375,0.0552605502307415,0.753008246421814,-0.061652131378650665
1773047956826133800,0.9291337890625,0.053130023181438446,0.8946883082389832,-0.0786963477730751
1773047956836106000,0.93910595703125,-0.0022636852227151394,0.920254647731781,-0.041412122547626495
1773047956846086400,0.94908642578125,-0.03315633162856102,0.628505527973175,-0.03395527973771095
1773047956856059600,0.9590595703125,-0.027830012142658234,0.36858120560646057,-0.0318247526884079
1773047956866039600,0.96903955078125,-0.07044056057929993,0.5688507556915283,-0.025433169677853584
1773047956875919400,0.97891943359375,-0.14074796438217163,0.9138630628585815,0.0022636852227151394
1773047956885737000,0.988737060546875,-0.11944268643856049,0.9468862414360046,-0.007323687430471182
1773047956895916800,0.998916748046875,-0.1279647946357727,0.9074714779853821,0.009720530360937119
1773047956905950700,1.00895068359375,-0.07896266877651215,0.9777788519859314,-0.020106852054595947
1773047956915920600,1.018920654296875,-0.055526867508888245,0.8840356469154358,-0.013715269044041634
1773047956925903000,1.028903076171875,-0.007590003311634064,0.7008103132247925,-0.03395527973771095
1773047956935874300,1.038874267578125,0.010519478470087051,0.6816355586051941,-0.04460791498422623
1773047956945855700,1.048855712890625,0.041412122547626495,0.641288697719574,-0.0456731803715229
1773047956955828000,1.058827880859375,0.0648479238152504,0.50706547498703,-0.0552605502307415
1773047956965808400,1.068808349609375,0.07123950868844986,0.2918822467327118,-0.04354264959692955
1773047956975688400,1.0786884765625,0.05952160432934761,0.19920429587364197,-0.041412122547626495
1773047956985505800,1.088505859375,0.05419528856873512,0.33555805683135986,-0.011584741994738579
1773047956995686000,1.098685791015625,0.032890014350414276,0.6613955497741699,-0.008388951420783997
1773047957005719600,1.108719482421875,0.01584579609334469,0.8105324506759644,0.020373167470097542
1773047957015689000,1.11868896484375,-0.013981585390865803,0.9394294023513794,0.023568958044052124
1773047957035643000,1.138642822265625,-0.02463422156870365,1.183241605758667,0.02463422156870365
1773047957045624300,1.148624267578125,-0.03741738572716713,0.7732482552528381,0.07243792712688446
1773047957055596500,1.158596435546875,-0.1375521719455719,0.27483803033828735,0.17044217884540558
1773047957065577200,1.1685771484375,-0.29095011949539185,-0.06271740049123764,0.27057695388793945
1773047957075550200,1.17855029296875,-0.1471395343542099,-0.18415744602680206,0.24714116752147675
1773047957085530000,1.188530029296875,-0.07896266877651215,-0.03928159549832344,0.10226531326770782
1773047957095504000,1.19850390625,-0.08748477697372437,0.20026956498622894,0.11930952966213226
1773047957105483300,1.208483154296875,0.08602003753185272,0.5592634081840515,-0.028628960251808167
1773047957115457800,1.218457763671875,0.09347688406705856,0.7093324065208435,0.00013315795513335615
1773047957125436400,1.2284365234375,-0.007590003311634064,0.8712524771690369,0.06924213469028473
1773047957135411500,1.238411376953125,-0.009720530360937119,0.9053409099578857,0.06817687302827835
1773047957145389800,1.248389892578125,0.029694223776459694,0.9021451473236084,0.05659212917089462
1773047957155365000,1.258365234375,0.028628960251808167,1.067260980606079,0.07882951200008392
1773047957165343200,1.26834326171875,0.025433169677853584,1.0715221166610718,0.0576573945581913
1773047957175318800,1.27831884765625,0.02330264262855053,0.6848313808441162,0.10546109825372696
1773047957185296600,1.288296630859375,0.061652131378650665,0.32277488708496094,0.08522108942270279
1773047957195272400,1.2982724609375,0.1201084777712822,-0.0456731803715229,0.06924213469028473
1773047957205250000,1.30825,0.15632744133472443,-0.3577954173088074,0.08415582776069641
1773047957215226000,1.31822607421875,0.1392832249403,-0.3482080399990082,0.10546109825372696
1773047957225203700,1.32820361328125,0.09241162240505219,-0.1777658760547638,0.14274533092975616
1773047957235180000,1.338179931640625,0.10945583879947662,0.022503694519400597,0.12037479132413864
1773047957245157400,1.348157470703125,0.11158636957406998,0.32810118794441223,0.09693899005651474
1773047957255133700,1.3581337890625,0.08495477586984634,0.6656566262245178,0.0990695208311081
1773047957265110800,1.36811083984375,0.07123950868844986,0.9404946565628052,0.0894821435213089
1773047957275087400,1.37808740234375,0.06804371625185013,1.183241605758667,0.08202529698610306
1773047957285064400,1.388064453125,0.05845634266734123,1.364336371421814,0.048070020973682404
1773047957294944500,1.397944580078125,0.06058686971664429,1.2397005558013916,0.02889527566730976
1773047957304762400,1.407762451171875,0.08815056830644608,0.9490167498588562,-0.007323687430471182
1773047957314942500,1.4179423828125,0.11904320865869522,0.6613955497741699,-0.04460791498422623
1773047957324977000,1.427976806640625,0.1201084777712822,0.5177181363105774,-0.041412122547626495
1773047957334948400,1.4379482421875,0.12330426275730133,0.42610546946525574,-0.0318247526884079
1773047957344929300,1.44792919921875,0.14247901737689972,0.4367581009864807,-0.03502054139971733
1773047957354902000,1.457902099609375,0.15632744133472443,0.6348971128463745,-0.05632581561803818
1773047957364882400,1.46788232421875,0.1669800728559494,0.928776741027832,-0.08082687854766846
1773047957374855700,1.477855712890625,0.17443692684173584,1.0214546918869019,-0.11598058044910431
1773047957384835300,1.48783544921875,0.20639483630657196,0.9138630628585815,-0.1447426974773407
1773047957394809600,1.4978095703125,0.32890015840530396,0.8297072052955627,-0.3183806836605072
1773047957404788500,1.50778857421875,0.40559911727905273,0.565654993057251,-0.2992059290409088
1773047957414763300,1.51776318359375,0.45140546560287476,0.5177181363105774,-0.4653870463371277
1773047957424742000,1.527741943359375,0.5685844421386719,0.28549066185951233,-0.4918854832649231
1773047957434621700,1.53762158203125,0.5217128396034241,0.16831165552139282,-0.4961465299129486
1773047957444439600,1.547439453125,0.40559911727905273,0.15446323156356812,-0.44408178329467773
1773047957454619400,1.557619384765625,0.27350643277168274,0.09707214683294296,-0.2661827504634857
1773047957464653600,1.567653564453125,0.03075948730111122,0.0342215932905674,0.0672447681427002
1773047957474624300,1.577624267578125,-0.12689952552318573,0.36964648962020874,0.12783163785934448
1773047957484606200,1.587606201171875,-0.027830012142658234,0.7061366438865662,-0.012650005519390106
1773047957494578000,1.597577880859375,0.05632581561803818,1.0353031158447266,-0.12876373529434204
1773047957504558800,1.607558837890625,0.07123950868844986,1.179113745689392,-0.17030902206897736
1773047957514531800,1.61753173828125,0.0786963477730751,1.1088062524795532,-0.14367742836475372
1773047957524512000,1.627511962890625,0.07550056278705597,0.891492486000061,-0.11491531878709793
1773047957534485500,1.637485595703125,0.08921582996845245,0.6667218804359436,-0.11704584211111069
1773047957544465000,1.64746484375,0.08495477586984634,0.34940648078918457,-0.09041424840688705
1773047957554439200,1.657439208984375,0.08602003753185272,0.2577938139438629,-0.05206476151943207
1773047957564418300,1.667418212890625,0.0913463607430458,0.4474107325077057,-0.07656582444906235
1773047957574393000,1.67739306640625,0.12650005519390106,0.731702983379364,-0.11385004967451096
1773047957584371500,1.687371337890625,0.1531316488981247,0.950082004070282,-0.1639174371957779
1773047957594346800,1.6973466796875,0.11371689289808273,1.0917620658874512,-0.10745847225189209
1773047957604324900,1.707324951171875,0.09241162240505219,1.2311784029006958,-0.08615319430828094
1773047957614340900,1.7173408203125,0.0648479238152504,1.2727237939834595,-0.0456731803715229
1773047957624278800,1.72727880859375,0.03075948730111122,1.14715576171875,0.03315633162856102
1773047957634254000,1.737254150390625,0.04673844203352928,0.8478167057037354,0.022503694519400597
1773047957644232200,1.747232177734375,0.08388951420783997,0.46871599555015564,-0.024367906153202057
1773047957654256400,1.75725634765625,0.09560741484165192,0.1045289933681488,-0.048868969082832336
1773047957664239000,1.767239013671875,0.09241162240505219,-0.12450268864631653,-0.06058686971664429
1773047957674161700,1.77716162109375,0.08495477586984634,-0.31731539964675903,-0.05845634266734123
1773047957684138200,1.78713818359375,0.074435293674469,-0.3567301630973816,-0.05099949613213539
1773047957694115300,1.797115234375,0.037151068449020386,-0.25126907229423523,-0.024367906153202057
1773047957704092200,1.807092041015625,-0.009720530360937119,-0.06378266215324402,0.05446160212159157
1773047957714069200,1.8170693359375,-0.08322372287511826,0.13315795361995697,0.1310274302959442
1773047957724045800,1.8270458984375,-0.2217079997062683,0.2673811614513397,0.3142527639865875
1773047957733926000,1.83692578125,-0.26644906401634216,0.21411798894405365,0.4271707236766815
1773047957743744000,1.846743896484375,-0.16951008141040802,0.019307903945446014,0.2503369450569153
1773047957753923800,1.856923828125,-0.07363634556531906,-0.03395527973771095,0.2066611498594284
1773047957763958500,1.86695849609375,0.07017423957586288,-0.010519478470087051,0.0033289489801973104
1773047957773930200,1.87693017578125,0.07656582444906235,0.06937529146671295,-0.05099949613213539
1773047957783911200,1.8869111328125,0.07017423957586288,0.18429060280323029,-0.016911059617996216
1773047957793884000,1.8968837890625,0.0691089779138565,0.2876211702823639,-0.007323687430471182
1773047957803864000,1.906864013671875,0.05419528856873512,0.18216007947921753,-0.010519478470087051
1773047957813837800,1.916837890625,0.06697845458984375,0.1045289933681488,-0.024367906153202057
1773047957823817200,1.926817138671875,0.07337003201246262,0.20985694229602814,-0.024367906153202057
1773047957833697300,1.936697265625,0.053130023181438446,0.2620548605918884,-0.022237379103899002
1773047957843515000,1.946514892578125,0.06697845458984375,0.18748639523983002,-0.012650005519390106
1773047957853512400,1.956512451171875,0.0786963477730751,0.18535587191581726,-0.012650005519390106
1773047957863472400,1.966472412109375,0.07017423957586288,0.2865559160709381,-0.014780532568693161
1773047957873652500,1.976652587890625,0.07230477035045624,0.34940648078918457,-0.01904158666729927
1773047957883686000,1.986685791015625,0.08175898343324661,0.3185138404369354,-0.02330264262855053
1773047957893652700,1.99665283203125,0.0786963477730751,0.22690115869045258,-0.03395527973771095
1773047957903637800,2.0066376953125,0.08175898343324661,0.13315795361995697,-0.04993423447012901
1773047957913606400,2.0166064453125,0.10306425392627716,0.10665952414274216,-0.07230477035045624
1773047957923590000,2.02658984375,0.13608743250370026,0.12357058376073837,-0.15539532899856567
1773047957933469700,2.0364697265625,0.1478053331375122,0.019307903945446014,-0.20439745485782623
1773047957943286500,2.04628662109375,0.13182637095451355,-0.11811110377311707,-0.17030902206897736
1773047957953466400,2.05646630859375,0.13715268671512604,-0.26405221223831177,-0.17670060694217682
1773047957963500000,2.0665,0.16591481864452362,-0.5291697382926941,-0.22570273280143738
1773047957973467600,2.076467529296875,0.1723063886165619,-0.8253130316734314,-0.24594274163246155
1773047957983452200,2.0864521484375,0.17550218105316162,-1.0190578699111938,-0.2480732649564743
1773047957993332000,2.09633203125,0.16484954953193665,-0.993491530418396,-0.2576606571674347
1773047958003191000,2.10619091796875,0.11584742367267609,-0.9478183388710022,-0.1639174371957779
1773047958013375200,2.116375244140625,0.05952160432934761,-0.9052077531814575,-0.10319741815328598
1773047958023361000,2.126361083984375,0.06271740049123764,-0.881771981716156,-0.11278478801250458
1773047958033329000,2.136328857421875,0.0552605502307415,-0.9669930934906006,-0.10639320313930511
1773047958043313200,2.146313232421875,-0.0022636852227151394,-1.0669946670532227,-0.06271740049123764
1773047958053282800,2.15628271484375,-0.12689952552318573,-1.2438284158706665,0.09800425171852112
1773047958063265500,2.166265625,-0.3058638274669647,-1.4558159112930298,0.2258358895778656
1773047958073145300,2.176145263671875,-0.14820480346679688,-1.599493384361267,0.13422322273254395
1773047958083005000,2.1860048828125,0.15419691801071167,-1.780588150024414,-0.16924376785755157
1773047958093190400,2.1961904296875,0.10626004636287689,-2.019207239151001,-0.048868969082832336
1773047958103175200,2.206175048828125,0.10626004636287689,-1.9563566446304321,-0.07230477035045624
1773047958113144000,2.21614404296875,0.13182637095451355,-1.6825839281082153,-0.1117195263504982
1773047958123127300,2.226127197265625,0.11478215456008911,-1.3152011632919312,-0.102132149040699
1773047958133098000,2.236097900390625,0.08495477586984634,-1.0041441917419434,-0.09147951751947403
1773047958143080000,2.246079833984375,0.10626004636287689,-0.9552751779556274,-0.09893636405467987
1773047958153051600,2.2560517578125,0.12756532430648804,-1.1181273460388184,-0.09574057161808014
1773047958163032600,2.266032470703125,0.11904320865869522,-1.3002874851226807,-0.08082687854766846
1773047958172912600,2.27591259765625,0.12543480098247528,-1.513206958770752,-0.07656582444906235
1773047958182772500,2.2857724609375,0.12863057851791382,-1.6783229112625122,-0.057391077280044556
1773047958192959200,2.295959228515625,0.1339569091796875,-1.768870234489441,-0.04034686088562012
1773047958202943000,2.30594287109375,0.14993585646152496,-1.8040239810943604,-0.03608580678701401
1773047958212913000,2.315912841796875,0.14034847915172577,-1.5952322483062744,-0.03608580678701401
1773047958222895400,2.325895263671875,0.11371689289808273,-1.4068137407302856,-0.02330264262855053
1773047958232866800,2.33586669921875,0.1201084777712822,-1.4025527238845825,-0.017976323142647743
1773047958242848000,2.345847900390625,0.15206637978553772,-1.557948112487793,-0.025433169677853584
1773047958252820700,2.35582080078125,0.16058848798274994,-1.6410386562347412,-0.024367906153202057
1773047958262801200,2.36580126953125,0.17976324260234833,-1.7496955394744873,-0.02649843320250511
1773047958272774400,2.3757744140625,0.19361166656017303,-1.9808577299118042,-0.021172115579247475
1773047958282754000,2.385754150390625,0.1957421898841858,-2.228930950164795,-0.01584579609334469
1773047958292728300,2.395728271484375,0.18935060501098633,-2.1959078311920166,-0.029694223776459694
1773047958302707500,2.40570751953125,0.148870587348938,-1.9180071353912354,-0.028628960251808167
1773047958312682000,2.415681884765625,0.11797794699668884,-1.504818081855774,-0.037151068449020386
1773047958322660900,2.425660888671875,0.13076111674308777,-0.9956220388412476,-0.03928159549832344
1773047958332636000,2.435635986328125,0.14247901737689972,-0.5526055097579956,-0.03075948730111122
1773047958342614300,2.4456142578125,0.18935060501098633,-0.41958072781562805,-0.028628960251808167
1773047958352589600,2.455589599609375,0.17763271927833557,-0.5600623488426208,0.006524739786982536
1773047958362567700,2.465567626953125,-0.027830012142658234,-0.9094688296318054,0.09054741263389587
1773047958372447700,2.47544775390625,-0.359127014875412,-1.2310452461242676,0.18961693346500397
1773047958382308000,2.48530810546875,-0.2824280261993408,-0.8998814821243286,0.12889690697193146
1773047958392497200,2.4954970703125,0.09028109163045883,-0.4546012580394745,0.02143843099474907
1773047958402478800,2.505478759765625,0.1201084777712822,-0.20865851640701294,0.009720530360937119
1773047958432408600,2.53540869140625,0.05206476151943207,0.007590003311634064,0.020373167470097542
1773047958442381600,2.545381591796875,0.05419528856873512,-0.007323687430471182,0.026764748618006706
1773047958452361700,2.55536181640625,0.04993423447012901,-0.009454214945435524,0.02889527566730976
1773047958462241800,2.56524169921875,0.04247738793492317,-0.004127896390855312,0.027830012142658234
1773047958472059100,2.57505908203125,0.04780370742082596,-0.06271740049123764,0.043808966875076294
1773047958482239200,2.5852392578125,0.04354264959692955,-0.012650005519390106,0.06817687302827835
1773047958492273200,2.595273193359375,0.03502054139971733,-0.02756369672715664,0.04167843982577324
1773047958502242800,2.605242919921875,0.04034686088562012,-0.05099949613213539,0.05020054802298546
1773047958512225500,2.6152255859375,0.0456731803715229,-0.028628960251808167,0.06817687302827835
1773047958522196700,2.62519677734375,0.04993423447012901,-0.05632581561803818,0.0672447681427002
1773047958532178200,2.63517822265625,0.04673844203352928,-0.014780532568693161,0.07776424288749695
1773047958542150700,2.645150634765625,0.05845634266734123,-0.01904158666729927,0.07456845790147781
1773047958552131300,2.65513134765625,0.110521100461483,0.0342215932905674,0.042743705213069916
1773047958562104300,2.665104248046875,0.10519478470087051,0.0576573945581913,0.02889527566730976
1773047958572084200,2.675084228515625,0.05419528856873512,-0.04034686088562012,0.03741738572716713
1773047958582058200,2.685058349609375,0.0648479238152504,-0.03075948730111122,0.02889527566730976
1773047958592037600,2.69503759765625,0.06697845458984375,0.01717737689614296,0.016112113371491432
1773047958602012200,2.70501220703125,0.06697845458984375,0.01078579481691122,0.012916321866214275
1773047958611990800,2.71499072265625,0.06804371625185013,0.02463422156870365,0.012916321866214275
1773047958621965800,2.7249658203125,0.06271740049123764,0.08641951531171799,0.006524739786982536
1773047958631944200,2.734944091796875,0.02330264262855053,-0.04354264959692955,0.01717737689614296
1773047958641824300,2.74482421875,0.07656582444906235,-0.10426267981529236,0.031025802716612816
1773047958651642000,2.75464208984375,0.15845796465873718,0.047004759311676025,-0.0009321057004854083
1773047958661822200,2.764822265625,0.09028109163045883,0.2024000883102417,0.04167843982577324
1773047958671856400,2.7748564453125,-0.018242640420794487,0.36432015895843506,0.11185268312692642
1773047958681827300,2.784827392578125,-0.15033532679080963,0.519848644733429,0.1736379712820053
1773047958691809000,2.79480908203125,-0.3538006842136383,0.6338318586349487,0.20453062653541565
1773047958701781000,2.804781005859375,-0.2270343154668808,0.9884315133094788,0.16724638640880585
1773047958711762000,2.814761962890625,-0.07896266877651215,1.3504879474639893,0.06298371404409409
1773047958721735000,2.82473486328125,-0.13968269526958466,1.5539532899856567,0.08522108942270279
1773047958731714800,2.83471484375,-0.14927007257938385,1.6530228853225708,0.10226531326770782
1773047958741688600,2.8446884765625,-0.013981585390865803,1.7487634420394897,0.00013315795513335615
1773047958751668000,2.85466796875,-0.01504684891551733,1.9021613597869873,-0.012650005519390106
1773047958761642500,2.864642578125,-0.04061317816376686,1.9873825311660767,-0.011584741994738579
1773047958771621400,2.874621337890625,-0.06085318699479103,1.85635507106781,-0.005193160381168127
1773047958781596400,2.884596435546875,-0.04167843982577324,1.4836459159851074,-0.008388951420783997
1773047958791575000,2.894574951171875,-0.0043942127376794815,0.9990841150283813,-0.009454214945435524
1773047958801550000,2.904550048828125,0.021172115579247475,0.5613939166069031,-0.02756369672715664
1773047958811528200,2.914528076171875,0.011584741994738579,0.24714116752147675,-0.012650005519390106
1773047958821504000,2.92450390625,-0.04061317816376686,0.1693769246339798,0.022503694519400597
1773047958831481900,2.93448193359375,-0.11624689400196075,0.3653854429721832,0.07669898122549057
1773047958841458000,2.9444580078125,-0.10239847004413605,0.6795050501823425,0.06511423736810684
1773047958851435500,2.954435546875,-0.02889527566730976,1.050216794013977,0.005459476262331009
1773047958861315600,2.964315673828125,0.0009321057004854083,1.3185300827026367,-0.048868969082832336
1773047958871133400,2.974133544921875,-0.005459476262331009,1.3877722024917603,-0.05099949613213539
1773047958881313500,2.9843134765625,-0.007590003311634064,1.4325132369995117,-0.061652131378650665
1773047958891347700,2.99434765625,-0.01078579481691122,1.5145385265350342,-0.0648479238152504
1773047958901319200,3.004319091796875,-0.009720530360937119,1.4548838138580322,-0.04354264959692955
1773047958911300600,3.014300537109375,-0.0033289489801973104,1.4005553722381592,-0.04247738793492317
1773047958921273000,3.024273193359375,-0.008655266836285591,1.4165343046188354,-0.04354264959692955
1773047958931253500,3.03425341796875,-0.023568958044052124,1.4303827285766602,-0.037151068449020386
1773047958941226800,3.044226806640625,-0.020373167470097542,1.4847111701965332,-0.04460791498422623
1773047958951206700,3.05420654296875,-0.026764748618006706,1.3994901180267334,-0.03608580678701401
1773047958961180700,3.0641806640625,-0.009720530360937119,1.1970900297164917,-0.04460791498422623
1773047958971159800,3.074159912109375,0.02756369672715664,1.075783133506775,-0.06804371625185013
1773047958981134300,3.08413427734375,0.03395527973771095,1.134372591972351,-0.07123950868844986
1773047958991113200,3.09411328125,0.020106852054595947,1.2556794881820679,-0.08189214020967484
1773047959001088300,3.104088134765625,0.010519478470087051,1.351553201675415,-0.07976161688566208
1773047959011066600,3.114066650390625,0.037151068449020386,1.2120037078857422,-0.11278478801250458
1773047959021042000,3.1240419921875,0.03075948730111122,0.8307724595069885,-0.07656582444906235
1773047959031020000,3.13402001953125,0.028628960251808167,0.452737033367157,-0.032890014350414276
1773047959040900000,3.143900146484375,0.0552605502307415,0.2503369450569153,-0.03502054139971733
1773047959050718000,3.153718017578125,0.07230477035045624,0.19387798011302948,-0.04460791498422623
1773047959060898000,3.16389794921875,0.05845634266734123,0.29401275515556335,-0.053130023181438446
1773047959070932500,3.173932373046875,0.011584741994738579,0.3856254518032074,-0.06058686971664429
1773047959080903400,3.1839033203125,-0.009720530360937119,0.5219792127609253,-0.09467530250549316
1773047959090885000,3.193885009765625,-0.012916321866214275,0.8201198577880859,-0.09893636405467987
1773047959100857300,3.203857421875,-0.07257108390331268,1.1535474061965942,-0.09147951751947403
1773047959110838000,3.213838134765625,-0.10879004746675491,1.4825806617736816,-0.0978710949420929
1773047959120811000,3.22381103515625,-0.08428898453712463,1.7540897130966187,-0.07976161688566208
1773047959130791000,3.233791015625,-0.02569948509335518,1.9021613597869873,-0.08615319430828094
1773047959140765000,3.243764892578125,0.11904320865869522,1.8478329181671143,-0.24594274163246155
1773047959150744300,3.253744384765625,0.1392832249403,1.6913723945617676,-0.4643217921257019
1773047959160721200,3.26372119140625,0.15632744133472443,1.4484922885894775,-0.525973916053772
1773047959180578000,3.283578125,0.10626004636287689,0.8637956380844116,-0.20865851640701294
1773047959190395600,3.293395751953125,0.17017586529254913,0.5624592304229736,-0.20333220064640045
1773047959200575700,3.30357568359375,0.22237378358840942,0.21837905049324036,-0.2960101366043091
1773047959210610000,3.31360986328125,0.23622220754623413,-0.2661827504634857,-0.20226693153381348
1773047959220490000,3.323489990234375,0.11904320865869522,-0.4281028211116791,-0.016911059617996216
1773047959230369800,3.333369873046875,0.04247738793492317,-0.4439486265182495,0.031025802716612816
1773047959240550000,3.3435498046875,0.11691268533468246,-0.6495444774627686,0.06511423736810684
1773047959250564000,3.353564208984375,0.0870852991938591,-0.9945567846298218,0.08735162019729614
1773047959260487700,3.36348779296875,0.1723063886165619,-1.3982917070388794,0.09800425171852112
1773047959270472200,3.37347216796875,0.2937464416027069,-1.4984264373779297,0.15233269333839417
1773047959280441600,3.383441650390625,0.2788327634334564,-1.2917653322219849,0.24607589840888977
1773047959290424600,3.393424560546875,0.2426137924194336,-0.9147951602935791,0.309991717338562
1773047959300401400,3.4034013671875,0.1435442715883255,-0.49827706813812256,0.10759162902832031
1773047959310378200,3.413378173828125,0.010519478470087051,-0.13622058928012848,-0.20333220064640045
1773047959320349200,3.42334912109375,0.04780370742082596,0.11398320645093918,-0.1117195263504982
1773047959330331000,3.433330810546875,0.03821633383631706,0.40160438418388367,0.02889527566730976
1773047959340303000,3.44330322265625,0.005193160381168127,0.47191178798675537,-0.0062584239058196545
1773047959350283800,3.45328369140625,-0.0043942127376794815,0.40160438418388367,-0.041412122547626495
1773047959360256800,3.4632568359375,0.011584741994738579,0.30892646312713623,-0.020106852054595947
1773047959370237000,3.47323681640625,0.03502054139971733,0.1981390416622162,-0.013715269044041634
1773047959380210700,3.483210693359375,0.0062584239058196545,0.09920267760753632,-0.03928159549832344
1773047959390190000,3.493190185546875,-0.03209106624126434,0.0715058222413063,-0.048868969082832336
1773047959400164600,3.50316455078125,-0.10665952414274216,-0.025433169677853584,0.05020054802298546
1773047959410143500,3.5131435546875,-0.20040272176265717,-0.1735048145055771,0.2311622053384781
1773047959420118300,3.5231181640625,-0.2504701018333435,-0.34927332401275635,0.38882121443748474
1773047959430097000,3.533096923828125,-0.3069290816783905,-0.3940143883228302,0.41119176149368286
1773047959440072200,3.543072265625,-0.3122554123401642,-0.469514936208725,0.43143177032470703
1773047959450050300,3.55305029296875,-0.3346259295940399,-0.739026665687561,0.3653854429721832
1773047959460025900,3.56302587890625,-0.20466378331184387,-0.9105340838432312,0.26418536901474
1773047959470004000,3.57300390625,-0.1418132185935974,-0.8934898972511292,0.14381058514118195
1773047959479979800,3.582979736328125,-0.14927007257938385,-0.8135951161384583,0.13528847694396973
1773047959489957600,3.59295751953125,-0.13648690283298492,-0.8466182947158813,0.11717899888753891
1773047959499933700,3.60293359375,-0.1002679392695427,-0.7123950719833374,0.05339634045958519
1773047959509911300,3.612911376953125,-0.06085318699479103,-0.31092381477355957,0.011851058341562748
1773047959519887400,3.622887451171875,-0.013981585390865803,0.013981585390865803,-0.03075948730111122
1773047959529865000,3.632864990234375,0.05845634266734123,0.06937529146671295,-0.1117195263504982
1773047959539841300,3.64284130859375,0.07230477035045624,0.10865689069032669,-0.1490037590265274
1773047959549818600,3.652818603515625,0.024367906153202057,0.16405059397220612,-0.074435293674469
1773047959559795000,3.662794921875,0.003062632866203785,0.1363537460565567,-0.037151068449020386
1773047959569772300,3.672772216796875,0.016911059617996216,0.04913528636097908,-0.0318247526884079
1773047959579748900,3.682748779296875,0.04354264959692955,-0.05845634266734123,-0.03928159549832344
1773047959589726200,3.692726318359375,0.06058686971664429,-0.1628521829843521,-0.05419528856873512
1773047959599702800,3.702702880859375,0.05952160432934761,-0.16072164475917816,-0.032890014350414276
1773047959609680000,3.712679931640625,0.16591481864452362,-0.26405221223831177,-0.12024163454771042
1773047959619656400,3.722656494140625,0.3225085735321045,-0.5376918315887451,-0.25553011894226074
1773047959629633500,3.732633544921875,0.33316120505332947,-0.70174241065979,-0.2246374636888504
1773047959639610400,3.7426103515625,0.2575274705886841,-0.550475001335144,-0.10958899557590485
1773047959649587500,3.75258740234375,0.09880319982767105,-0.43329599499702454,-0.03395527973771095
1773047959659564300,3.762564208984375,0.07123950868844986,-0.601607620716095,0.06404897570610046
1773047959669541000,3.772541015625,0.010519478470087051,-0.7177214026451111,0.06404897570610046
1773047959679518000,3.78251806640625,-0.031025802716612816,-0.6676539778709412,0.1651158630847931
1773047959689495000,3.7924951171875,-0.013981585390865803,-0.6239781975746155,0.15339796245098114
1773047959699472000,3.802471923828125,-0.02996053919196129,-0.5547360181808472,0.10120004415512085
1773047959709448700,3.81244873046875,-0.01717737689614296,-0.49401602149009705,0.10013478249311447
1773047959719425500,3.822425537109375,0.15419691801071167,-0.37590491771698,-0.102132149040699
1773047959729402600,3.832402587890625,0.2277000993490219,-0.384427011013031,-0.15646059811115265
1773047959739379500,3.84237939453125,0.1243695318698883,-0.39188385009765625,-0.04780370742082596
1773047959749356300,3.852356201171875,0.11691268533468246,-0.23102904856204987,-0.04034686088562012
1773047959759333000,3.8623330078125,0.08282424509525299,-0.16924376785755157,-0.061652131378650665
1773047959769310200,3.872310302734375,-0.019307903945446014,-0.1585911214351654,0.07882951200008392
1773047959779287000,3.882287109375,0.10412952303886414,-0.1724395453929901,-0.008388951420783997
1773047959789264000,3.892263916015625,0.15845796465873718,-0.19267955422401428,-0.102132149040699
1773047959799241000,3.902240966796875,0.11797794699668884,-0.10532794147729874,-0.0978710949420929
1773047959809217800,3.9122177734375,0.05632581561803818,0.08215846121311188,-0.032890014350414276
1773047959819194600,3.922194580078125,0.053130023181438446,0.4143875539302826,-0.0456731803715229
1773047959829171700,3.932171630859375,0.08069372177124023,0.6359623670578003,-0.09041424840688705
1773047959839148500,3.9421484375,0.01904158666729927,0.7476819157600403,-0.021172115579247475
1773047959849125400,3.95212548828125,-0.01717737689614296,0.7956187725067139,-0.011584741994738579
1773047959859102200,3.962102294921875,-0.008655266836285591,0.7082671523094177,-0.022237379103899002
1773047959869079300,3.972079345703125,0.04354264959692955,0.4133222997188568,-0.04460791498422623
1773047959879056100,3.98205615234375,0.057391077280044556,0.06404897570610046,-0.03928159549832344
1773047959889033000,3.992032958984375,0.053130023181438446,-0.17670060694217682,-0.029694223776459694
1773047959899009800,4.002009765625,0.008388951420783997,-0.140481635928154,0.008655266836285591
1773047959908987000,4.01198681640625,-0.02463422156870365,0.019307903945446014,-0.008388951420783997
1773047959918963700,4.021963623046875,0.04354264959692955,-0.15965639054775238,-0.04780370742082596
1773047959928940800,4.03194091796875,0.07123950868844986,-0.2853575050830841,-0.07656582444906235
1773047959938820600,4.041820556640625,0.12756532430648804,-0.30133646726608276,-0.09041424840688705
1773047959948700700,4.05170068359375,0.14674006402492523,-0.38229650259017944,-0.12982900440692902
1773047959958871300,4.061871337890625,0.22556957602500916,-0.5025381445884705,-0.21291956305503845
1773047959968848100,4.07184814453125,0.2937464416027069,-0.6122602820396423,-0.22570273280143738
1773047959978825200,4.0818251953125,0.2468748539686203,-0.41958072781562805,-0.23955115675926208
1773047959988802000,4.091802001953125,0.251135915517807,-0.2800311744213104,-0.24594274163246155
1773047959998779100,4.101779052734375,0.17763271927833557,-0.18841850757598877,-0.130894273519516
1773047960008756000,4.111755859375,0.08388951420783997,0.05659212917089462,-0.14261217415332794
1773047960018732800,4.12173291015625,0.017976323142647743,-0.12876373529434204,0.02569948509335518
1773047960028709600,4.131709716796875,-0.07363634556531906,-0.1447426974773407,0.07776424288749695
1773047960038589700,4.141589599609375,-0.05659212917089462,-0.1213068962097168,0.047004759311676025
1773047960048469800,4.1514697265625,0.007323687430471182,0.0033289489801973104,-0.016911059617996216
1773047960058640400,4.161640380859375,0.007323687430471182,0.11504847556352615,-0.04034686088562012
1773047960068617500,4.171617431640625,-0.01078579481691122,0.26098960638046265,-0.02330264262855053
1773047960078555400,4.181555419921875,-0.01717737689614296,0.3962780833244324,-0.029694223776459694
1773047960088528400,4.1915283203125,-0.0011984215816482902,0.37284228205680847,-0.04354264959692955
1773047960098509300,4.20150927734375,0.004127896390855312,0.3760380744934082,-0.03928159549832344
1773047960108483000,4.211483154296875,0.0009321057004854083,0.33555805683135986,-0.04354264959692955
1773047960118424000,4.221424072265625,0.007323687430471182,0.19174745678901672,-0.03821633383631706
1773047960128394800,4.231394775390625,0.03502054139971733,0.07789740711450577,-0.057391077280044556
1773047960138455600,4.24145556640625,0.06804371625185013,0.09600688517093658,-0.07656582444906235
1773047960148435200,4.251435302734375,0.08282424509525299,0.18216007947921753,-0.10000162571668625
1773047960158370600,4.26137060546875,0.1243695318698883,0.2024000883102417,-0.130894273519516
1773047960168345900,4.271345947265625,0.1392832249403,0.12037479132413864,-0.12982900440692902
1773047960178324500,4.281324462890625,0.10519478470087051,0.09707214683294296,-0.09147951751947403
1773047960188300000,4.291300048828125,0.03608580678701401,0.12783163785934448,-0.014780532568693161
1773047960198278100,4.301278076171875,0.016911059617996216,0.11078742146492004,0.023568958044052124
1773047960208254000,4.31125390625,0.025433169677853584,0.01504684891551733,0.019307903945446014
1773047960218271000,4.32127099609375,0.0318247526884079,-0.10319741815328598,0.018242640420794487
1773047960228251000,4.3312509765625,0.037151068449020386,-0.1543300747871399,0.018242640420794487
1773047960238130700,4.341130615234375,0.02756369672715664,-0.1255679577589035,0.01717737689614296
1773047960248010800,4.3510107421875,0.020106852054595947,-0.1447426974773407,0.005459476262331009
1773047960257945300,4.3609453125,0.02649843320250511,-0.19054903090000153,0.009720530360937119
1773047960267913000,4.370912841796875,0.021172115579247475,-0.1639174371957779,0.0011984215816482902
1773047960278015200,4.38101513671875,0.020106852054595947,-0.14793848991394043,0.01078579481691122
1773047960287996700,4.39099658203125,0.02330264262855053,-0.21398483216762543,0.01078579481691122
1773047960297930200,4.40093017578125,0.022237379103899002,-0.33009856939315796,0.008655266836285591
1773047960307906800,4.41090673828125,0.01904158666729927,-0.38229650259017944,0.019307903945446014
1773047960317845200,4.42084521484375,0.01904158666729927,-0.3322291076183319,0.027830012142658234
1773047960327818000,4.43081787109375,0.016911059617996216,-0.28855329751968384,0.02569948509335518
1773047960337799200,4.440799072265625,0.01584579609334469,-0.29814067482948303,0.031025802716612816
1773047960347772700,4.450772705078125,0.010519478470087051,-0.2480732649564743,0.018242640420794487
1773047960357714200,4.460714111328125,0.008388951420783997,-0.1351553201675415,0.01717737689614296
1773047960367684400,4.470684326171875,0.0009321057004854083,-0.06697845458984375,0.018242640420794487
1773047960377590500,4.480590576171875,0.007323687430471182,-0.13409006595611572,0.007590003311634064
1773047960387554300,4.49055419921875,0.022237379103899002,-0.195875346660614,0.0033289489801973104
1773047960397544200,4.500544189453125,0.022237379103899002,-0.09680583328008652,0.008655266836285591
1773047960407510500,4.510510498046875,0.011584741994738579,0.026764748618006706,0.0043942127376794815
1773047960417420500,4.520420654296875,0.010519478470087051,0.07896266877651215,0.00013315795513335615
1773047960427381200,4.53038134765625,0.012650005519390106,0.1597895473241806,-0.003062632866203785
1773047960437335600,4.54033544921875,0.011584741994738579,0.26951169967651367,0.008655266836285591
1773047960447295500,4.55029541015625,0.0062584239058196545,0.4175833463668823,0.0033289489801973104
1773047960457250300,4.560250244140625,0.024367906153202057,0.4282359778881073,-0.024367906153202057
1773047960467210000,4.5702099609375,0.07656582444906235,0.39734333753585815,-0.04460791498422623
1773047960477126700,4.580126708984375,0.13076111674308777,0.3717769980430603,-0.10639320313930511
1773047960487082000,4.59008203125,0.11584742367267609,0.21092219650745392,-0.08402267098426819
1773047960497080000,4.600080078125,0.0691089779138565,-0.04460791498422623,-0.020106852054595947
1773047960507039700,4.610039794921875,0.05632581561803818,-0.3471427857875824,0.0043942127376794815
1773047960516918000,4.61991796875,0.07123950868844986,-0.6303697824478149,0.01078579481691122
1773047960526869500,4.629869384765625,0.0913463607430458,-0.9094688296318054,0.019307903945446014
1773047960536832800,4.639832763671875,0.0913463607430458,-1.1660642623901367,0.005459476262331009
1773047960546785500,4.64978564453125,0.09773793816566467,-1.3940306901931763,0.013981585390865803
1773047960556786200,4.6597861328125,0.09347688406705856,-1.5005569458007812,0.019307903945446014
1773047960566743800,4.669743896484375,0.08175898343324661,-1.4611421823501587,0.02889527566730976
1773047960576923600,4.679923583984375,0.07123950868844986,-1.3141359090805054,0.02569948509335518
1773047960587103700,4.690103759765625,0.07337003201246262,-1.1330410242080688,0.026764748618006706
1773047960597283800,4.700283935546875,0.06058686971664429,-0.8753803968429565,0.02996053919196129
1773047960607389700,4.7103896484375,0.03928159549832344,-0.6793718934059143,0.023568958044052124
1773047960617346600,4.7203466796875,0.04034686088562012,-0.7305045127868652,0.02996053919196129
1773047960627339800,4.73033984375,0.06591318547725677,-0.760331928730011,0.03209106624126434
1773047960637300500,4.740300537109375,0.08388951420783997,-0.7869635224342346,0.039547912776470184
1773047960647290400,4.750290283203125,0.11158636957406998,-1.064864158630371,0.019307903945446014
1773047960657254400,4.76025439453125,0.1627190262079239,-1.2938958406448364,0.00013315795513335615
1773047960667241700,4.77024169921875,0.23409168422222137,-1.4185316562652588,-0.03395527973771095
1773047960677218600,4.780218505859375,0.33955278992652893,-1.497361183166504,-0.10106688737869263
1773047960707147300,4.810147216796875,0.18935060501098633,-1.5419690608978271,-0.013715269044041634
1773047960717027300,4.82002734375,0.041412122547626495,-1.6080154180526733,0.047004759311676025
1773047960726843600,4.82984375,0.0786963477730751,-1.5387732982635498,0.06191844865679741
1773047960737023700,4.840023681640625,-0.12263847887516022,-1.32052743434906,0.08522108942270279
1773047960747057200,4.85005712890625,-0.25686168670654297,-1.4345107078552246,0.22370536625385284
1773047960757023500,4.8600234375,-0.2547311782836914,-1.325853705406189,0.19068218767642975
1773047960767008800,4.8700087890625,-0.08428898453712463,-1.1735210418701172,0.08522108942270279
1773047960776888800,4.879888916015625,-0.10879004746675491,-1.2502200603485107,0.06085318699479103
1773047960796931300,4.899931396484375,-0.6103960871696472,-1.4206621646881104,0.29933908581733704
1773047960806914800,4.909914794921875,-0.5432844758033752,-1.4739253520965576,0.301469624042511
1773047960816885000,4.919885009765625,-0.5102612972259521,-1.6325165033340454,0.24394537508487701
1773047960826867500,4.929867431640625,-0.36977964639663696,-1.4654033184051514,0.08309056609869003
1773047960836839000,4.9398388671875,-0.03209106624126434,0.10665952414274216,-0.03395527973771095
1773047960846820000,4.949820068359375,-0.1045289933681488,0.4942823350429535,0.08628635853528976
1773047960856792800,4.959792724609375,-0.09707214683294296,-0.10745847225189209,-0.007323687430471182
1773047960866773200,4.969773193359375,0.1478053331375122,-0.12769848108291626,-0.0882837250828743
1773047960876746500,4.97974658203125,0.138217955827713,-0.11278478801250458,-0.0648479238152504
1773047960886726100,4.98972607421875,0.10519478470087051,-0.10532794147729874,-0.04780370742082596
1773047960896700400,4.999700439453125,0.1478053331375122,-0.14261217415332794,-0.07230477035045624
1773047960906679600,5.009679443359375,0.19148114323616028,-0.2438122183084488,-0.1117195263504982
1773047960916654300,5.019654296875,0.2756369709968567,-0.36844804883003235,-0.15965639054775238
1773047960926633000,5.029633056640625,0.38535910844802856,-0.4046670198440552,-0.1916143000125885
1773047960936608000,5.03960791015625,0.4258391261100769,-0.3833617568016052,-0.21611535549163818
1773047960946586400,5.04958642578125,0.4013380706310272,-0.4046670198440552,-0.2768353819847107
1773047960956466400,5.059466552734375,0.4013380706310272,-0.26511749625205994,-0.24274694919586182
1773047960966284300,5.0692841796875,0.2692453861236572,0.09813741594552994,0.01078579481691122
1773047960976283000,5.079282958984375,0.2138516753911972,-0.15219953656196594,-0.11598058044910431
1773047960986242300,5.0892421875,0.074435293674469,-0.0062584239058196545,-0.03821633383631706
1773047960996422100,5.099422119140625,0.008388951420783997,0.01078579481691122,-0.01584579609334469
1773047961006455800,5.109455810546875,0.016911059617996216,-0.03075948730111122,-0.01584579609334469
1773047961016423200,5.119423095703125,-0.01504684891551733,0.02143843099474907,0.005459476262331009
1773047961026407700,5.12940771484375,0.012650005519390106,0.013981585390865803,0.00013315795513335615
1773047961036377000,5.139377197265625,0.048868969082832336,-0.020106852054595947,0.01078579481691122
1773047961046360000,5.149360107421875,0.005193160381168127,-0.025433169677853584,0.019307903945446014
1773047961056330800,5.159330810546875,-0.02143843099474907,0.02996053919196129,0.023568958044052124
1773047961066312700,5.169312744140625,0.029694223776459694,0.016112113371491432,0.019307903945446014
1773047961076284700,5.17928466796875,0.037151068449020386,-0.03075948730111122,0.01717737689614296
1773047961086265600,5.189265625,0.0009321057004854083,-0.008388951420783997,0.01504684891551733
1773047961096238600,5.199238525390625,0.012650005519390106,0.020373167470097542,0.009720530360937119
1773047961106218500,5.209218505859375,0.020106852054595947,-0.016911059617996216,0.013981585390865803
1773047961116192300,5.219192138671875,0.010519478470087051,-0.0318247526884079,0.00013315795513335615
1773047961126172000,5.229171875,0.005193160381168127,-0.007323687430471182,-0.005193160381168127
1773047961136146200,5.239146240234375,0.010519478470087051,-0.003062632866203785,0.0043942127376794815
1773047961146125000,5.249125,0.009454214945435524,-0.020106852054595947,0.00013315795513335615
1773047961156100000,5.25910009765625,0.005193160381168127,-0.037151068449020386,-0.010519478470087051
1773047961166078500,5.269078369140625,0.005193160381168127,-0.003062632866203785,-0.0062584239058196545
1773047961176053800,5.2790537109375,0.007323687430471182,-0.021172115579247475,0.0043942127376794815
1773047961186032000,5.2890322265625,0.0062584239058196545,-0.028628960251808167,0.011851058341562748
1773047961196007700,5.299007568359375,0.0019973693415522575,-0.02649843320250511,0.007590003311634064
1773047961205985500,5.308985595703125,0.0019973693415522575,-0.012650005519390106,0.0043942127376794815
1773047961215961600,5.318961669921875,0.004127896390855312,-0.037151068449020386,0.007590003311634064
1773047961225939200,5.328939208984375,0.004127896390855312,-0.04034686088562012,-0.0019973693415522575
1773047961235915300,5.338915283203125,-0.0011984215816482902,-0.010519478470087051,0.00013315795513335615
1773047961245892900,5.348892822265625,0.004127896390855312,0.0011984215816482902,0.0011984215816482902
1773047961255773000,5.35877294921875,0.009454214945435524,-0.020106852054595947,-0.017976323142647743
1773047961265590800,5.3685908203125,0.008388951420783997,-0.008388951420783997,-0.037151068449020386
1773047961275771000,5.37877099609375,0.008388951420783997,0.0033289489801973104,-0.028628960251808167
1773047961285805300,5.388805419921875,0.011584741994738579,0.0011984215816482902,-0.028628960251808167
1773047961295776800,5.39877685546875,0.011584741994738579,-0.007323687430471182,-0.03395527973771095
1773047961305758200,5.40875830078125,0.011584741994738579,0.0011984215816482902,-0.04034686088562012
1773047961315730400,5.41873046875,0.012650005519390106,0.011851058341562748,-0.037151068449020386
1773047961325711000,5.428711181640625,0.011584741994738579,-0.02330264262855053,-0.037151068449020386
1773047961335684400,5.438684326171875,0.011584741994738579,0.01504684891551733,-0.03075948730111122
1773047961345664000,5.4486640625,0.010519478470087051,0.01078579481691122,-0.037151068449020386
1773047961355638300,5.45863818359375,0.012650005519390106,0.012916321866214275,-0.020106852054595947
1773047961365617400,5.468617431640625,0.012650005519390106,0.00013315795513335615,-0.03395527973771095
1773047961375497500,5.47849755859375,0.008388951420783997,0.035286858677864075,-0.016911059617996216
1773047961385315000,5.488315185546875,0.013715269044041634,0.013981585390865803,-0.008388951420783997
1773047961395495000,5.498494873046875,0.014780532568693161,0.006524739786982536,-0.005193160381168127
1773047961405529300,5.508529296875,0.012650005519390106,0.018242640420794487,-0.005193160381168127
1773047961415409200,5.5184091796875,0.016911059617996216,0.02889527566730976,0.007590003311634064
1773047961425226000,5.52822607421875,0.024367906153202057,0.0011984215816482902,0.007590003311634064
1773047961435406000,5.538406005859375,0.025433169677853584,0.03315633162856102,0.012916321866214275
1773047961445439500,5.548439453125,0.02649843320250511,0.02996053919196129,0.007590003311634064
1773047961455407000,5.558406982421875,0.03075948730111122,0.051265813410282135,0.01504684891551733
1773047961465391600,5.5683916015625,0.032890014350414276,0.02996053919196129,-0.0019973693415522575
1773047961475361000,5.578361083984375,0.03075948730111122,0.05659212917089462,0.009720530360937119
1773047961485344000,5.588343994140625,0.0318247526884079,0.03848264738917351,0.011851058341562748
1773047961495314700,5.598314697265625,0.028628960251808167,0.048070020973682404,0.0033289489801973104
1773047961505296600,5.608296630859375,0.028628960251808167,0.04913528636097908,0.012916321866214275
1773047961515268600,5.6182685546875,0.0318247526884079,0.011851058341562748,0.019307903945446014
1773047961525249500,5.62824951171875,0.025433169677853584,0.047004759311676025,0.01717737689614296
1773047961535222500,5.638222412109375,0.02330264262855053,0.03635212033987045,0.023568958044052124
1773047961545202400,5.648202392578125,0.028628960251808167,0.008655266836285591,0.04061317816376686
1773047961555176200,5.65817626953125,0.02330264262855053,0.0022636852227151394,0.022503694519400597
1773047961565155600,5.668155517578125,0.013715269044041634,0.04167843982577324,0.018242640420794487
1773047961575130000,5.678130126953125,0.020106852054595947,-0.0009321057004854083,0.027830012142658234
1773047961585109200,5.688109130859375,0.022237379103899002,-0.02756369672715664,0.023568958044052124
1773047961595123000,5.698123046875,0.009454214945435524,-0.008388951420783997,-0.0009321057004854083
1773047961605105200,5.708105224609375,0.005193160381168127,0.011851058341562748,0.013981585390865803
1773047961615038000,5.718037841796875,0.013715269044041634,-0.057391077280044556,0.008655266836285591
1773047961625015300,5.728015380859375,0.007323687430471182,-0.009454214945435524,0.0043942127376794815
1773047961634991600,5.73799169921875,0.003062632866203785,0.012916321866214275,0.01504684891551733
1773047961644969000,5.747968994140625,0.007323687430471182,-0.05206476151943207,0.01078579481691122
1773047961654945500,5.757945556640625,0.0019973693415522575,-0.017976323142647743,0.012916321866214275
1773047961664923000,5.7679228515625,0.0009321057004854083,-0.005193160381168127,0.02143843099474907
1773047961674899500,5.7778994140625,0.007323687430471182,-0.02649843320250511,0.03209106624126434
1773047961684876500,5.78787646484375,0.004127896390855312,-0.04460791498422623,0.02463422156870365
1773047961694853000,5.79785302734375,0.005193160381168127,0.0022636852227151394,0.03848264738917351
1773047961704830200,5.807830322265625,0.012650005519390106,-0.03928159549832344,0.047004759311676025
1773047961714807000,5.81780712890625,0.01584579609334469,-0.022237379103899002,0.042743705213069916
1773047961724784000,5.8277841796875,0.016911059617996216,-0.012650005519390106,0.03635212033987045
1773047961734761000,5.837760986328125,0.021172115579247475,-0.014780532568693161,0.03209106624126434
1773047961744737800,5.84773779296875,0.025433169677853584,-0.009454214945435524,0.02889527566730976
1773047961754714600,5.857714599609375,0.025433169677853584,-0.003062632866203785,0.023568958044052124
1773047961764691700,5.867691650390625,0.028628960251808167,-0.020106852054595947,0.02143843099474907
1773047961774571800,5.87757177734375,0.029694223776459694,-0.017976323142647743,0.011851058341562748
1773047961784390000,5.887389892578125,0.03075948730111122,0.011851058341562748,0.011851058341562748
1773047961794569700,5.89756982421875,0.03608580678701401,-0.037151068449020386,0.01078579481691122
1773047961804604400,5.9076044921875,0.03395527973771095,-0.005193160381168127,-0.0009321057004854083
1773047961814484200,5.917484130859375,0.03502054139971733,-0.010519478470087051,-0.021172115579247475
1773047961824301300,5.92730126953125,0.03928159549832344,0.02463422156870365,-0.021172115579247475
1773047961834481400,5.9374814453125,0.03821633383631706,-0.02649843320250511,-0.04034686088562012
1773047961844515000,5.94751513671875,0.03075948730111122,0.02889527566730976,-0.041412122547626495
1773047961854483500,5.9574833984375,0.02756369672715664,0.04487423226237297,-0.021172115579247475
1773047961864467500,5.967467529296875,0.03395527973771095,-0.03821633383631706,-0.05206476151943207
1773047961874437400,5.977437255859375,0.024367906153202057,0.06937529146671295,-0.012650005519390106
1773047961884419800,5.987419921875,0.028628960251808167,-0.013715269044041634,-0.029694223776459694
1773047961894391300,5.997391357421875,0.02756369672715664,0.05659212917089462,0.0022636852227151394
1773047961904372700,6.007372802734375,0.024367906153202057,-0.016911059617996216,-0.024367906153202057
1773047961914345200,6.01734521484375,0.024367906153202057,0.058722659945487976,0.007590003311634064
1773047961924325600,6.02732568359375,0.016911059617996216,-0.009454214945435524,-0.01584579609334469
1773047961934205700,6.037205810546875,0.009454214945435524,0.018242640420794487,-0.011584741994738579
1773047961944023000,6.04702294921875,0.009454214945435524,0.018242640420794487,-0.005193160381168127
1773047961954203000,6.057202880859375,0.003062632866203785,-0.003062632866203785,-0.01584579609334469
1773047961964237000,6.067237060546875,-0.0011984215816482902,0.02463422156870365,-0.017976323142647743
1773047961974206500,6.07720654296875,-0.0011984215816482902,-0.014780532568693161,-0.013715269044041634
1773047961984189400,6.087189453125,-0.0033289489801973104,-0.0019973693415522575,-0.013715269044041634
1773047961994160400,6.097160400390625,-0.0043942127376794815,0.020373167470097542,-0.017976323142647743
1773047962004142000,6.10714208984375,-0.007590003311634064,-0.010519478470087051,-0.01904158666729927
1773047962014114300,6.1171142578125,-0.0043942127376794815,-0.028628960251808167,-0.021172115579247475
1773047962024095200,6.12709521484375,-0.0043942127376794815,0.005459476262331009,-0.016911059617996216
1773047962034068200,6.137068115234375,-0.00013315795513335615,-0.0009321057004854083,-0.013715269044041634
1773047962044048100,6.147048095703125,0.0062584239058196545,-0.02330264262855053,-0.013715269044041634
1773047962054022100,6.157022216796875,0.008388951420783997,-0.0009321057004854083,-0.017976323142647743
1773047962064001300,6.167001220703125,0.012650005519390106,0.01504684891551733,-0.008388951420783997
1773047962073976000,6.17697607421875,0.016911059617996216,-0.007323687430471182,-0.011584741994738579
1773047962083954700,6.18695458984375,0.020106852054595947,0.0033289489801973104,-0.017976323142647743
1773047962093929700,6.1969296875,0.02330264262855053,0.023568958044052124,-0.016911059617996216
1773047962103908000,6.206908203125,0.028628960251808167,-0.008388951420783997,-0.02649843320250511
1773047962113883600,6.216883544921875,0.0318247526884079,0.02143843099474907,-0.007323687430471182
1773047962123861800,6.22686181640625,0.032890014350414276,0.012916321866214275,-0.012650005519390106
1773047962133741800,6.236741943359375,0.037151068449020386,-0.0019973693415522575,-0.021172115579247475
1773047962143602200,6.246602294921875,0.037151068449020386,0.02889527566730976,0.0033289489801973104
1773047962153791200,6.256791259765625,0.041412122547626495,-0.0019973693415522575,-0.009454214945435524
1773047962163773200,6.266773193359375,0.04247738793492317,0.0342215932905674,0.007590003311634064
1773047962173745000,6.276744873046875,0.04247738793492317,0.02889527566730976,0.01078579481691122
1773047962183726000,6.28672607421875,0.03928159549832344,0.008655266836285591,0.0011984215816482902
1773047962193698800,6.29669873046875,0.03395527973771095,0.03209106624126434,-0.005193160381168127
1773047962203679000,6.306678955078125,0.02649843320250511,0.05020054802298546,0.01504684891551733
1773047962213559000,6.31655908203125,0.025433169677853584,-0.012650005519390106,-0.014780532568693161
1773047962223419000,6.3264189453125,0.016911059617996216,0.04061317816376686,0.009720530360937119
1773047962233606400,6.3366064453125,0.011584741994738579,0.019307903945446014,-0.005193160381168127
1773047962243589600,6.346589599609375,0.010519478470087051,0.02569948509335518,0.0022636852227151394
1773047962253560300,6.356560302734375,0.004127896390855312,0.02996053919196129,0.01078579481691122
1773047962263542300,6.366542236328125,0.003062632866203785,-0.0009321057004854083,0.006524739786982536
1773047962273514200,6.37651416015625,-0.006524739786982536,0.01504684891551733,-0.003062632866203785
1773047962283495200,6.3864951171875,-0.007590003311634064,0.02463422156870365,0.009720530360937119
1773047962293468200,6.39646826171875,-0.005459476262331009,-0.03928159549832344,-0.004127896390855312
1773047962303448300,6.4064482421875,-0.013981585390865803,-0.013715269044041634,-0.017976323142647743
1773047962313421800,6.416421875,-0.012916321866214275,-0.02649843320250511,-0.016911059617996216
1773047962323401500,6.4264013671875,-0.008655266836285591,-0.041412122547626495,-0.013715269044041634
1773047962333375700,6.436375732421875,-0.013981585390865803,-0.05206476151943207,-0.03928159549832344
1773047962343355000,6.44635498046875,-0.007590003311634064,-0.014780532568693161,-0.005193160381168127
1773047962353329700,6.45632958984375,-0.0033289489801973104,-0.0691089779138565,-0.017976323142647743
1773047962363308300,6.466308349609375,-0.0022636852227151394,-0.03928159549832344,-0.024367906153202057
1773047962373283600,6.47628369140625,0.0019973693415522575,-0.029694223776459694,-0.0009321057004854083
1773047962383261700,6.48626171875,0.009454214945435524,-0.07337003201246262,-0.02649843320250511
1773047962393237200,6.4962373046875,0.0062584239058196545,-0.02756369672715664,-0.012650005519390106
1773047962403215400,6.50621533203125,0.014780532568693161,-0.048868969082832336,-0.009454214945435524
1773047962413191200,6.516191162109375,0.01904158666729927,-0.03608580678701401,-0.010519478470087051
1773047962423169000,6.5261689453125,0.020106852054595947,-0.01584579609334469,0.0011984215816482902
1773047962433145000,6.53614501953125,0.024367906153202057,-0.04247738793492317,-0.012650005519390106
1773047962443122700,6.546122802734375,0.020106852054595947,0.023568958044052124,-0.010519478470087051
1773047962453098800,6.5560986328125,0.025433169677853584,-0.04354264959692955,-0.029694223776459694
1773047962463076400,6.566076416015625,0.025433169677853584,0.02143843099474907,-0.021172115579247475
1773047962473052700,6.576052734375,0.01904158666729927,-0.037151068449020386,-0.05419528856873512
1773047962483030000,6.586030029296875,0.024367906153202057,0.019307903945446014,-0.02756369672715664
1773047962493006600,6.596006591796875,0.020106852054595947,-0.021172115579247475,-0.0456731803715229
1773047962502984000,6.60598388671875,0.016911059617996216,0.011851058341562748,-0.03502054139971733
1773047962512960300,6.615960205078125,0.017976323142647743,-0.013715269044041634,-0.041412122547626495
1773047962522937600,6.6259375,0.012650005519390106,0.01504684891551733,-0.03821633383631706
1773047962532914200,6.6359140625,0.012650005519390106,0.008655266836285591,-0.03502054139971733
1773047962542891300,6.645891357421875,0.011584741994738579,0.005459476262331009,-0.02330264262855053
1773047962552868000,6.6558681640625,0.008388951420783997,0.007590003311634064,-0.017976323142647743
1773047962562845200,6.66584521484375,0.007323687430471182,0.01717737689614296,-0.003062632866203785
1773047962572822000,6.675822021484375,0.005193160381168127,0.012916321866214275,-0.010519478470087051
1773047962582798800,6.685798828125,0.0019973693415522575,0.012916321866214275,-0.005193160381168127
1773047962592775700,6.695775634765625,0.0009321057004854083,0.011851058341562748,0.0011984215816482902
1773047962602752800,6.705752685546875,0.0009321057004854083,0.01717737689614296,-0.0009321057004854083
1773047962612632800,6.7156328125,-0.0033289489801973104,0.01717737689614296,0.020373167470097542
1773047962622493400,6.725493408203125,-0.005459476262331009,0.00013315795513335615,0.012916321866214275
1773047962632683300,6.735683349609375,-0.009720530360937119,0.008655266836285591,0.019307903945446014
1773047962642664400,6.74566455078125,-0.0022636852227151394,0.008655266836285591,0.035286858677864075
1773047962652637200,6.75563720703125,-0.0011984215816482902,-0.01584579609334469,0.022503694519400597
1773047962662617600,6.76561767578125,-0.0043942127376794815,0.01078579481691122,0.026764748618006706
1773047962672591000,6.775591064453125,-0.0022636852227151394,-0.009454214945435524,0.013981585390865803
1773047962682570800,6.78557080078125,0.003062632866203785,-0.010519478470087051,0.013981585390865803
1773047962692545000,6.795544921875,0.0019973693415522575,0.012916321866214275,0.022503694519400597
1773047962702524000,6.80552392578125,0.0062584239058196545,-0.029694223776459694,-0.004127896390855312
1773047962712404000,6.815404052734375,0.004127896390855312,0.02569948509335518,0.013981585390865803
1773047962722264300,6.825264404296875,0.012650005519390106,-0.037151068449020386,0.00013315795513335615
1773047962732258600,6.835258544921875,0.013715269044041634,0.005459476262331009,0.005459476262331009
1773047962742221300,6.84522119140625,0.011584741994738579,-0.016911059617996216,0.0011984215816482902
1773047962752406300,6.85540625,0.017976323142647743,-0.02756369672715664,-0.0019973693415522575
1773047962762391600,6.8653916015625,0.016911059617996216,0.00013315795513335615,0.020373167470097542
1773047962772360200,6.875360107421875,0.01904158666729927,-0.037151068449020386,0.006524739786982536
1773047962782344000,6.885343994140625,0.020106852054595947,-0.003062632866203785,0.018242640420794487
1773047962792313900,6.89531396484375,0.022237379103899002,-0.017976323142647743,0.018242640420794487
1773047962802296300,6.90529638671875,0.02330264262855053,-0.013715269044041634,0.023568958044052124
1773047962812267800,6.915267822265625,0.01584579609334469,0.009720530360937119,0.02569948509335518
1773047962822249200,6.925249267578125,0.01584579609334469,-0.010519478470087051,0.009720530360937119
1773047962832221700,6.9352216796875,0.014780532568693161,0.011851058341562748,0.011851058341562748
1773047962842202000,6.9452021484375,0.008388951420783997,0.011851058341562748,0.009720530360937119
1773047962852175600,6.955175537109375,0.0062584239058196545,-0.024367906153202057,-0.010519478470087051
1773047962862155300,6.9651552734375,0.0019973693415522575,-0.016911059617996216,-0.011584741994738579
1773047962872129500,6.975129638671875,-0.00013315795513335615,-0.02756369672715664,-0.020106852054595947
1773047962882108700,6.985108642578125,-0.0043942127376794815,-0.029694223776459694,-0.032890014350414276
1773047962892083500,6.99508349609375,-0.006524739786982536,-0.004127896390855312,-0.028628960251808167
1773047962902062000,7.00506201171875,-0.0011984215816482902,-0.025433169677853584,-0.03395527973771095
1773047962912037000,7.015037109375,-0.0022636852227151394,0.005459476262331009,-0.03395527973771095
1773047962922015500,7.025015380859375,-0.0022636852227151394,0.02996053919196129,-0.014780532568693161
1773047962931991000,7.034990966796875,-0.0011984215816482902,-0.04780370742082596,-0.0456731803715229
1773047962941969200,7.04496923828125,-0.0011984215816482902,0.02143843099474907,-0.0062584239058196545
1773047962951945000,7.054945068359375,-0.0022636852227151394,-0.029694223776459694,-0.016911059617996216
1773047962961922600,7.064922607421875,0.0019973693415522575,-0.03608580678701401,-0.007323687430471182
1773047962971899000,7.07489892578125,-0.00013315795513335615,-0.004127896390855312,0.008655266836285591
1773047962981876500,7.08487646484375,0.005193160381168127,-0.0318247526884079,0.0011984215816482902
1773047962991852500,7.0948525390625,0.004127896390855312,-0.003062632866203785,0.019307903945446014
1773047963001830100,7.104830078125,0.003062632866203785,-0.0318247526884079,0.01078579481691122
1773047963011806500,7.114806396484375,0.004127896390855312,-0.022237379103899002,0.007590003311634064
1773047963021783800,7.12478369140625,0.005193160381168127,0.01504684891551733,0.026764748618006706
1773047963031760400,7.134760498046875,0.007323687430471182,-0.061652131378650665,0.01078579481691122
1773047963041737500,7.144737548828125,0.007323687430471182,-0.004127896390855312,0.02569948509335518
1773047963051617500,7.154617431640625,0.005193160381168127,-0.053130023181438446,-0.005193160381168127
1773047963061435600,7.164435546875,0.004127896390855312,0.008655266836285591,-0.004127896390855312
1773047963071615700,7.17461572265625,0.0062584239058196545,-0.03502054139971733,-0.014780532568693161
1773047963081650200,7.184650146484375,0.0062584239058196545,-0.0062584239058196545,-0.01904158666729927
1773047963091621600,7.19462158203125,0.0062584239058196545,-0.0062584239058196545,-0.032890014350414276
1773047963101603000,7.20460302734375,0.010519478470087051,0.02996053919196129,-0.025433169677853584
1773047963111575600,7.214575439453125,0.012650005519390106,0.006524739786982536,-0.04460791498422623
1773047963121556000,7.224555908203125,0.011584741994738579,0.023568958044052124,-0.02756369672715664
1773047963131435800,7.234435791015625,0.010519478470087051,0.020373167470097542,-0.032890014350414276
1773047963141253400,7.24425341796875,0.013715269044041634,0.016112113371491432,-0.025433169677853584
1773047963151433500,7.25443359375,0.012650005519390106,0.013981585390865803,-0.02649843320250511
1773047963161467400,7.26446728515625,0.008388951420783997,0.035286858677864075,-0.021172115579247475
1773047963171437000,7.27443701171875,0.011584741994738579,0.0033289489801973104,-0.014780532568693161
1773047963181419800,7.284419677734375,0.017976323142647743,0.016112113371491432,0.008655266836285591
1773047963191391000,7.294390869140625,0.013715269044041634,0.02889527566730976,0.00013315795513335615
1773047963201372400,7.304372314453125,0.011584741994738579,0.005459476262331009,-0.004127896390855312
1773047963211344600,7.3143447265625,0.013715269044041634,0.018242640420794487,0.005459476262331009
1773047963221325300,7.3243251953125,0.013715269044041634,-0.007323687430471182,-0.010519478470087051
1773047963241278500,7.344278564453125,0.0019973693415522575,-0.004127896390855312,-0.020106852054595947
1773047963251252500,7.35425244140625,0.003062632866203785,-0.0062584239058196545,-0.017976323142647743
1773047963261231900,7.36423193359375,-0.0033289489801973104,0.04061317816376686,-0.007323687430471182
1773047963271206400,7.374206298828125,0.0019973693415522575,-0.028628960251808167,-0.024367906153202057
1773047963281185300,7.384185302734375,-0.0033289489801973104,0.03635212033987045,0.009720530360937119
1773047963291160300,7.394160400390625,-0.005459476262331009,-0.053130023181438446,-0.05206476151943207
1773047963301138700,7.404138671875,-0.0022636852227151394,0.03315633162856102,-0.017976323142647743
1773047963311114000,7.414114013671875,0.0009321057004854083,-0.07656582444906235,-0.061652131378650665
1773047963321092000,7.424092041015625,-0.0033289489801973104,-0.011584741994738579,-0.041412122547626495
1773047963331106800,7.43410693359375,-0.0043942127376794815,-0.020106852054595947,-0.04354264959692955
1773047963341088500,7.444088623046875,-0.0011984215816482902,-0.02756369672715664,-0.03502054139971733
1773047963351021800,7.454021728515625,0.003062632866203785,-0.003062632866203785,-0.020106852054595947
1773047963360998700,7.46399853515625,0.0062584239058196545,-0.01904158666729927,-0.007323687430471182
1773047963370975700,7.473975830078125,0.005193160381168127,-0.0062584239058196545,0.013981585390865803
1773047963380952600,7.48395263671875,0.0019973693415522575,-0.014780532568693161,0.008655266836285591
1773047963390929400,7.493929443359375,0.004127896390855312,-0.011584741994738579,0.012916321866214275
1773047963400906500,7.503906494140625,0.010519478470087051,-0.02756369672715664,0.01504684891551733
1773047963410883300,7.51388330078125,0.011584741994738579,0.006524739786982536,0.03635212033987045
1773047963420860200,7.523860107421875,0.011584741994738579,-0.020106852054595947,0.02463422156870365
1773047963430837200,7.533837158203125,0.009454214945435524,0.022503694519400597,0.03848264738917351
1773047963440814000,7.54381396484375,0.005193160381168127,-0.011584741994738579,0.023568958044052124
1773047963450791000,7.553791015625,0.004127896390855312,0.01504684891551733,0.023568958044052124
1773047963460768000,7.56376806640625,0.003062632866203785,-0.01584579609334469,0.006524739786982536
1773047963470744800,7.573744873046875,0.003062632866203785,0.027830012142658234,0.018242640420794487
1773047963480721700,7.5837216796875,-0.0022636852227151394,-0.024367906153202057,-0.004127896390855312
1773047963490698800,7.59369873046875,-0.005459476262331009,0.02143843099474907,0.0022636852227151394
1773047963500675600,7.603675537109375,-0.0022636852227151394,-0.029694223776459694,-0.011584741994738579
1773047963510652400,7.61365234375,-0.0043942127376794815,0.012916321866214275,0.0011984215816482902
1773047963520629500,7.62362939453125,-0.006524739786982536,-0.009454214945435524,-0.0009321057004854083
1773047963530606300,7.6336064453125,-0.007590003311634064,0.008655266836285591,0.0033289489801973104
1773047963540583400,7.64358349609375,-0.006524739786982536,0.023568958044052124,0.019307903945446014
1773047963550560300,7.653560302734375,-0.0011984215816482902,-0.014780532568693161,0.0043942127376794815
1773047963560537000,7.663537109375,0.0019973693415522575,0.027830012142658234,0.02463422156870365
1773047963570514200,7.67351416015625,0.0009321057004854083,-0.011584741994738579,0.020373167470097542
1773047963580491000,7.683490966796875,0.0009321057004854083,0.019307903945446014,0.02569948509335518
1773047963590467800,7.6934677734375,-0.00013315795513335615,-0.007323687430471182,0.020373167470097542
1773047963600445000,7.70344482421875,0.004127896390855312,0.008655266836285591,0.035286858677864075
1773047963610324700,7.71332470703125,0.009454214945435524,-0.0318247526884079,0.009720530360937119
1773047963620143000,7.72314306640625,0.004127896390855312,0.0342215932905674,0.01504684891551733
1773047963630323000,7.733322998046875,0.007323687430471182,-0.01584579609334469,-0.0019973693415522575
1773047963640357600,7.743357666015625,0.007323687430471182,0.03635212033987045,0.016112113371491432
1773047963650329300,7.753329345703125,0.0062584239058196545,-0.024367906153202057,-0.005193160381168127
1773047963660310300,7.763310302734375,0.007323687430471182,0.012916321866214275,-0.003062632866203785
1773047963670283300,7.773283203125,0.007323687430471182,0.013981585390865803,0.0043942127376794815
1773047963680263400,7.783263427734375,0.008388951420783997,-0.02649843320250511,-0.01584579609334469
1773047963690237000,7.79323681640625,0.007323687430471182,0.009720530360937119,0.005459476262331009
1773047963700216600,7.803216552734375,0.005193160381168127,-0.03395527973771095,-0.009454214945435524
1773047963710190800,7.81319091796875,-0.00013315795513335615,0.009720530360937119,0.01078579481691122
1773047963720170000,7.823169921875,-0.0011984215816482902,-0.04354264959692955,0.00013315795513335615
1773047963730144800,7.833144775390625,0.0009321057004854083,0.012916321866214275,0.03741738572716713
1773047963740123400,7.843123291015625,0.0009321057004854083,-0.061652131378650665,0.012916321866214275
1773047963750098400,7.853098388671875,-0.0033289489801973104,0.013981585390865803,0.03848264738917351
1773047963760076800,7.863076904296875,-0.007590003311634064,-0.04673844203352928,0.011851058341562748
1773047963770052400,7.87305224609375,-0.006524739786982536,-0.005193160381168127,0.02996053919196129
1773047963780030500,7.883030517578125,-0.009720530360937119,-0.04780370742082596,0.020373167470097542
1773047963790006300,7.89300634765625,-0.008655266836285591,-0.012650005519390106,0.03848264738917351
1773047963799983900,7.90298388671875,-0.007590003311634064,-0.037151068449020386,0.04061317816376686
1773047963809960200,7.912960205078125,-0.007590003311634064,-0.024367906153202057,0.047004759311676025
1773047963819937800,7.922937744140625,-0.005459476262331009,-0.022237379103899002,0.051265813410282135
1773047963829913900,7.932913818359375,-0.0033289489801973104,-0.008388951420783997,0.05659212917089462
1773047963839891500,7.942891357421875,-0.0033289489801973104,-0.020106852054595947,0.043808966875076294
1773047963849867800,7.95286767578125,0.0019973693415522575,-0.0019973693415522575,0.048070020973682404
1773047963859845000,7.96284521484375,0.004127896390855312,0.0043942127376794815,0.039547912776470184
1773047963869821700,7.97282177734375,0.010519478470087051,-0.0019973693415522575,0.03741738572716713
1773047963879798800,7.982798828125,0.011584741994738579,0.005459476262331009,0.039547912776470184
1773047963889775400,7.992775390625,0.011584741994738579,0.0022636852227151394,0.026764748618006706
1773047963899752700,8.002752685546875,0.013715269044041634,0.008655266836285591,0.0342215932905674
1773047963909729300,8.012729248046876,0.01904158666729927,-0.005193160381168127,0.022503694519400597
1773047963919706400,8.022706298828124,0.017976323142647743,0.008655266836285591,0.02463422156870365
1773047963929683200,8.03268310546875,0.016911059617996216,-0.0019973693415522575,0.02143843099474907
1773047963939660300,8.042660400390625,0.017976323142647743,0.0022636852227151394,0.01717737689614296
1773047963949637000,8.05263720703125,0.01904158666729927,0.009720530360937119,0.018242640420794487
1773047963959614000,8.062614013671874,0.01904158666729927,0.006524739786982536,0.013981585390865803
1773047963969590800,8.0725908203125,0.01904158666729927,0.007590003311634064,0.01504684891551733
1773047963979567900,8.08256787109375,0.012650005519390106,0.02143843099474907,0.0011984215816482902
1773047963989544700,8.092544677734375,0.010519478470087051,0.01504684891551733,0.005459476262331009
1773047963999521500,8.102521484375,0.008388951420783997,0.01078579481691122,0.0022636852227151394
1773047964009498600,8.11249853515625,-0.0011984215816482902,0.035286858677864075,0.012916321866214275
1773047964019475500,8.122475341796875,-0.00013315795513335615,0.012916321866214275,0.008655266836285591
1773047964029452300,8.132452392578125,-0.0033289489801973104,-0.008388951420783997,0.01078579481691122
1773047964039429400,8.142429443359376,-0.008655266836285591,0.006524739786982536,0.006524739786982536
1773047964049406200,8.15240625,-0.007590003311634064,0.031025802716612816,0.018242640420794487
1773047964059383000,8.162383056640625,-0.008655266836285591,0.01717737689614296,0.009720530360937119
1773047964069360000,8.172360107421875,-0.009720530360937119,0.01717737689614296,-0.012650005519390106
1773047964079337000,8.1823369140625,-0.009720530360937119,0.06831002980470657,-0.009454214945435524
1773047964089314800,8.192314697265624,-0.0043942127376794815,0.008655266836285591,-0.021172115579247475
1773047964099291600,8.202291748046875,-0.009720530360937119,0.07896266877651215,-0.013715269044041634
1773047964109268500,8.2122685546875,-0.012916321866214275,-0.014780532568693161,-0.04460791498422623
1773047964119245600,8.22224560546875,-0.007590003311634064,0.03209106624126434,-0.010519478470087051
1773047964129222400,8.232222412109374,-0.005459476262331009,0.006524739786982536,-0.0318247526884079
1773047964139199500,8.242199462890625,-0.007590003311634064,0.007590003311634064,-0.04034686088562012
1773047964149176300,8.25217626953125,0.0009321057004854083,0.006524739786982536,-0.03502054139971733
1773047964159153200,8.262153076171876,0.004127896390855312,-0.02330264262855053,-0.0456731803715229
1773047964169130000,8.2721298828125,-0.0022636852227151394,0.043808966875076294,-0.04354264959692955
1773047964179107000,8.282107177734375,0.003062632866203785,-0.01584579609334469,-0.04354264959692955
1773047964189084000,8.292083984375,0.008388951420783997,-0.01904158666729927,-0.03821633383631706
1773047964199061000,8.30206103515625,0.007323687430471182,0.011851058341562748,-0.025433169677853584
1773047964209037800,8.312037841796876,0.005193160381168127,0.00013315795513335615,-0.032890014350414276
1773047964219014700,8.3220146484375,0.007323687430471182,-0.01904158666729927,-0.01584579609334469
1773047964228991700,8.33199169921875,0.0062584239058196545,-0.01904158666729927,-0.02330264262855053
1773047964238968600,8.341968505859375,0.007323687430471182,0.0043942127376794815,-0.010519478470087051
1773047964248945400,8.3519453125,0.008388951420783997,-0.032890014350414276,-0.01904158666729927
1773047964258922500,8.361922607421874,0.005193160381168127,-0.008388951420783997,-0.016911059617996216
1773047964268899300,8.3718994140625,0.004127896390855312,-0.007323687430471182,-0.020106852054595947
1773047964278876200,8.381876220703125,0.0062584239058196545,-0.0062584239058196545,-0.01584579609334469
1773047964288853200,8.391853271484376,0.0019973693415522575,-0.012650005519390106,-0.013715269044041634
1773047964298830000,8.401830078125,0.004127896390855312,-0.010519478470087051,-0.017976323142647743
1773047964308807000,8.411806884765625,0.0019973693415522575,-0.017976323142647743,-0.020106852054595947
1773047964318784000,8.421783935546875,0.005193160381168127,-0.02756369672715664,-0.0062584239058196545
1773047964328760800,8.4317607421875,0.005193160381168127,-0.004127896390855312,-0.0019973693415522575
1773047964338737700,8.441737548828126,-0.00013315795513335615,-0.04354264959692955,-0.020106852054595947
1773047964348714800,8.45171484375,-0.0022636852227151394,0.02569948509335518,0.005459476262331009
1773047964358691600,8.461691650390625,0.0019973693415522575,-0.037151068449020386,-0.005193160381168127
1773047964368668400,8.47166845703125,-0.0043942127376794815,0.013981585390865803,0.011851058341562748
1773047964378645500,8.4816455078125,-0.0022636852227151394,0.0022636852227151394,0.008655266836285591
1773047964388525300,8.491525390625,-0.0033289489801973104,-0.0009321057004854083,0.01078579481691122
1773047964398405400,8.5014052734375,-0.0043942127376794815,0.016112113371491432,0.01078579481691122
1773047964408576000,8.511575927734375,-0.005459476262331009,0.005459476262331009,0.00013315795513335615
1773047964418560000,8.52156005859375,-0.0022636852227151394,0.01078579481691122,0.006524739786982536
1773047964428491000,8.531490966796875,0.003062632866203785,-0.013715269044041634,0.0033289489801973104
1773047964438469600,8.5414697265625,0.0009321057004854083,0.04593949392437935,0.011851058341562748
1773047964448444700,8.551444580078124,0.003062632866203785,-0.005193160381168127,-0.003062632866203785
1773047964458423300,8.56142333984375,0.004127896390855312,0.019307903945446014,0.011851058341562748
1773047964468437500,8.5714375,0.003062632866203785,0.009720530360937119,0.0033289489801973104
1773047964478419500,8.58141943359375,0.004127896390855312,0.01504684891551733,0.01717737689614296
1773047964488275000,8.59127490234375,-0.00013315795513335615,0.01504684891551733,0.018242640420794487
1773047964498244000,8.601244140625,0.003062632866203785,0.0043942127376794815,0.013981585390865803
1773047964508306200,8.61130615234375,0.009454214945435524,0.01717737689614296,0.018242640420794487
1773047964518285000,8.62128515625,0.009454214945435524,0.03209106624126434,0.02463422156870365
1773047964528299000,8.631299072265625,0.009454214945435524,0.0011984215816482902,0.011851058341562748
1773047964538281200,8.64128125,0.008388951420783997,0.03848264738917351,0.023568958044052124
1773047964548214000,8.651214111328125,0.004127896390855312,0.020373167470097542,0.011851058341562748
1773047964558191400,8.66119140625,-0.0011984215816482902,0.016112113371491432,0.011851058341562748
1773047964568168000,8.67116796875,-0.00013315795513335615,0.012916321866214275,0.023568958044052124
1773047964578145000,8.68114501953125,-0.006524739786982536,0.0033289489801973104,0.020373167470097542
1773047964588082700,8.691082763671876,-0.012916321866214275,0.013981585390865803,0.023568958044052124
1773047964598056200,8.70105615234375,-0.013981585390865803,-0.009454214945435524,0.02996053919196129
1773047964607997700,8.710997802734376,-0.008655266836285591,0.008655266836285591,0.04167843982577324
1773047964617967900,8.7209677734375,-0.011851058341562748,-0.010519478470087051,0.0342215932905674
1773047964627912700,8.73091259765625,-0.009720530360937119,0.013981585390865803,0.042743705213069916
1773047964637880300,8.74088037109375,-0.008655266836285591,-0.01584579609334469,0.05339634045958519
1773047964647789000,8.7507890625,-0.011851058341562748,-0.014780532568693161,0.0342215932905674
1773047964657750800,8.760750732421876,-0.013981585390865803,0.013981585390865803,0.05446160212159157
1773047964667704000,8.7707041015625,-0.006524739786982536,-0.04780370742082596,0.043808966875076294
1773047964677665000,8.7806650390625,-0.01078579481691122,-0.0318247526884079,0.03741738572716713
1773047964687657700,8.79065771484375,-0.007590003311634064,-0.007323687430471182,0.02569948509335518
1773047964697621800,8.800621826171875,-0.006524739786982536,-0.03502054139971733,0.011851058341562748
1773047964707572700,8.81057275390625,-0.0011984215816482902,-0.02756369672715664,0.007590003311634064
1773047964717535500,8.820535400390625,-0.005459476262331009,-0.05099949613213539,-0.013715269044041634
1773047964727487700,8.83048779296875,-0.006524739786982536,0.005459476262331009,-0.009454214945435524
1773047964737449500,8.840449462890625,-0.0022636852227151394,-0.04460791498422623,-0.020106852054595947
1773047964747325400,8.850325439453124,-0.0043942127376794815,0.011851058341562748,-0.01584579609334469
1773047964757278500,8.860278564453125,-0.00013315795513335615,-0.04034686088562012,-0.02649843320250511
1773047964767278800,8.87027880859375,0.005193160381168127,-0.024367906153202057,-0.008388951420783997
1773047964777236700,8.88023681640625,0.0009321057004854083,-0.057391077280044556,-0.032890014350414276
1773047964787193900,8.89019384765625,-0.0033289489801973104,-0.01584579609334469,-0.03608580678701401
1773047964797151500,8.9001513671875,0.0009321057004854083,-0.07976161688566208,-0.04673844203352928
1773047964807108900,8.91010888671875,-0.0043942127376794815,-0.03821633383631706,-0.02756369672715664
1773047964817066500,8.92006640625,-0.007590003311634064,-0.05099949613213539,-0.03928159549832344
1773047964826985200,8.929985107421874,-0.016112113371491432,-0.003062632866203785,-0.013715269044041634
1773047964836939000,8.93993896484375,-0.013981585390865803,-0.029694223776459694,-0.0009321057004854083
1773047964846900000,8.94989990234375,-0.011851058341562748,-0.04780370742082596,-0.003062632866203785
1773047964856854500,8.9598544921875,-0.016112113371491432,-0.0062584239058196545,0.012916321866214275
1773047964866853400,8.969853271484375,-0.020373167470097542,-0.03821633383631706,-0.017976323142647743
1773047964876812500,8.9798125,-0.022503694519400597,-0.04780370742082596,-0.028628960251808167
1773047964886992400,8.989992431640625,-0.02569948509335518,-0.04673844203352928,-0.032890014350414276
1773047964897172500,9.00017236328125,-0.026764748618006706,-0.07017423957586288,-0.04993423447012901
1773047964907352300,9.010352294921875,-0.03209106624126434,-0.016911059617996216,-0.04673844203352928
1773047964917417500,9.02041748046875,-0.027830012142658234,-0.022237379103899002,-0.04247738793492317
1773047964927375400,9.030375244140625,-0.02463422156870365,-0.0456731803715229,-0.053130023181438446
1773047964937367600,9.040367431640625,-0.02996053919196129,0.04913528636097908,-0.03608580678701401
1773047964947329300,9.050329345703124,-0.02143843099474907,-0.06378266215324402,-0.08402267098426819
1773047964957318400,9.060318359375,-0.023568958044052124,0.07044056057929993,-0.03608580678701401
1773047964967283000,9.070282958984375,-0.012916321866214275,-0.04354264959692955,-0.08082687854766846
1773047964977270000,9.08027001953125,-0.006524739786982536,-0.004127896390855312,-0.05206476151943207
1773047964987236900,9.09023681640625,-0.0033289489801973104,-0.007323687430471182,-0.053130023181438446
1773047964997222000,9.100221923828125,-0.0033289489801973104,-0.0019973693415522575,-0.057391077280044556
1773047965007190800,9.110190673828125,-0.0011984215816482902,0.04593949392437935,-0.04673844203352928
1773047965017174000,9.120174072265625,0.003062632866203785,-0.003062632866203785,-0.0552605502307415
1773047965027144700,9.130144775390624,0.0009321057004854083,0.06191844865679741,-0.03608580678701401
1773047965037126700,9.140126708984376,0.0009321057004854083,0.051265813410282135,-0.04460791498422623
1773047965047098600,9.1500986328125,0.005193160381168127,0.05233107507228851,-0.02756369672715664
1773047965057079600,9.16007958984375,0.0062584239058196545,0.018242640420794487,-0.028628960251808167
1773047965067052300,9.17005224609375,0.0009321057004854083,0.02569948509335518,-0.021172115579247475
1773047965077032400,9.180032470703125,-0.0043942127376794815,0.043808966875076294,-0.020106852054595947
1773047965087006200,9.190006103515625,-0.007590003311634064,0.022503694519400597,-0.021172115579247475
1773047965096985900,9.19998583984375,-0.011851058341562748,0.02996053919196129,-0.013715269044041634
1773047965106960100,9.209960205078126,-0.009720530360937119,0.02889527566730976,0.0011984215816482902
1773047965116939000,9.21993896484375,-0.007590003311634064,0.006524739786982536,0.013981585390865803
1773047965126913800,9.229913818359375,-0.005459476262331009,0.04167843982577324,0.023568958044052124
1773047965136892400,9.239892333984375,-0.01504684891551733,0.05020054802298546,0.02996053919196129
1773047965146867700,9.24986767578125,-0.01504684891551733,0.0043942127376794815,0.02569948509335518
1773047965156845800,9.259845703125,-0.019307903945446014,0.005459476262331009,0.012916321866214275
1773047965166726000,9.269725830078125,-0.02569948509335518,0.01717737689614296,0.009720530360937119
1773047965176543700,9.279543701171875,-0.02996053919196129,0.02569948509335518,0.0043942127376794815
1773047965186723800,9.289723876953126,-0.026764748618006706,-0.004127896390855312,0.009720530360937119
1773047965196758300,9.29975830078125,-0.02569948509335518,0.007590003311634064,0.008655266836285591
1773047965206638000,9.30963818359375,-0.02143843099474907,0.0033289489801973104,0.0043942127376794815
1773047965216455000,9.319454833984375,-0.02143843099474907,0.006524739786982536,0.0043942127376794815
1773047965226635000,9.329635009765624,-0.019307903945446014,0.02889527566730976,0.007590003311634064
1773047965236668700,9.339668701171876,-0.016112113371491432,-0.013715269044041634,-0.01584579609334469
1773047965246636500,9.349636474609374,-0.01078579481691122,0.011851058341562748,-0.005193160381168127
1773047965256620800,9.359620849609374,-0.0033289489801973104,-0.03821633383631706,-0.02330264262855053
1773047965266590500,9.369590576171875,-0.006524739786982536,-0.0009321057004854083,-0.010519478470087051
1773047965276573200,9.3795732421875,-0.0022636852227151394,-0.028628960251808167,-0.02649843320250511
1773047965286544400,9.38954443359375,-0.0022636852227151394,-0.024367906153202057,-0.010519478470087051
1773047965296526000,9.399526123046876,-0.0022636852227151394,-0.04673844203352928,-0.02330264262855053
1773047965306406000,9.409406005859376,-0.005459476262331009,-0.025433169677853584,-0.004127896390855312
1773047965316223000,9.419222900390626,-0.005459476262331009,-0.05632581561803818,-0.022237379103899002
1773047965326403000,9.429403076171875,-0.009720530360937119,-0.013715269044041634,0.0043942127376794815
1773047965336437000,9.43943701171875,-0.009720530360937119,-0.05419528856873512,0.00013315795513335615
1773047965346406000,9.449406005859375,-0.008655266836285591,-0.011584741994738579,0.023568958044052124
1773047965356389000,9.45938916015625,-0.008655266836285591,-0.024367906153202057,0.02143843099474907
1773047965366359600,9.469359619140626,-0.008655266836285591,0.007590003311634064,0.03209106624126434
1773047965376341800,9.479341796875,-0.018242640420794487,0.023568958044052124,0.023568958044052124
1773047965386313500,9.4893134765625,-0.01717737689614296,-0.011584741994738579,0.022503694519400597
1773047965396294700,9.499294677734374,-0.01717737689614296,0.035286858677864075,0.04913528636097908
1773047965406267400,9.509267333984376,-0.01717737689614296,-0.016911059617996216,0.016112113371491432
1773047965416247600,9.51924755859375,-0.016112113371491432,0.0022636852227151394,0.020373167470097542
1773047965426221000,9.529220947265625,-0.022503694519400597,0.00013315795513335615,0.042743705213069916
1773047965436200700,9.53920068359375,-0.019307903945446014,-0.007323687430471182,0.02143843099474907
1773047965446175000,9.549175048828126,-0.01717737689614296,0.007590003311634064,0.039547912776470184
1773047965456154000,9.559154052734375,-0.01717737689614296,0.01717737689614296,0.035286858677864075
1773047965466034200,9.5690341796875,-0.006524739786982536,0.04167843982577324,0.03209106624126434
1773047965475851800,9.578851806640625,-0.0043942127376794815,0.039547912776470184,0.02143843099474907
1773047965486032000,9.589031982421876,-0.0011984215816482902,0.022503694519400597,0.006524739786982536
1773047965496066000,9.599066162109375,-0.00013315795513335615,-0.009454214945435524,-0.024367906153202057
1773047965506036500,9.609036376953124,-0.0022636852227151394,0.022503694519400597,-0.03608580678701401
1773047965516018400,9.619018310546876,0.0009321057004854083,-0.003062632866203785,-0.03928159549832344
1773047965525990100,9.628990234375,-0.00013315795513335615,0.0033289489801973104,-0.04354264959692955
1773047965535971300,9.638971435546875,-0.0011984215816482902,0.035286858677864075,-0.029694223776459694
1773047965545944000,9.648944091796874,0.0019973693415522575,0.03315633162856102,-0.020106852054595947
1773047965555924200,9.65892431640625,0.010519478470087051,0.027830012142658234,-0.016911059617996216
1773047965565898000,9.66889794921875,0.008388951420783997,0.06404897570610046,-0.013715269044041634
1773047965575877400,9.67887744140625,0.0019973693415522575,0.06937529146671295,-0.020106852054595947
1773047965585851600,9.6888515625,0.003062632866203785,0.0033289489801973104,-0.02649843320250511
1773047965595830800,9.698830810546875,-0.0043942127376794815,0.02889527566730976,-0.021172115579247475
1773047965605710800,9.7087109375,-0.008655266836285591,0.04593949392437935,-0.010519478470087051
1773047965615528400,9.718528564453125,-0.006524739786982536,-0.025433169677853584,-0.020106852054595947
1773047965625708500,9.72870849609375,-0.005459476262331009,0.03315633162856102,0.01504684891551733
1773047965635742700,9.73874267578125,-0.0022636852227151394,0.03315633162856102,-0.003062632866203785
1773047965645713200,9.748713134765625,-0.0043942127376794815,0.03741738572716713,-0.0062584239058196545
1773047965655695400,9.7586953125,-0.007590003311634064,0.043808966875076294,-0.028628960251808167
1773047965665666800,9.768666748046876,-0.007590003311634064,0.06191844865679741,-0.03821633383631706
1773047965675648000,9.77864794921875,-0.008655266836285591,0.051265813410282135,-0.03502054139971733
1773047965685620700,9.788620849609375,-0.0043942127376794815,0.02143843099474907,-0.03075948730111122
1773047965695601200,9.79860107421875,0.04673844203352928,0.048070020973682404,-0.05419528856873512
1773047965705481000,9.80848095703125,0.05419528856873512,0.1597895473241806,-0.025433169677853584
1773047965715298600,9.818298583984374,-0.10346373170614243,-0.0691089779138565,-0.004127896390855312
1773047965725478400,9.828478515625,-0.09281109273433685,-0.130894273519516,-0.032890014350414276
1773047965735512600,9.8385126953125,0.14993585646152496,0.21092219650745392,-0.0318247526884079
1773047965745482200,9.848482177734375,0.11158636957406998,0.29401275515556335,-0.03608580678701401
1773047965755465000,9.85846484375,-0.04167843982577324,0.07257108390331268,0.022503694519400597
1773047965765436000,9.868435791015624,-0.09174583107233047,-0.09467530250549316,0.019307903945446014
1773047965775417600,9.87841748046875,0.007323687430471182,0.051265813410282135,-0.014780532568693161
1773047965785389800,9.888389892578125,-0.0022636852227151394,0.14913691580295563,0.022503694519400597
1773047965795370500,9.89837060546875,-0.020373167470097542,-0.03075948730111122,0.01504684891551733
1773047965805343700,9.90834375,-0.006524739786982536,-0.004127896390855312,0.02143843099474907
1773047965815323600,9.91832373046875,-0.006524739786982536,-0.0009321057004854083,0.04061317816376686
1773047965825297400,9.92829736328125,-0.0011984215816482902,0.019307903945446014,0.0576573945581913
1773047965835276800,9.93827685546875,-0.006524739786982536,0.020373167470097542,0.06191844865679741
1773047965845156900,9.948156982421875,-0.0043942127376794815,0.07470161467790604,0.07243792712688446
1773047965854974500,9.957974365234374,0.0019973693415522575,-0.005193160381168127,0.07137266546487808
1773047965865154300,9.968154296875,0.003062632866203785,0.02463422156870365,0.08735162019729614
1773047965875188500,9.9781884765625,-0.0022636852227151394,0.022503694519400597,0.06085318699479103
1773047965885158700,9.98815869140625,-0.0022636852227151394,0.0342215932905674,0.05339634045958519
1773047965895141000,9.99814111328125,-0.0011984215816482902,-0.0019973693415522575,0.04913528636097908
1773047965905112600,10.008112548828125,0.0009321057004854083,-0.02330264262855053,0.02996053919196129
1773047965915093800,10.01809375,-0.0011984215816482902,-0.025433169677853584,0.02996053919196129
1773047965925066500,10.02806640625,-0.007590003311634064,0.012916321866214275,0.031025802716612816
1773047965935047000,10.038046875,-0.007590003311634064,-0.041412122547626495,-0.0009321057004854083
1773047965945020400,10.0480205078125,-0.006524739786982536,0.03848264738917351,0.047004759311676025
1773047965955000000,10.058,-0.005459476262331009,-0.08082687854766846,0.02463422156870365
1773047965964974000,10.06797412109375,-0.01717737689614296,0.013981585390865803,0.031025802716612816
1773047965974953200,10.077953125,-0.1045289933681488,0.11611373722553253,0.059787921607494354
1773047965984928000,10.087927978515625,-0.04913528636097908,0.011851058341562748,0.04593949392437935
1773047965994906600,10.09790673828125,0.009454214945435524,-0.04034686088562012,0.03315633162856102
1773047966004882000,10.1078818359375,-0.023568958044052124,0.02463422156870365,0.013981585390865803
1773047966014860000,10.117860107421874,-0.06404897570610046,0.20133483409881592,0.043808966875076294
1773047966024740000,10.127739990234375,-0.043808966875076294,0.05659212917089462,0.01717737689614296
1773047966034558000,10.137557861328125,0.0019973693415522575,0.013981585390865803,0.007590003311634064
1773047966044738000,10.147738037109375,-0.00013315795513335615,-0.0062584239058196545,-0.0019973693415522575
1773047966054772200,10.157772216796875,-0.0022636852227151394,0.031025802716612816,0.022503694519400597
1773047966064743200,10.1677431640625,-0.007590003311634064,-0.012650005519390106,0.0033289489801973104
1773047966074724900,10.177724853515626,-0.005459476262331009,0.0672447681427002,0.012916321866214275
1773047966084696800,10.18769677734375,-0.0011984215816482902,0.00013315795513335615,0.018242640420794487
1773047966094677800,10.197677734375,0.0062584239058196545,-0.048868969082832336,0.018242640420794487
1773047966104557800,10.207557861328125,0.011584741994738579,0.09920267760753632,0.02569948509335518
1773047966114375200,10.217375244140625,-0.0043942127376794815,0.06404897570610046,0.012916321866214275
1773047966124371700,10.227371826171876,-0.02463422156870365,-0.017976323142647743,0.0342215932905674
1773047966134332700,10.237332763671875,-0.01717737689614296,-0.074435293674469,0.0011984215816482902
1773047966144512800,10.2475126953125,0.0062584239058196545,0.020373167470097542,0.00013315795513335615
1773047966154546000,10.2575458984375,-0.008655266836285591,0.035286858677864075,-0.0019973693415522575
1773047966164512000,10.267511962890625,-0.013981585390865803,-0.004127896390855312,-0.008388951420783997
1773047966174497500,10.27749755859375,-0.012916321866214275,-0.017976323142647743,-0.009454214945435524
1773047966184466000,10.2874658203125,-0.016112113371491432,0.0011984215816482902,0.01504684891551733
1773047966194449700,10.29744970703125,-0.020373167470097542,0.027830012142658234,0.016112113371491432
1773047966204419800,10.307419921875,-0.01504684891551733,-0.012650005519390106,0.011851058341562748
1773047966214402300,10.31740234375,-0.009720530360937119,0.02143843099474907,0.0342215932905674
1773047966224282000,10.3272822265625,-0.01078579481691122,-0.028628960251808167,-0.01904158666729927
1773047966244279300,10.347279296875,0.0009321057004854083,-0.0062584239058196545,-0.06697845458984375
1773047966254313000,10.35731298828125,-0.0043942127376794815,-0.01584579609334469,-0.09574057161808014
1773047966264281000,10.367281005859375,-0.00013315795513335615,0.005459476262331009,-0.08615319430828094
1773047966274265000,10.37726513671875,0.0062584239058196545,-0.05952160432934761,-0.0786963477730751
1773047966284235000,10.387235107421875,0.013715269044041634,0.020373167470097542,-0.057391077280044556
1773047966294217500,10.397217529296874,0.003062632866203785,0.04487423226237297,-0.05952160432934761
1773047966304189000,10.40718896484375,-0.01717737689614296,-0.06591318547725677,-0.03608580678701401
1773047966314170000,10.417170166015625,-0.03315633162856102,-0.13728585839271545,-0.04247738793492317
1773047966324050200,10.42705029296875,0.04460791498422623,-0.02756369672715664,-0.0648479238152504
1773047966333867300,10.4368671875,0.08815056830644608,0.1129179447889328,-0.06697845458984375
1773047966343863600,10.446863525390626,0.02649843320250511,0.02463422156870365,-0.05206476151943207
1773047966353824800,10.45682470703125,-0.009720530360937119,-0.102132149040699,-0.04780370742082596
1773047966364004900,10.4670048828125,0.005193160381168127,-0.024367906153202057,-0.04460791498422623
1773047966374038000,10.4770380859375,-0.00013315795513335615,-0.014780532568693161,-0.04034686088562012
1773047966384003800,10.48700390625,-0.012916321866214275,-0.024367906153202057,-0.04993423447012901
1773047966393989600,10.49698974609375,-0.02143843099474907,0.0022636852227151394,-0.05099949613213539
1773047966403957800,10.506957763671876,-0.01717737689614296,-0.07656582444906235,-0.057391077280044556
1773047966413941800,10.516941650390624,-0.026764748618006706,-0.009454214945435524,-0.02330264262855053
1773047966423821800,10.52682177734375,-0.0342215932905674,-0.05419528856873512,-0.06378266215324402
1773047966433638400,10.536638427734376,-0.026764748618006706,0.031025802716612816,-0.004127896390855312
1773047966443818500,10.546818603515625,-0.027830012142658234,-0.07976161688566208,-0.010519478470087051
1773047966453852000,10.556851806640625,-0.01078579481691122,-0.048868969082832336,-0.0019973693415522575
1773047966463819300,10.5668193359375,-0.05233107507228851,0.24394537508487701,0.031025802716612816
1773047966473803800,10.5768037109375,-0.12689952552318573,0.10665952414274216,0.02143843099474907
1773047966483773000,10.58677294921875,-0.047004759311676025,0.019307903945446014,0.06817687302827835
1773047966493756200,10.596756103515625,-0.031025802716612816,-0.0691089779138565,0.05339634045958519
1773047966503726800,10.606726806640625,-0.03315633162856102,-0.014780532568693161,0.047004759311676025
1773047966513708800,10.616708740234374,-0.03848264738917351,0.06511423736810684,0.06924213469028473
1773047966523680800,10.6266806640625,-0.0576573945581913,-0.04460791498422623,0.08309056609869003
1773047966533661700,10.63666162109375,-0.08961530029773712,-0.1585911214351654,0.07563371956348419
1773047966543634700,10.646634765625,0.007323687430471182,-0.032890014350414276,0.05339634045958519
1773047966553614600,10.656614501953126,0.05206476151943207,0.08428898453712463,0.026764748618006706
1773047966563494700,10.66649462890625,-0.05020054802298546,-0.03928159549832344,0.055526867508888245
1773047966573312000,10.67631201171875,-0.08641951531171799,-0.1585911214351654,0.0672447681427002
1773047966583492000,10.6864921875,0.0062584239058196545,-0.041412122547626495,0.03741738572716713
1773047966593526000,10.696526123046874,0.06591318547725677,0.13422322273254395,0.0011984215816482902
1773047966603496000,10.706495849609375,0.0062584239058196545,0.122505322098732,0.035286858677864075
1773047966613478700,10.716478759765625,-0.0949416235089302,-0.0978710949420929,0.03635212033987045
1773047966623449900,10.726449951171874,-0.10985531657934189,-0.15752586722373962,0.04593949392437935
1773047966633431300,10.736431396484376,0.0648479238152504,0.05233107507228851,0.0033289489801973104
1773047966643403500,10.746403564453125,0.13076111674308777,0.16085481643676758,0.009720530360937119
1773047966653384200,10.75638427734375,0.008388951420783997,0.04913528636097908,0.058722659945487976
1773047966663357400,10.766357421875,-0.1471395343542099,-0.19800588488578796,0.06298371404409409
1773047966673337300,10.77633740234375,-0.02143843099474907,-0.04034686088562012,0.043808966875076294
1773047966683311000,10.78631103515625,0.15100112557411194,0.18002955615520477,0.027830012142658234
1773047966693290500,10.79629052734375,0.06804371625185013,0.03848264738917351,0.01717737689614296
1773047966703265000,10.80626513671875,-0.06191844865679741,-0.0318247526884079,0.051265813410282135
1773047966713244000,10.816243896484375,-0.04167843982577324,-0.08615319430828094,0.031025802716612816
1773047966723219000,10.826218994140625,0.04460791498422623,0.06298371404409409,0.01504684891551733
1773047966733197300,10.836197265625,-0.0022636852227151394,0.008655266836285591,0.0043942127376794815
1773047966743172600,10.846172607421876,-0.08428898453712463,-0.09361004084348679,0.022503694519400597
1773047966753150700,10.856150634765624,-0.07896266877651215,-0.17457008361816406,-0.0019973693415522575
1773047966763126500,10.86612646484375,0.0648479238152504,0.02463422156870365,-0.041412122547626495
1773047966773104400,10.8761044921875,0.0786963477730751,0.1651158630847931,-0.0062584239058196545
1773047966783080400,10.88608056640625,-0.035286858677864075,-0.009454214945435524,-0.012650005519390106
1773047966793058000,10.89605810546875,-0.11518163233995438,-0.11065425723791122,-0.0062584239058196545
1773047966803034000,10.9060341796875,-0.02463422156870365,-0.021172115579247475,-0.01904158666729927
1773047966813011700,10.91601171875,0.024367906153202057,0.012916321866214275,-0.03821633383631706
1773047966822988000,10.925988037109375,-0.02889527566730976,0.03848264738917351,-0.024367906153202057
1773047966832965400,10.93596533203125,-0.07683213800191879,-0.07656582444906235,-0.029694223776459694
1773047966842941700,10.945941650390624,-0.007590003311634064,-0.06058686971664429,-0.02330264262855053
1773047966852919000,10.9559189453125,0.07976161688566208,0.08748477697372437,-0.03608580678701401
1773047966862895600,10.9658955078125,0.029694223776459694,0.07896266877651215,-0.02330264262855053
1773047966872872700,10.975872802734376,-0.10665952414274216,-0.10106688737869263,0.009720530360937119
1773047966882849300,10.985849365234374,-0.0022636852227151394,-0.1255679577589035,-0.03395527973771095
1773047966892826600,10.99582666015625,0.16165375709533691,0.2780338227748871,-0.0062584239058196545
1773047966902803200,11.00580322265625,0.0648479238152504,0.12463584542274475,-0.0062584239058196545
1773047966912780300,11.0157802734375,-0.0906805694103241,-0.07656582444906235,0.01717737689614296
1773047966922756900,11.0257568359375,-0.04167843982577324,-0.02756369672715664,0.008655266836285591
1773047966932734000,11.03573388671875,0.08282424509525299,0.12357058376073837,-0.022237379103899002
1773047966942710800,11.045710693359375,0.037151068449020386,0.06298371404409409,-0.022237379103899002
1773047966952687900,11.05568798828125,0.01584579609334469,0.031025802716612816,-0.01584579609334469
1773047966962664400,11.06566455078125,0.012650005519390106,0.012916321866214275,-0.021172115579247475
1773047966972641500,11.0756416015625,0.03395527973771095,-0.007323687430471182,-0.011584741994738579
1773047966982618400,11.085618408203125,0.025433169677853584,0.18429060280323029,-0.012650005519390106
1773047966992595500,11.095595458984375,0.005193160381168127,0.03741738572716713,-0.03075948730111122
1773047967002572300,11.105572265625,-0.026764748618006706,-0.01904158666729927,0.005459476262331009
1773047967012549000,11.115549072265624,0.0456731803715229,-0.028628960251808167,-0.037151068449020386
1773047967022526000,11.12552587890625,0.11158636957406998,0.2577938139438629,-0.03502054139971733
1773047967032502800,11.135502685546875,-0.03315633162856102,-0.04460791498422623,-0.003062632866203785
1773047967042479900,11.14547998046875,-0.12689952552318573,-0.24168169498443604,0.008655266836285591
1773047967052456700,11.155456787109374,-0.0342215932905674,-0.11704584211111069,-0.053130023181438446
1773047967062433500,11.16543359375,0.048868969082832336,0.21411798894405365,0.027830012142658234
1773047967072410600,11.17541064453125,0.0318247526884079,-0.05952160432934761,0.0033289489801973104
1773047967082387500,11.185387451171875,0.13608743250370026,-0.195875346660614,-0.04993423447012901
1773047967092364300,11.1953642578125,0.08815056830644608,0.12889690697193146,-0.01904158666729927
1773047967102341000,11.205341064453124,-0.009720530360937119,0.04913528636097908,-0.014780532568693161
1773047967112318200,11.215318115234375,-0.019307903945446014,-0.02649843320250511,-0.021172115579247475
1773047967122295000,11.225294921875,0.004127896390855312,-0.017976323142647743,-0.02330264262855053
1773047967132271900,11.23527197265625,0.004127896390855312,-0.003062632866203785,-0.011584741994738579
1773047967142152000,11.24515185546875,0.0019973693415522575,0.011851058341562748,-0.013715269044041634
1773047967151970000,11.254969970703126,0.007323687430471182,-0.025433169677853584,-0.0009321057004854083
1773047967162150100,11.265150146484375,0.01584579609334469,-0.048868969082832336,0.006524739786982536
1773047967172184600,11.2751845703125,0.016911059617996216,-0.03608580678701401,-0.0009321057004854083
1773047967182156300,11.28515625,0.041412122547626495,0.022503694519400597,-0.0009321057004854083
1773047967192137200,11.29513720703125,0.005193160381168127,0.012916321866214275,0.03209106624126434
1773047967202110200,11.305110107421875,-0.011851058341562748,-0.05632581561803818,0.023568958044052124
1773047967212090400,11.31509033203125,0.048868969082832336,0.00013315795513335615,0.02889527566730976
1773047967222063900,11.32506396484375,0.074435293674469,0.1981390416622162,0.01504684891551733
1773047967232043500,11.33504345703125,0.010519478470087051,0.12144005298614502,0.022503694519400597
1773047967242017800,11.345017822265625,-0.09174583107233047,-0.12769848108291626,0.022503694519400597
1773047967251996700,11.35499658203125,-0.020373167470097542,-0.04354264959692955,0.009720530360937119
1773047967261971500,11.364971435546876,0.13182637095451355,0.14913691580295563,-0.010519478470087051
1773047967271950000,11.3749501953125,0.028628960251808167,0.08215846121311188,0.031025802716612816
1773047967281925400,11.38492529296875,-0.09813741594552994,-0.195875346660614,0.005459476262331009
1773047967291903700,11.39490380859375,0.02649843320250511,0.02463422156870365,0.018242640420794487
1773047967301879000,11.404879150390625,0.09986846894025803,0.10972215235233307,-0.013715269044041634
1773047967311857200,11.414857177734374,0.010519478470087051,0.051265813410282135,0.026764748618006706
1773047967321833000,11.4248330078125,-0.03209106624126434,-0.11278478801250458,0.03741738572716713
1773047967331810800,11.434810791015625,0.03395527973771095,-0.07550056278705597,0.006524739786982536
1773047967341787000,11.444786865234375,0.05845634266734123,0.12570111453533173,0.027830012142658234
1773047967351764500,11.454764404296874,0.020106852054595947,0.01504684891551733,0.009720530360937119
1773047967361740500,11.464740478515624,0.029694223776459694,-0.008388951420783997,0.005459476262331009
1773047967371718100,11.47471826171875,0.029694223776459694,0.03635212033987045,0.0022636852227151394
1773047967381694500,11.484694580078125,0.029694223776459694,0.04061317816376686,-0.005193160381168127
1773047967391671800,11.494671875,0.03502054139971733,0.0342215932905674,-0.005193160381168127
1773047967401648000,11.504648193359374,0.032890014350414276,-0.008388951420783997,-0.032890014350414276
1773047967411625500,11.51462548828125,0.029694223776459694,0.0672447681427002,-0.032890014350414276
1773047967421602000,11.52460205078125,0.029694223776459694,0.022503694519400597,-0.03075948730111122
1773047967431579100,11.5345791015625,0.03608580678701401,0.018242640420794487,-0.03395527973771095
1773047967441459200,11.544459228515626,0.03395527973771095,0.01504684891551733,-0.03075948730111122
1773047967451277300,11.55427734375,0.03395527973771095,-0.0062584239058196545,-0.041412122547626495
1773047967461457400,11.56445751953125,0.03395527973771095,0.012916321866214275,-0.03395527973771095
1773047967471491600,11.57449169921875,0.032890014350414276,0.0033289489801973104,-0.041412122547626495
1773047967481463300,11.58446337890625,0.028628960251808167,-0.02756369672715664,-0.037151068449020386
1773047967491444500,11.594444580078125,0.02649843320250511,-0.017976323142647743,-0.041412122547626495
1773047967501417200,11.604417236328125,0.025433169677853584,0.03209106624126434,-0.02756369672715664
1773047967511397400,11.6143974609375,0.02330264262855053,-0.03608580678701401,-0.04780370742082596
1773047967521371000,11.624370849609376,0.024367906153202057,-0.009454214945435524,-0.02330264262855053
1773047967531350500,11.6343505859375,0.025433169677853584,-0.037151068449020386,-0.05419528856873512
1773047967541230600,11.644230712890625,0.008388951420783997,0.042743705213069916,-0.020106852054595947
1773047967551048200,11.654048095703125,0.008388951420783997,-0.1117195263504982,-0.02330264262855053
1773047967561228000,11.66422802734375,0.05419528856873512,-0.05099949613213539,-0.025433169677853584
1773047967571262200,11.67426220703125,0.05952160432934761,0.01504684891551733,-0.03395527973771095
1773047967581232000,11.684232177734375,-0.006524739786982536,0.0043942127376794815,0.0011984215816482902
1773047967591214600,11.694214599609374,0.0019973693415522575,-0.09254477918148041,-0.013715269044041634
1773047967601186000,11.70418603515625,0.06591318547725677,-0.01904158666729927,-0.016911059617996216
1773047967611167500,11.71416748046875,0.04673844203352928,0.0342215932905674,-0.009454214945435524
1773047967621140000,11.724139892578124,0.012650005519390106,-0.05206476151943207,-0.007323687430471182
1773047967631120400,11.734120361328126,0.029694223776459694,-0.04034686088562012,-0.004127896390855312
1773047967641093600,11.74409375,0.03075948730111122,-0.05845634266734123,-0.0318247526884079
1773047967651073500,11.754073486328124,0.024367906153202057,0.04167843982577324,-0.0019973693415522575
1773047967661047600,11.764047607421874,0.016911059617996216,-0.0978710949420929,-0.009454214945435524
1773047967671026700,11.774026611328125,0.03821633383631706,-0.05632581561803818,-0.0019973693415522575
1773047967681001500,11.78400146484375,0.03075948730111122,0.007590003311634064,0.01717737689614296
1773047967690980000,11.79397998046875,0.03821633383631706,-0.05632581561803818,-0.004127896390855312
1773047967700955100,11.803955078125,0.03395527973771095,0.01504684891551733,0.03848264738917351
1773047967710933500,11.81393359375,0.03928159549832344,-0.07763108611106873,-0.007323687430471182
1773047967720909000,11.823908935546875,0.037151068449020386,0.07044056057929993,0.022503694519400597
1773047967730887200,11.83388720703125,0.04247738793492317,-0.04460791498422623,-0.01904158666729927
1773047967740767200,11.843767333984376,0.04247738793492317,-0.004127896390855312,0.012916321866214275
1773047967750585000,11.853585205078126,0.08602003753185272,0.03315633162856102,-0.02330264262855053
1773047967760765000,11.863764892578125,0.07230477035045624,0.08215846121311188,-0.013715269044041634
1773047967770842000,11.873842041015624,0.0009321057004854083,-0.009454214945435524,0.020373167470097542
1773047967780770300,11.883770263671876,0.03075948730111122,-0.032890014350414276,0.02463422156870365
1773047967790751200,11.893751220703125,0.08495477586984634,0.022503694519400597,-0.005193160381168127
1773047967800724200,11.90372412109375,0.03502054139971733,0.06937529146671295,0.022503694519400597
1773047967810704400,11.913704345703126,-0.01717737689614296,-0.057391077280044556,0.026764748618006706
1773047967820678000,11.923677978515625,0.03075948730111122,-0.0648479238152504,0.009720530360937119
1773047967830657500,11.933657470703125,0.10412952303886414,0.059787921607494354,-0.0062584239058196545
1773047967840537600,11.94353759765625,-0.0033289489801973104,0.009720530360937119,0.012916321866214275
1773047967850417400,11.95341748046875,0.011584741994738579,-0.15113428235054016,0.023568958044052124
1773047967860585700,11.963585693359375,0.12223900109529495,0.06937529146671295,-0.003062632866203785
1773047967870564600,11.973564697265624,0.12650005519390106,0.19920429587364197,-0.0019973693415522575
1773047967880539400,11.983539306640624,-0.013981585390865803,-0.02330264262855053,0.02569948509335518
1773047967890518000,11.99351806640625,-0.10133320093154907,-0.2384859025478363,0.026764748618006706
1773047967900493300,12.003493408203125,0.07976161688566208,0.03315633162856102,-0.0062584239058196545
1773047967910471400,12.013471435546874,0.11158636957406998,0.25140222907066345,0.03848264738917351
1773047967920447000,12.023447021484374,0.008388951420783997,-0.1490037590265274,0.03635212033987045
1773047967930425000,12.033425048828125,0.0062584239058196545,-0.08934898674488068,0.03848264738917351
1773047967940401000,12.04340087890625,0.06058686971664429,0.055526867508888245,0.047004759311676025
1773047967950378800,12.053378662109376,0.02649843320250511,0.005459476262331009,0.06817687302827835
1773047967960354800,12.063354736328124,0.010519478470087051,-0.09467530250549316,0.0672447681427002
1773047967970332200,12.073332275390625,0.06591318547725677,-0.03821633383631706,0.03741738572716713
1773047968000262400,12.103262451171876,0.04460791498422623,-0.007323687430471182,0.019307903945446014
1773047968010239700,12.11323974609375,0.04034686088562012,0.019307903945446014,0.0043942127376794815
1773047968020216000,12.123216064453125,0.04247738793492317,-0.01904158666729927,0.0022636852227151394
1773047968030193400,12.133193359375,0.041412122547626495,0.00013315795513335615,0.00013315795513335615
1773047968040170000,12.143169921875,0.0456731803715229,-0.03502054139971733,-0.01904158666729927
1773047968050147300,12.153147216796874,0.04673844203352928,0.04913528636097908,0.009720530360937119
1773047968060124000,12.1631240234375,0.057391077280044556,-0.0552605502307415,-0.021172115579247475
1773047968070101000,12.17310107421875,0.05206476151943207,0.05020054802298546,0.01078579481691122
1773047968080077600,12.18307763671875,0.053130023181438446,-0.02330264262855053,-0.011584741994738579
1773047968090054700,12.1930546875,0.05206476151943207,0.039547912776470184,0.005459476262331009
1773047968100031500,12.203031494140625,0.053130023181438446,0.043808966875076294,0.01717737689614296
1773047968110008600,12.213008544921875,0.0552605502307415,0.007590003311634064,0.011851058341562748
1773047968119985200,12.222985107421875,0.053130023181438446,0.04487423226237297,0.02569948509335518
1773047968129962200,12.232962158203126,0.04993423447012901,0.01717737689614296,0.009720530360937119
1773047968139939000,12.24293896484375,0.04673844203352928,0.039547912776470184,0.009720530360937119
1773047968149916000,12.252916015625,0.048868969082832336,0.012916321866214275,-0.003062632866203785
1773047968159892700,12.262892822265625,0.04993423447012901,0.035286858677864075,-0.003062632866203785
1773047968169869800,12.272869873046876,0.04673844203352928,-0.007323687430471182,-0.024367906153202057
1773047968179846700,12.2828466796875,0.04034686088562012,0.01504684891551733,-0.032890014350414276
1773047968189823700,12.29282373046875,0.03821633383631706,-0.022237379103899002,-0.05419528856873512
1773047968199800600,12.302800537109375,0.03502054139971733,0.04487423226237297,-0.04780370742082596
