time,seconds_elapsed,z,y,x
1773047956117346800,0.220346923828125,10.273584365844727,0.36729827523231506,-0.9607182741165161
1773047956127302400,0.230302490234375,10.791031837463379,1.1808580160140991,-1.200000524520874
1773047956147165400,0.25016552734375,9.071788787841797,0.23270200192928314,-0.046061836183071136
1773047956157142300,0.260142333984375,10.110872268676758,0.5395814776420593,-1.2191431522369385
1773047956177091300,0.28009130859375,9.368498802185059,0.06520441919565201,-0.4145565330982208
1773047956187045600,0.290045654296875,10.488938331604004,0.05563312768936157,-0.046061836183071136
1773047956196931000,0.29993115234375,9.957731246948242,0.8267202377319336,0.6484549641609192
1773047956206857000,0.30985693359375,10.292726516723633,0.4103690981864929,-0.8554341197013855
1773047956216843500,0.319843505859375,10.38365364074707,-0.054436713457107544,-1.1856436729431152
1773047956226794500,0.32979443359375,8.62193775177002,-0.025722842663526535,-0.534795880317688
1773047956236795100,0.339795166015625,8.665008544921875,0.3242274820804596,-0.17527425289154053
1773047956246766800,0.349766845703125,10.925029754638672,0.026919255033135414,-0.9176474809646606
1773047956256946700,0.35994677734375,9.167501449584961,0.2955136001110077,-0.6209374666213989
1773047956267126800,0.370126708984375,10.235299110412598,0.3768695592880249,-0.5539384484291077
1773047956277306600,0.380306640625,9.574281692504883,0.2566302418708801,-0.592223584651947
1773047956287486700,0.39048681640625,9.627521514892578,-0.2793620526790619,0.05922235921025276
1773047956297356000,0.40035595703125,8.315058708190918,0.0077766734175384045,-0.44327038526535034
1773047956307361300,0.410361328125,10.149157524108887,0.12741780281066895,-1.444068431854248
1773047956317310500,0.420310546875,9.339784622192383,0.03170489892363548,-0.47676992416381836
1773047956327293000,0.43029296875,9.569496154785156,0.7549355626106262,1.2801600694656372
1773047956337226000,0.44022607421875,10.130014419555664,1.0660024881362915,-1.415354609489441
1773047956347188200,0.450188232421875,10.819746017456055,0.41515472531318665,-1.1904292106628418
1773047956357217800,0.4602177734375,8.784649848937988,-0.1788634955883026,1.2275179624557495
1773047956367207200,0.470207275390625,9.296713829040527,0.2715853750705719,0.03529413416981697
1773047956377171500,0.48017138671875,11.12602710723877,0.5970092415809631,-2.105085611343384
1773047956387150800,0.49015087890625,9.129216194152832,0.33379876613616943,-0.8841479420661926
1773047956397125400,0.50012548828125,9.172286987304688,0.3529413342475891,1.591825246810913
1773047956407102700,0.510102783203125,9.833304405212402,0.592223584651947,-0.2709871530532837
1773047956417079000,0.5200791015625,10.50808048248291,0.12263216078281403,-1.3770694732666016
1773047956427055900,0.530055908203125,9.804591178894043,0.33858439326286316,-0.4001995921134949
1773047956437032700,0.54003271484375,9.119645118713379,0.7262216806411743,-0.4384847581386566
1773047956447009500,0.550009521484375,9.411569595336914,0.8745766878128052,-0.1944168359041214
1773047956456986400,0.559986328125,8.401200294494629,0.9942178130149841,-0.23270200192928314
1773047956466963200,0.569963134765625,9.847661972045898,0.6640082597732544,-1.4536397457122803
1773047956476940000,0.57993994140625,10.28315544128418,0.3529413342475891,-1.1042876243591309
1773047956486916900,0.589916748046875,10.469795227050781,0.7357929348945618,1.740180253982544
1773047956496893700,0.599893798828125,9.708877563476562,0.31465616822242737,0.7441678643226624
1773047956506870500,0.60987060546875,10.7766752243042,0.381655216217041,-1.8705891370773315
1773047956516847400,0.619847412109375,10.14437198638916,0.4103690981864929,-0.5102694034576416
1773047956526824200,0.62982421875,8.257631301879883,0.15134602785110474,1.673181176185608
1773047956536801000,0.639801025390625,11.092527389526367,0.046061836183071136,0.7824530005455017
1773047956546777900,0.64977783203125,10.498509407043457,-0.4612165689468384,-2.1577277183532715
1773047956556754700,0.659754638671875,10.858031272888184,-0.37028929591178894,-1.353141188621521
1773047956566731500,0.6697314453125,9.689735412597656,0.381655216217041,0.8398807644844055
1773047956576611600,0.679611572265625,8.539983749389648,1.1569297313690186,1.3806586265563965
1773047956586429700,0.6894296875,10.527223587036133,0.7214360237121582,-0.7692924737930298
1773047956596609500,0.699609619140625,11.341381072998047,0.14656038582324982,-1.7940187454223633
1773047956606686700,0.709686767578125,9.5264253616333,0.2907279431819916,0.26979073882102966
1773047956616615700,0.71961572265625,9.057432174682617,0.2907279431819916,0.5958128571510315
1773047956626595800,0.729595947265625,10.455438613891602,0.9032905697822571,-0.7501499056816101
1773047956636569300,0.7395693359375,8.727222442626953,0.7884350419044495,-1.827518343925476
1773047956646549000,0.749549072265625,9.062217712402344,1.0707881450653076,-0.4145565330982208
1773047956656523000,0.75952294921875,8.947361946105957,0.39122650027275085,-0.47676992416381836
1773047956666502100,0.769502197265625,7.779066562652588,1.0707881450653076,-1.109073281288147
1773047956676476700,0.7794765625,9.167501449584961,1.6360924243927002,-0.8027920126914978
1773047956686455300,0.789455322265625,8.636295318603516,0.865005373954773,-0.534795880317688
1773047956696430300,0.799430419921875,8.880363464355469,0.1178465187549591,-0.6113662123680115
1773047956706408700,0.80940869140625,9.962516784667969,0.20877377688884735,-0.8267202377319336
1773047956716384000,0.819384033203125,8.62193775177002,0.33858439326286316,-0.9559326171875
1773047956726362000,0.829362060546875,9.167501449584961,0.8554341197013855,-0.8889335989952087
1773047956736337700,0.839337646484375,9.086145401000977,1.0372886657714844,0.1740778535604477
1773047956746315500,0.8493154296875,9.339784622192383,1.4446666240692139,-0.17527425289154053
1773047956756291300,0.859291259765625,9.382855415344238,1.3010972738265991,-0.8745766878128052
1773047956766269000,0.86926904296875,10.211370468139648,0.30987054109573364,-0.9750752449035645
1773047956776149000,0.87914892578125,10.082158088684082,0.30987054109573364,-0.4624129831790924
1773047956785966800,0.888966796875,9.881160736083984,0.41994038224220276,1.098305583000183
1773047956796146700,0.899146728515625,10.637292861938477,0.4247260093688965,0.6532405614852905
1773047956806181000,0.90918115234375,10.445867538452148,0.36729827523231506,-2.8426733016967773
1773047956816152300,0.91915234375,9.732806205749512,0.21355941891670227,-1.8658034801483154
1773047956826133800,0.9291337890625,9.627521514892578,0.1178465187549591,1.557727575302124
1773047956836106000,0.93910595703125,9.761520385742188,0.8027920126914978,-0.19920247793197632
1773047956846086400,0.94908642578125,10.50808048248291,0.898504912853241,-3.019742250442505
1773047956856059600,0.9590595703125,10.345368385314941,-0.20757736265659332,-1.2335001230239868
1773047956866039600,0.96903955078125,10.340582847595215,-0.6957131624221802,1.1174482107162476
1773047956875919400,0.97891943359375,10.393224716186523,-0.6191428303718567,-1.1234302520751953
1773047956885737000,0.988737060546875,10.685748100280762,-0.355932354927063,-2.310868501663208
1773047956895916800,0.998916748046875,9.382855415344238,-0.35114672780036926,-1.7126628160476685
1773047956905950700,1.00895068359375,9.881160736083984,-0.47557350993156433,-0.2231307178735733
1773047956915920600,1.018920654296875,10.024730682373047,-0.39421752095222473,-2.042872428894043
1773047956925903000,1.028903076171875,10.005587577819824,-0.6574280261993408,-2.325225353240967
1773047956935874300,1.038874267578125,10.04865837097168,-0.8063812255859375,-1.1282159090042114
1773047956945855700,1.048855712890625,9.387641906738281,-0.21714866161346436,-1.32921302318573
1773047956955828000,1.058827880859375,9.464211463928223,0.08434699475765228,-1.975873351097107
1773047956965808400,1.068808349609375,9.632308006286621,-0.45164528489112854,-2.2199411392211914
1773047956975688400,1.0786884765625,11.082956314086914,-1.3088740110397339,-1.9854445457458496
1773047956985505800,1.088505859375,10.431509971618652,-0.5617151260375977,-0.5395814776420593
1773047956995686000,1.098685791015625,10.896316528320312,-0.21714866161346436,-1.4775680303573608
1773047957005719600,1.108719482421875,9.972088813781738,-0.3128615617752075,-2.761317253112793
1773047957015689000,1.11868896484375,10.125228881835938,-0.34636107087135315,-1.1569297313690186
1773047957025672000,1.128671875,8.933005332946777,-0.2267199456691742,-0.9942178130149841
1773047957035643000,1.138642822265625,9.82373332977295,-0.389431893825531,-2.5357937812805176
1773047957045624300,1.148624267578125,10.139585494995117,-0.6526423692703247,-1.8562321662902832
1773047957055596500,1.158596435546875,9.90987491607666,-0.4468596279621124,0.37028929591178894
1773047957065577200,1.1685771484375,9.583852767944336,0.3002992272377014,-4.202394962310791
1773047957075550200,1.17855029296875,7.76470947265625,0.33379876613616943,-3.326023578643799
1773047957085530000,1.188530029296875,10.053443908691406,0.13698910176753998,-1.1521440744400024
1773047957095504000,1.19850390625,8.59322452545166,-0.8590233325958252,-4.4273200035095215
1773047957105483300,1.208483154296875,10.948958396911621,-1.1030912399291992,-2.435295343399048
1773047957115457800,1.218457763671875,10.97767162322998,-0.45164528489112854,0.50907301902771
1773047957125436400,1.2284365234375,10.316655158996582,-0.9260223507881165,-1.8801604509353638
1773047957135411500,1.238411376953125,10.24487018585205,-1.074377417564392,-4.13060998916626
1773047957145389800,1.248389892578125,10.201799392700195,-0.45164528489112854,-2.0811574459075928
1773047957155365000,1.258365234375,8.83250617980957,-0.03529413416981697,-0.8123632669448853
1773047957165343200,1.26834326171875,9.790233612060547,-0.020937198773026466,-3.16331148147583
1773047957175318800,1.27831884765625,8.324629783630371,0.11306086927652359,-3.3643085956573486
1773047957185296600,1.288296630859375,8.38684368133545,0.03170489892363548,-2.6225335597991943
1773047957195272400,1.2982724609375,9.334999084472656,-1.1078768968582153,-3.7908291816711426
1773047957205250000,1.30825,10.000802040100098,-0.355932354927063,-3.0867412090301514
1773047957215226000,1.31822607421875,10.359725952148438,0.33858439326286316,-1.089930772781372
1773047957225203700,1.32820361328125,10.17308521270752,0.2470589429140091,-3.077169895172119
1773047957235180000,1.338179931640625,9.905089378356934,0.5204389095306396,-3.22552490234375
1773047957245157400,1.348157470703125,9.952945709228516,0.3242274820804596,-1.8083757162094116
1773047957255133700,1.3581337890625,9.665806770324707,0.711864709854126,-2.746960401535034
1773047957265110800,1.36811083984375,9.57906723022461,0.9224331378936768,-3.6424741744995117
1773047957275087400,1.37808740234375,8.74636459350586,1.171286702156067,-2.7038896083831787
1773047957285064400,1.388064453125,8.319844245910645,1.784447431564331,-2.286940336227417
1773047957294944500,1.397944580078125,7.692924976348877,1.937588095664978,-4.374678134918213
1773047957304762400,1.407762451171875,7.802994728088379,1.6552350521087646,-5.768496990203857
1773047957314942500,1.4179423828125,8.506484031677246,1.1569297313690186,-3.263810157775879
1773047957324977000,1.427976806640625,8.779864311218262,1.0660024881362915,-2.4735803604125977
1773047957334948400,1.4379482421875,9.119645118713379,1.6217355728149414,-4.097110748291016
1773047957344929300,1.44792919921875,8.904291152954102,1.731805443763733,-4.197608947753906
1773047957354902000,1.457902099609375,8.46341323852539,1.4350954294204712,-3.0580272674560547
1773047957364882400,1.46788232421875,8.037490844726562,0.9080761671066284,-3.6424741744995117
1773047957374855700,1.477855712890625,8.808578491210938,0.2763710021972656,-5.605186939239502
1773047957384835300,1.48783544921875,6.6969122886657715,0.2231307178735733,-6.0747785568237305
1773047957394809600,1.4978095703125,9.114859580993652,0.0077766734175384045,-5.164907455444336
1773047957404788500,1.50778857421875,5.9784674644470215,0.6592226624488831,-4.59003210067749
1773047957414763300,1.51776318359375,8.976076126098633,0.6975077986717224,-5.284548759460449
1773047957424742000,1.527741943359375,8.061419486999512,1.3202399015426636,-4.298107624053955
1773047957434621700,1.53762158203125,8.133204460144043,1.5451651811599731,-3.699902057647705
1773047957444439600,1.547439453125,10.273584365844727,0.8889335989952087,-2.775674343109131
1773047957454619400,1.557619384765625,12.504891395568848,1.578664779663086,-1.8897316455841064
1773047957464653600,1.567653564453125,9.435498237609863,1.3441680669784546,-3.105883836746216
1773047957474624300,1.577624267578125,8.176275253295898,1.2335001230239868,-5.174479007720947
1773047957484606200,1.587606201171875,8.109275817871094,0.7932206988334656,-4.801198482513428
1773047957494578000,1.597577880859375,8.22413158416748,0.07956135272979736,-3.857828378677368
1773047957504558800,1.607558837890625,8.449056625366211,0.33379876613616943,-5.385047435760498
1773047957514531800,1.61753173828125,7.893921852111816,1.1042876243591309,-5.657829284667969
1773047957524512000,1.627511962890625,7.759923934936523,0.6161518096923828,-3.9248273372650146
1773047957534485500,1.637485595703125,8.181060791015625,0.046061836183071136,-3.699902057647705
1773047957544465000,1.64746484375,8.636295318603516,-0.1501496136188507,-5.749354839324951
1773047957554439200,1.657439208984375,8.353343963623047,0.10827522724866867,-5.298905849456787
1773047957564418300,1.667418212890625,8.353343963623047,-0.3080759048461914,-4.350749969482422
1773047957574393000,1.67739306640625,8.233702659606934,0.05563312768936157,-4.537389755249023
1773047957584371500,1.687371337890625,8.985647201538086,0.31465616822242737,-5.413761138916016
1773047957594346800,1.6973466796875,8.598010063171387,0.4007977843284607,-5.595615863800049
1773047957604324900,1.707324951171875,8.415556907653809,-0.03529413416981697,-4.3172502517700195
1773047957614340900,1.7173408203125,8.353343963623047,-0.09272187948226929,-4.226323127746582
1773047957624278800,1.72727880859375,7.118049144744873,0.251844584941864,-6.156134605407715
1773047957634254000,1.737254150390625,6.491129398345947,0.5395814776420593,-6.251847267150879
1773047957644232200,1.747232177734375,6.653841495513916,0.7645068168640137,-5.236692428588867
1773047957654256400,1.75725634765625,7.0462646484375,1.085145115852356,-5.361119270324707
1773047957664239000,1.767239013671875,7.486543655395508,1.0803594589233398,-5.686542987823486
1773047957674161700,1.77716162109375,7.530212879180908,0.47258245944976807,-5.744568824768066
1773047957684138200,1.78713818359375,7.865208148956299,0.23270200192928314,-4.944767951965332
1773047957694115300,1.797115234375,8.813364028930664,0.3481557071208954,-4.618745803833008
1773047957704092200,1.807092041015625,8.73200798034668,0.3720839321613312,-4.647459983825684
1773047957714069200,1.8170693359375,9.263215065002441,-0.0975075215101242,-4.925625324249268
1773047957724045800,1.8270458984375,9.31585693359375,-0.3798605799674988,-4.954339504241943
1773047957733926000,1.83692578125,6.864409923553467,1.2382856607437134,-5.605186939239502
1773047957743744000,1.846743896484375,7.70249605178833,0.2955136001110077,-7.487142086029053
1773047957753923800,1.856923828125,7.505686283111572,0.2566302418708801,-5.327619552612305
1773047957763958500,1.86695849609375,7.975277900695801,1.1377872228622437,-6.1226348876953125
1773047957773930200,1.87693017578125,8.770293235778809,0.20398813486099243,-7.032505512237549
1773047957783911200,1.8869111328125,8.544769287109375,0.12263216078281403,-4.628317356109619
1773047957793884000,1.8968837890625,7.592426300048828,0.5874379873275757,-3.7812578678131104
1773047957803864000,1.906864013671875,6.692126750946045,0.2907279431819916,-7.3292155265808105
1773047957813837800,1.916837890625,7.189833641052246,0.4821537733078003,-6.97986364364624
1773047957823817200,1.926817138671875,7.654639720916748,0.8841479420661926,-3.579662561416626
1773047957833697300,1.936697265625,7.960920810699463,0.4295116662979126,-5.265406131744385
1773047957843515000,1.946514892578125,7.95134973526001,0.36251261830329895,-6.922435760498047
1773047957853512400,1.956512451171875,8.281558990478516,0.46779683232307434,-5.2941203117370605
1773047957863472400,1.966472412109375,8.118846893310547,0.2763710021972656,-5.5621161460876465
1773047957873652500,1.976652587890625,7.712067604064941,0.5108676552772522,-6.40020227432251
1773047957883686000,1.986685791015625,7.352545738220215,1.1282159090042114,-5.700900077819824
1773047957893652700,1.99665283203125,7.0462646484375,1.0995019674301147,-5.912066459655762
1773047957903637800,2.0066376953125,7.261618614196777,0.778863787651062,-5.998208045959473
1773047957913606400,2.0166064453125,6.773482799530029,0.8554341197013855,-4.9878387451171875
1773047957923590000,2.02658984375,6.682555675506592,1.5499508380889893,-5.68175745010376
1773047957933469700,2.0364697265625,7.476972579956055,1.688734531402588,-6.457630157470703
1773047957943286500,2.04628662109375,7.534998416900635,1.2430713176727295,-5.571687698364258
1773047957953466400,2.05646630859375,7.2472615242004395,1.2191431522369385,-5.351547718048096
1773047957963500000,2.0665,7.409973621368408,1.6169499158859253,-6.069993019104004
1773047957973467600,2.076467529296875,7.817351341247559,1.6313068866729736,-6.376274108886719
1773047957983452200,2.0864521484375,7.726424217224121,1.2191431522369385,-5.045266628265381
1773047957993332000,2.09633203125,8.94257640838623,0.8267202377319336,-4.686343193054199
1773047958003191000,2.10619091796875,8.909076690673828,1.3968101739883423,-4.585246562957764
1773047958013375200,2.116375244140625,7.836493968963623,0.9607182741165161,-5.950351715087891
1773047958023361000,2.126361083984375,7.984848976135254,1.200000524520874,-5.471189022064209
1773047958033329000,2.136328857421875,7.941778182983398,1.042074203491211,-4.925625324249268
1773047958043313200,2.146313232421875,8.73200798034668,-0.24107688665390015,-4.19282341003418
1773047958053282800,2.15628271484375,8.98086166381836,-0.5138586759567261,-3.972683906555176
1773047958063265500,2.166265625,8.204988479614258,-0.25064817070961,-6.022136211395264
1773047958073145300,2.176145263671875,5.240880012512207,1.8897316455841064,-7.046862602233887
1773047958083005000,2.1860048828125,9.478569030761719,1.2430713176727295,-3.34995174407959
1773047958093190400,2.1961904296875,8.822935104370117,1.4398809671401978,-4.441677093505859
1773047958103175200,2.206175048828125,9.244071960449219,0.8123632669448853,-5.298905849456787
1773047958113144000,2.21614404296875,9.670592308044434,-0.09272187948226929,-3.934398651123047
1773047958123127300,2.226127197265625,9.473783493041992,-0.2315055876970291,-2.2917258739471436
1773047958133098000,2.236097900390625,9.086145401000977,-0.030508488416671753,-4.049253940582275
1773047958143080000,2.246079833984375,8.794221878051758,0.2183450609445572,-5.24626350402832
1773047958153051600,2.2560517578125,8.396414756774902,0.2667997181415558,-3.0101709365844727
1773047958163032600,2.266032470703125,8.396414756774902,0.38644084334373474,-3.2685956954956055
1773047958172912600,2.27591259765625,9.129216194152832,0.09391828626394272,-3.9008991718292236
1773047958182772500,2.2857724609375,9.258428573608398,-0.5473581552505493,-3.666402578353882
1773047958192959200,2.295959228515625,9.062217712402344,-0.42293140292167664,-2.9383862018585205
1773047958202943000,2.30594287109375,9.862018585205078,-0.054436713457107544,-2.8666014671325684
1773047958212913000,2.315912841796875,10.029516220092773,-0.07357929646968842,-2.1960129737854004
1773047958222895400,2.325895263671875,9.574281692504883,0.18005990982055664,-1.9902302026748657
1773047958232866800,2.33586669921875,9.54078197479248,0.13698910176753998,-3.6424741744995117
1773047958242848000,2.345847900390625,9.387641906738281,-0.40378883481025696,-2.761317253112793
1773047958252820700,2.35582080078125,9.287142753601074,-0.24586252868175507,-1.1330015659332275
1773047958262801200,2.36580126953125,9.56471061706543,-0.0687936544418335,-2.004587173461914
1773047958272774400,2.3757744140625,9.627521514892578,0.10348957777023315,-2.066800594329834
1773047958282754000,2.385754150390625,9.301499366760254,0.12741780281066895,-1.1330015659332275
1773047958292728300,2.395728271484375,10.091729164123535,0.2667997181415558,-0.8793623447418213
1773047958302707500,2.40570751953125,10.728818893432617,0.36729827523231506,-1.6504493951797485
1773047958312682000,2.415681884765625,11.173883438110352,-0.13579268753528595,-1.022931694984436
1773047958322660900,2.425660888671875,10.958529472351074,-0.07357929646968842,-0.17527425289154053
1773047958332636000,2.435635986328125,9.967302322387695,0.046061836183071136,-0.9032905697822571
1773047958342614300,2.4456142578125,9.862018585205078,0.7022934556007385,0.0975075215101242
1773047958352589600,2.455589599609375,9.842875480651855,1.0372886657714844,1.9986051321029663
1773047958362567700,2.465567626953125,10.838888168334961,0.7549355626106262,3.181257724761963
1773047958372447700,2.47544775390625,10.182656288146973,0.4582255482673645,0.24107688665390015
1773047958382308000,2.48530810546875,9.742377281188965,0.14656038582324982,-4.661816596984863
1773047958392497200,2.4954970703125,10.17308521270752,-0.13100704550743103,-1.8323038816452026
1773047958402478800,2.505478759765625,9.708877563476562,0.36251261830329895,-0.8458628058433533
1773047958432408600,2.53540869140625,10.120443344116211,0.5826523303985596,-1.1377872228622437
1773047958442381600,2.545381591796875,9.387641906738281,0.2667997181415558,1.2275179624557495
1773047958452361700,2.55536181640625,9.66102123260498,-0.1453639715909958,0.03529413416981697
1773047958462241800,2.56524169921875,10.441082000732422,0.4630111753940582,-1.2861422300338745
1773047958472059100,2.57505908203125,10.555936813354492,0.30508488416671753,1.00259268283844
1773047958482239200,2.5852392578125,9.028717994689941,0.3290131092071533,0.5383850932121277
1773047958492273200,2.595273193359375,10.311869621276855,-0.29371899366378784,-1.7653049230575562
1773047958502242800,2.605242919921875,10.345368385314941,-0.6478567123413086,-1.7078771591186523
1773047958512225500,2.6152255859375,9.129216194152832,0.08434699475765228,0.8446664214134216
1773047958522196700,2.62519677734375,10.488938331604004,-0.2602194547653198,-0.4815555512905121
1773047958532178200,2.63517822265625,10.484152793884277,0.251844584941864,-2.1481566429138184
1773047958542150700,2.645150634765625,8.976076126098633,1.046859860420227,0.4468596279621124
1773047958552131300,2.65513134765625,9.033503532409668,0.836291491985321,1.275374412536621
1773047958562104300,2.665104248046875,10.551151275634766,0.5395814776420593,-0.8937192559242249
1773047958572084200,2.675084228515625,9.991230964660645,0.5252245664596558,-1.1904292106628418
1773047958582058200,2.685058349609375,8.92821979522705,0.7501499056816101,1.495514154434204
1773047958592037600,2.69503759765625,10.077372550964355,1.1617153882980347,-0.19920247793197632
1773047958602012200,2.70501220703125,10.791031837463379,1.2335001230239868,-1.3722838163375854
1773047958611990800,2.71499072265625,9.986445426940918,0.4342973232269287,-0.11306086927652359
1773047958621965800,2.7249658203125,9.411569595336914,0.3002992272377014,0.39900317788124084
1773047958631944200,2.734944091796875,10.555936813354492,1.0947163105010986,-0.26620152592658997
1773047958641824300,2.74482421875,9.545567512512207,0.5587241053581238,-1.7653049230575562
1773047958651642000,2.75464208984375,10.479366302490234,0.46779683232307434,0.22193430364131927
1773047958661822200,2.764822265625,10.867602348327637,0.898504912853241,0.12622138857841492
1773047958671856400,2.7748564453125,10.536794662475586,0.9320043921470642,1.7593228816986084
1773047958681827300,2.784827392578125,9.92423152923584,1.0133603811264038,2.764906644821167
1773047958691809000,2.79480908203125,10.676176071166992,0.8075776696205139,-3.776472330093384
1773047958701781000,2.804781005859375,9.253643035888672,0.31465616822242737,-1.9040886163711548
1773047958711762000,2.814761962890625,9.790233612060547,0.4007977843284607,0.605384111404419
1773047958721735000,2.82473486328125,9.967302322387695,0.9272187948226929,0.2841476798057556
1773047958731714800,2.83471484375,9.301499366760254,1.4446666240692139,-3.4408788681030273
1773047958741688600,2.8446884765625,10.101301193237305,0.6640082597732544,-1.607378602027893
1773047958751668000,2.85466796875,9.559925079345703,0.8697910308837891,-0.20877377688884735
1773047958761642500,2.864642578125,8.94257640838623,0.9655039310455322,-0.7932206988334656
1773047958771621400,2.874621337890625,8.305487632751465,1.0325030088424683,-2.809173822402954
1773047958781596400,2.884596435546875,8.271987915039062,1.2813565731048584,-2.651247501373291
1773047958791575000,2.894574951171875,7.822137355804443,1.3106685876846313,-1.9280169010162354
1773047958801550000,2.904550048828125,8.3629150390625,0.8075776696205139,-1.8993029594421387
1773047958811528200,2.914528076171875,9.157930374145508,0.9463613629341125,-1.7796618938446045
1773047958821504000,2.92450390625,10.029516220092773,0.5970092415809631,-2.2582263946533203
1773047958831481900,2.93448193359375,10.49372386932373,0.24227328598499298,-2.5501506328582764
1773047958841458000,2.9444580078125,10.101301193237305,0.06041877344250679,-1.511067509651184
1773047958851435500,2.954435546875,9.637093544006348,0.6735795736312866,-1.353141188621521
1773047958861315600,2.964315673828125,9.847661972045898,0.9990034699440002,-3.1585259437561035
1773047958871133400,2.974133544921875,9.239286422729492,0.7645068168640137,-3.115455150604248
1773047958881313500,2.9843134765625,8.626724243164062,0.33379876613616943,-1.6217355728149414
1773047958891347700,2.99434765625,9.004789352416992,0.15613168478012085,-2.699103832244873
1773047958901319200,3.004319091796875,9.033503532409668,0.2566302418708801,-3.800400495529175
1773047958911300600,3.014300537109375,9.153144836425781,0.778863787651062,-2.4017956256866455
1773047958921273000,3.024273193359375,9.354142189025879,1.2382856607437134,-2.8809585571289062
1773047958931253500,3.03425341796875,8.937790870666504,1.089930772781372,-4.101896286010742
1773047958941226800,3.044226806640625,9.014361381530762,0.7980063557624817,-2.9527430534362793
1773047958951206700,3.05420654296875,8.271987915039062,0.5204389095306396,-3.603590965270996
1773047958961180700,3.0641806640625,8.574081420898438,0.33858439326286316,-4.575675010681152
1773047958971159800,3.074159912109375,9.110074043273926,0.20398813486099243,-4.06839656829834
1773047958981134300,3.08413427734375,9.296713829040527,0.6209374666213989,-3.1824541091918945
1773047958991113200,3.09411328125,9.157930374145508,1.042074203491211,-4.05403995513916
1773047959001088300,3.104088134765625,8.48734188079834,0.9942178130149841,-3.8291144371032715
1773047959011066600,3.114066650390625,8.066205024719238,0.6400800347328186,-4.345963954925537
1773047959021042000,3.1240419921875,7.941778182983398,-0.0687936544418335,-4.724628448486328
1773047959031020000,3.13402001953125,7.975277900695801,0.07477571070194244,-4.417748928070068
1773047959040900000,3.143900146484375,8.722436904907227,0.5156532526016235,-3.8913278579711914
1773047959050718000,3.153718017578125,8.84207820892334,0.5778666734695435,-4.642673969268799
1773047959060898000,3.16389794921875,9.009575843811035,0.2763710021972656,-5.394618511199951
1773047959070932500,3.173932373046875,8.976076126098633,0.28115665912628174,-4.049253940582275
1773047959080903400,3.1839033203125,9.248857498168945,0.046061836183071136,-4.551746845245361
1773047959100857300,3.203857421875,9.234500885009766,0.18005990982055664,-4.082753658294678
1773047959110838000,3.213838134765625,9.559925079345703,0.0077766734175384045,-4.2550368309021
1773047959120811000,3.22381103515625,9.258428573608398,0.7836494445800781,-4.83469820022583
1773047959130791000,3.233791015625,8.15234661102295,0.9415757060050964,-6.223133563995361
1773047959140765000,3.243764892578125,6.754340171813965,0.8315058946609497,-4.920839786529541
1773047959150744300,3.253744384765625,6.778268337249756,0.4247260093688965,-5.332405090332031
1773047959160721200,3.26372119140625,7.7838521003723145,-0.05922235921025276,-5.80199670791626
1773047959180578000,3.283578125,6.950551509857178,0.12263216078281403,-6.270989894866943
1773047959190395600,3.293395751953125,6.021538257598877,0.6592226624488831,-6.371488571166992
1773047959200575700,3.30357568359375,6.754340171813965,1.1186445951461792,-5.595615863800049
1773047959210610000,3.31360986328125,7.841279983520508,0.592223584651947,-5.255835056304932
1773047959220490000,3.323489990234375,8.367700576782227,0.7884350419044495,-5.979065418243408
1773047959230369800,3.333369873046875,7.917850017547607,0.5491527915000916,-6.984649181365967
1773047959240550000,3.3435498046875,7.2711896896362305,1.1377872228622437,-4.791627407073975
1773047959250564000,3.353564208984375,7.180262565612793,1.113858938217163,-4.786841869354248
1773047959260487700,3.36348779296875,8.171489715576172,0.6209374666213989,-6.677769660949707
1773047959270472200,3.37347216796875,9.17707347869873,0.49172505736351013,-6.433701992034912
1773047959280441600,3.383441650390625,10.082158088684082,0.5778666734695435,-4.2454657554626465
1773047959290424600,3.393424560546875,9.435498237609863,0.9367900490760803,-4.551746845245361
1773047959300401400,3.4034013671875,7.194619655609131,2.162513494491577,-4.9639105796813965
1773047959310378200,3.413378173828125,9.497711181640625,0.8267202377319336,-5.576473236083984
1773047959320349200,3.42334912109375,9.77109146118164,0.9415757060050964,-3.9631125926971436
1773047959330331000,3.433330810546875,8.066205024719238,1.5355939865112305,-5.509474277496338
1773047959340303000,3.44330322265625,7.865208148956299,1.1330015659332275,-5.825924873352051
1773047959350283800,3.45328369140625,8.109275817871094,0.7980063557624817,-3.8195431232452393
1773047959360256800,3.4632568359375,7.362117290496826,0.4103690981864929,-5.6099724769592285
1773047959370237000,3.47323681640625,7.319046497344971,0.7692924737930298,-6.874579429626465
1773047959380210700,3.483210693359375,8.118846893310547,0.9511470198631287,-4.542175769805908
1773047959390190000,3.493190185546875,8.904291152954102,0.6831508874893188,-3.800400495529175
1773047959400164600,3.50316455078125,9.06700325012207,0.2667997181415558,-5.255835056304932
1773047959410143500,3.5131435546875,9.09093189239502,-0.08793623000383377,-6.0747785568237305
1773047959420118300,3.5231181640625,8.032705307006836,0.09870393574237823,-4.499104976654053
1773047959430097000,3.533096923828125,7.587640762329102,0.2715853750705719,-4.058825492858887
1773047959440072200,3.543072265625,7.366902828216553,0.5874379873275757,-4.661816596984863
1773047959450050300,3.55305029296875,7.486543655395508,1.1330015659332275,-6.970292568206787
1773047959460025900,3.56302587890625,7.515257835388184,0.8123632669448853,-5.265406131744385
1773047959470004000,3.57300390625,8.563912391662598,0.28115665912628174,-4.2693939208984375
1773047959479979800,3.582979736328125,9.08135986328125,0.5778666734695435,-5.633901119232178
1773047959489957600,3.59295751953125,9.244071960449219,0.836291491985321,-6.366703033447266
1773047959499933700,3.60293359375,8.506484031677246,0.3433700501918793,-4.9878387451171875
1773047959509911300,3.612911376953125,8.147561073303223,0.30508488416671753,-4.393820762634277
1773047959519887400,3.622887451171875,8.166703224182129,1.0277173519134521,-4.782055854797363
1773047959529865000,3.632864990234375,7.989634990692139,0.9463613629341125,-4.197608947753906
1773047959539841300,3.64284130859375,8.516056060791016,0.22791635990142822,-3.4791641235351562
1773047959549818600,3.652818603515625,8.425128936767578,0.1657029688358307,-4.700700283050537
1773047959559795000,3.662794921875,7.975277900695801,-0.29371899366378784,-5.078765869140625
1773047959569772300,3.672772216796875,7.946564197540283,-0.13100704550743103,-5.241477966308594
1773047959579748900,3.682748779296875,7.994420528411865,0.49651068449020386,-5.907280921936035
1773047959589726200,3.692726318359375,8.219346046447754,0.026919255033135414,-4.691128730773926
1773047959599702800,3.702702880859375,8.018348693847656,0.486939400434494,-4.097110748291016
1773047959609680000,3.712679931640625,7.668996810913086,1.8370895385742188,-4.767699241638184
1773047959619656400,3.722656494140625,8.81814956665039,1.454237937927246,-4.8538408279418945
1773047959629633500,3.732633544921875,8.83250617980957,0.8219345808029175,-4.001397609710693
1773047959639610400,3.7426103515625,8.655437469482422,0.1417747437953949,-3.1441688537597656
1773047959649587500,3.75258740234375,9.93380355834961,1.2957134246826172,-4.532604217529297
1773047959659564300,3.762564208984375,8.578866958618164,1.4015958309173584,-4.863411903381348
1773047959669541000,3.772541015625,9.014361381530762,0.11306086927652359,-4.796412944793701
1773047959679518000,3.78251806640625,8.391629219055176,-0.01136590726673603,-5.37069034576416
1773047959689495000,3.7924951171875,7.970492362976074,0.30987054109573364,-5.773283004760742
1773047959699472000,3.802471923828125,8.641080856323242,-0.6478567123413086,-4.954339504241943
1773047959709448700,3.81244873046875,6.246463298797607,0.8554341197013855,-6.208776473999023
1773047959719425500,3.822425537109375,7.476972579956055,1.3154542446136475,-5.456831932067871
1773047959729402600,3.832402587890625,9.387641906738281,0.26201409101486206,-3.6131622791290283
1773047959739379500,3.84237939453125,9.382855415344238,1.262213945388794,-4.858626365661621
1773047959749356300,3.852356201171875,8.300702095031738,2.6273193359375,-4.422534465789795
1773047959759333000,3.8623330078125,10.182656288146973,1.82273268699646,-2.138585329055786
1773047959769310200,3.872310302734375,8.703293800354004,1.9663020372390747,-5.816353797912598
1773047959779287000,3.882287109375,8.511270523071289,0.7070791125297546,-4.868197441101074
1773047959789264000,3.892263916015625,9.905089378356934,0.2566302418708801,-3.627519130706787
1773047959799241000,3.902240966796875,10.177870750427246,-1.1413763761520386,-3.2829527854919434
1773047959809217800,3.9122177734375,9.497711181640625,-1.1940184831619263,-3.9391841888427734
1773047959819194600,3.922194580078125,9.1052885055542,-0.45643091201782227,-4.691128730773926
1773047959829171700,3.932171630859375,9.804591178894043,-0.3128615617752075,-4.073182582855225
1773047959839148500,3.9421484375,8.961718559265137,1.2717852592468262,-4.025325775146484
1773047959849125400,3.95212548828125,8.291130065917969,1.3537393808364868,-4.00618314743042
1773047959859102200,3.962102294921875,8.11406135559082,0.7980063557624817,-4.575675010681152
1773047959869079300,3.972079345703125,8.042277336120605,0.8889335989952087,-5.174479007720947
1773047959879056100,3.98205615234375,8.09970474243164,0.9463613629341125,-5.14576530456543
1773047959889033000,3.992032958984375,8.147561073303223,0.4773681163787842,-4.661816596984863
1773047959899009800,4.002009765625,7.400402069091797,0.2667997181415558,-4.954339504241943
1773047959908987000,4.01198681640625,7.52004337310791,0.6592226624488831,-5.883352756500244
1773047959918963700,4.021963623046875,7.510472297668457,0.4582255482673645,-5.193621635437012
1773047959928940800,4.03194091796875,8.544769287109375,0.1944168359041214,-4.604389190673828
1773047959938820600,4.041820556640625,7.994420528411865,-0.054436713457107544,-3.8147575855255127
1773047959948700700,4.05170068359375,8.147561073303223,0.3433700501918793,-4.863411903381348
1773047959958871300,4.061871337890625,9.009575843811035,1.1617153882980347,-4.777270317077637
1773047959968848100,4.07184814453125,8.803792953491211,0.5443671345710754,-3.8147575855255127
1773047959978825200,4.0818251953125,9.756733894348145,0.6831508874893188,-3.9008991718292236
1773047959988802000,4.091802001953125,10.551151275634766,0.592223584651947,-2.837887763977051
1773047959998779100,4.101779052734375,9.019146919250488,0.3481557071208954,-3.10109806060791
1773047960008756000,4.111755859375,11.08774185180664,1.085145115852356,-3.019742250442505
1773047960018732800,4.12173291015625,9.54078197479248,1.358525037765503,-2.531008243560791
1773047960028709600,4.131709716796875,8.401200294494629,1.1234302520751953,-3.872185230255127
1773047960038589700,4.141589599609375,8.204988479614258,1.4877375364303589,-4.992624282836914
1773047960048469800,4.1514697265625,8.569295883178711,1.01814603805542,-5.088337421417236
1773047960058640400,4.161640380859375,8.84207820892334,-0.04486542567610741,-4.034897327423096
1773047960068617500,4.171617431640625,8.300702095031738,0.1178465187549591,-3.517449378967285
1773047960078555400,4.181555419921875,8.429914474487305,0.5730810165405273,-5.054837703704834
1773047960088528400,4.1915283203125,8.271987915039062,0.6927221417427063,-5.318048477172852
1773047960098509300,4.20150927734375,7.76470947265625,0.7214360237121582,-4.077968120574951
1773047960108483000,4.211483154296875,8.070990562438965,0.8219345808029175,-3.617947816848755
1773047960118424000,4.221424072265625,8.286344528198242,0.7262216806411743,-4.97348165512085
1773047960128394800,4.231394775390625,8.569295883178711,0.12263216078281403,-5.504688262939453
1773047960138455600,4.24145556640625,8.315058708190918,0.2955136001110077,-4.149752616882324
1773047960148435200,4.251435302734375,8.147561073303223,0.3194418251514435,-4.168895244598389
1773047960158370600,4.26137060546875,8.329415321350098,0.6305087804794312,-4.585246562957764
1773047960168345900,4.271345947265625,8.396414756774902,0.3720839321613312,-5.0356950759887695
1773047960178324500,4.281324462890625,8.808578491210938,0.4582255482673645,-4.8777689933776855
1773047960188300000,4.291300048828125,8.885149002075195,0.30987054109573364,-4.393820762634277
1773047960198278100,4.301278076171875,8.338987350463867,0.3433700501918793,-3.738187074661255
1773047960208254000,4.31125390625,8.123632431030273,0.5682953596115112,-5.217549800872803
1773047960218271000,4.32127099609375,8.626724243164062,0.8602197170257568,-5.845067501068115
1773047960228251000,4.3312509765625,8.727222442626953,0.6209374666213989,-3.690330743789673
1773047960238130700,4.341130615234375,8.588438987731934,0.6209374666213989,-3.1824541091918945
1773047960248010800,4.3510107421875,9.071788787841797,0.6831508874893188,-5.490331649780273
1773047960267913000,4.370912841796875,9.038289070129395,0.3194418251514435,-3.8913278579711914
1773047960278015200,4.38101513671875,8.631509780883789,0.5156532526016235,-3.5030922889709473
1773047960287996700,4.39099658203125,8.530412673950195,0.9990034699440002,-4.470390796661377
1773047960297930200,4.40093017578125,9.05264663696289,0.7884350419044495,-5.131408214569092
1773047960307906800,4.41090673828125,9.253643035888672,0.16091732680797577,-4.661816596984863
1773047960317845200,4.42084521484375,8.827720642089844,-0.030508488416671753,-3.723830223083496
1773047960327818000,4.43081787109375,8.918647766113281,0.47258245944976807,-4.240679740905762
1773047960337799200,4.440799072265625,8.588438987731934,0.989432156085968,-5.040481090545654
1773047960347772700,4.450772705078125,8.765507698059082,0.7405785918235779,-4.863411903381348
1773047960357714200,4.460714111328125,8.506484031677246,0.8219345808029175,-3.311666488647461
1773047960367684400,4.470684326171875,8.09970474243164,0.9272187948226929,-3.6323046684265137
1773047960377590500,4.480590576171875,8.48734188079834,0.7262216806411743,-5.4041900634765625
1773047960387554300,4.49055419921875,8.808578491210938,0.5682953596115112,-4.65224552154541
1773047960397544200,4.500544189453125,8.267202377319336,0.8889335989952087,-3.0580272674560547
1773047960407510500,4.510510498046875,8.214560508728027,1.0037890672683716,-3.4169507026672363
1773047960417420500,4.520420654296875,8.62193775177002,0.9176474809646606,-4.892126083374023
1773047960427381200,4.53038134765625,9.425926208496094,0.5204389095306396,-4.513461589813232
1773047960437335600,4.54033544921875,9.20578670501709,0.21355941891670227,-3.321237802505493
1773047960447295500,4.55029541015625,8.449056625366211,0.15613168478012085,-4.671388149261475
1773047960457250300,4.560250244140625,9.186644554138184,0.20398813486099243,-5.375475883483887
1773047960467210000,4.5702099609375,8.085348129272461,0.4342973232269287,-4.77248477935791
1773047960477126700,4.580126708984375,8.018348693847656,0.534795880317688,-3.872185230255127
1773047960487082000,4.59008203125,8.3629150390625,0.7549355626106262,-4.3794636726379395
1773047960497080000,4.600080078125,7.8556365966796875,0.6544370055198669,-5.442475318908691
1773047960507039700,4.610039794921875,7.922635555267334,0.1657029688358307,-5.284548759460449
1773047960516918000,4.61991796875,8.171489715576172,0.47258245944976807,-4.384249210357666
1773047960526869500,4.629869384765625,7.994420528411865,1.2047861814498901,-4.221537113189697
1773047960536832800,4.639832763671875,8.382058143615723,0.7980063557624817,-4.810770034790039
1773047960546785500,4.64978564453125,8.252845764160156,0.28594231605529785,-5.1840500831604
1773047960556786200,4.6597861328125,8.95693302154541,0.2667997181415558,-3.9152560234069824
1773047960566743800,4.669743896484375,9.258428573608398,0.09870393574237823,-3.9487555027008057
1773047960576923600,4.679923583984375,9.795019149780273,-0.001794616924598813,-5.198407173156738
1773047960587103700,4.690103759765625,9.919445991516113,0.6496513485908508,-4.044468402862549
1773047960597283800,4.700283935546875,9.1052885055542,0.989432156085968,-1.937588095664978
1773047960607389700,4.7103896484375,9.110074043273926,0.4821537733078003,-3.4887354373931885
1773047960617346600,4.7203466796875,9.445069313049316,0.0891326442360878,-4.762913703918457
1773047960627339800,4.73033984375,8.880363464355469,0.11306086927652359,-3.5126636028289795
1773047960637300500,4.740300537109375,8.042277336120605,0.43908295035362244,-2.48315167427063
1773047960647290400,4.750290283203125,9.129216194152832,0.38644084334373474,-4.350749969482422
1773047960657254400,4.76025439453125,9.488140106201172,0.8602197170257568,-3.7956149578094482
1773047960667241700,4.77024169921875,9.06700325012207,1.3968101739883423,-2.239083766937256
1773047960677218600,4.780218505859375,9.244071960449219,1.2574282884597778,-3.263810157775879
1773047960707147300,4.810147216796875,10.316655158996582,1.5260226726531982,-0.4576273262500763
1773047960717027300,4.82002734375,10.743175506591797,1.7988044023513794,-3.335594654083252
1773047960726843600,4.82984375,9.057432174682617,0.8267202377319336,-0.0077766734175384045
1773047960737023700,4.840023681640625,11.240882873535156,1.0037890672683716,-0.8123632669448853
1773047960747057200,4.85005712890625,9.076574325561523,1.1904292106628418,-1.8323038816452026
1773047960757023500,4.8600234375,8.559126853942871,0.8219345808029175,-4.2933220863342285
1773047960767008800,4.8700087890625,8.755936622619629,0.2566302418708801,-1.82273268699646
1773047960776888800,4.879888916015625,10.235299110412598,-0.4181457459926605,-0.6209374666213989
1773047960786962700,4.889962646484375,9.89551830291748,-0.7627122402191162,0.5431707501411438
1773047960796931300,4.899931396484375,9.56471061706543,-0.07836493849754333,-0.42412781715393066
1773047960806914800,4.909914794921875,8.602795600891113,0.5300102233886719,-0.7597211599349976
1773047960816885000,4.919885009765625,9.272786140441895,1.358525037765503,-1.176072359085083
1773047960826867500,4.929867431640625,12.16511058807373,3.2350962162017822,-3.0867412090301514
1773047960836839000,4.9398388671875,11.96889877319336,1.358525037765503,-1.2095718383789062
1773047960846820000,4.949820068359375,7.33340311050415,0.8554341197013855,-1.109073281288147
1773047960856792800,4.959792724609375,8.176275253295898,2.723032236099243,-1.7461622953414917
1773047960866773200,4.969773193359375,9.559925079345703,2.7326035499572754,-0.1944168359041214
1773047960876746500,4.97974658203125,9.885947227478027,0.9990034699440002,-0.9272187948226929
1773047960886726100,4.98972607421875,9.062217712402344,0.9128618240356445,-0.8745766878128052
1773047960896700400,4.999700439453125,8.712865829467773,1.334596872329712,-0.37148571014404297
1773047960906679600,5.009679443359375,9.19143009185791,1.0516455173492432,-0.5395814776420593
1773047960916654300,5.019654296875,10.187442779541016,0.9511470198631287,-1.7413766384124756
1773047960926633000,5.029633056640625,9.986445426940918,0.5730810165405273,-1.6408780813217163
1773047960936608000,5.03960791015625,8.334200859069824,0.01734796352684498,-0.4576273262500763
1773047960946586400,5.04958642578125,9.914660453796387,0.5204389095306396,-1.0755738019943237
1773047960956466400,5.059466552734375,14.405988693237305,0.7549355626106262,1.074377417564392
1773047960966284300,5.0692841796875,7.6498541831970215,0.33379876613616943,-1.022931694984436
1773047960976283000,5.079282958984375,9.459425926208496,0.19920247793197632,0.5670989751815796
1773047960986242300,5.0892421875,10.704890251159668,0.4103690981864929,-0.7597211599349976
1773047960996422100,5.099422119140625,10.469795227050781,0.39601215720176697,-2.1672990322113037
1773047961006455800,5.109455810546875,9.368498802185059,-0.06400800496339798,0.3128615617752075
1773047961016423200,5.119423095703125,9.31585693359375,0.13220344483852386,0.1501496136188507
1773047961026407700,5.12940771484375,11.528020858764648,0.30508488416671753,-2.4496521949768066
1773047961036377000,5.139377197265625,9.93380355834961,0.0891326442360878,-1.4249259233474731
1773047961046360000,5.149360107421875,8.995218276977539,0.6592226624488831,1.1126625537872314
1773047961056330800,5.159330810546875,10.589436531066895,0.7501499056816101,-0.6544370055198669
1773047961066312700,5.169312744140625,10.814960479736328,0.12263216078281403,-2.5740790367126465
1773047961076284700,5.17928466796875,8.837292671203613,0.18005990982055664,-0.34277185797691345
1773047961086265600,5.189265625,9.100502967834473,0.9846464991569519,0.638883650302887
1773047961096238600,5.199238525390625,10.795817375183105,0.9415757060050964,-2.1577277183532715
1773047961106218500,5.209218505859375,9.445069313049316,0.9032905697822571,-1.439282774925232
1773047961116192300,5.219192138671875,8.612366676330566,0.3242274820804596,0.40378883481025696
1773047961126172000,5.229171875,9.943374633789062,0.49172505736351013,-0.5874379873275757
1773047961136146200,5.239146240234375,10.441082000732422,1.0995019674301147,-1.9040886163711548
1773047961146125000,5.249125,8.937790870666504,0.9272187948226929,-0.6161518096923828
1773047961156100000,5.25910009765625,9.172286987304688,0.49172505736351013,0.48514479398727417
1773047961166078500,5.269078369140625,9.694520950317383,0.36251261830329895,-1.1473584175109863
1773047961176053800,5.2790537109375,10.063015937805176,0.711864709854126,-1.534995675086975
1773047961186032000,5.2890322265625,8.429914474487305,0.6544370055198669,-0.022133609279990196
1773047961196007700,5.299007568359375,8.650651931762695,0.7166503667831421,-0.07956135272979736
1773047961205985500,5.308985595703125,9.952945709228516,1.3680963516235352,-1.5589239597320557
1773047961215961600,5.318961669921875,9.507282257080078,1.425524115562439,-0.4624129831790924
1773047961225939200,5.328939208984375,9.224929809570312,0.07477571070194244,0.8542376756668091
1773047961235915300,5.338915283203125,10.307083129882812,1.1377872228622437,-0.30927231907844543
1773047961245892900,5.348892822265625,9.761520385742188,1.908874273300171,-0.9846464991569519
1773047961255773000,5.35877294921875,8.722436904907227,1.0947163105010986,0.2841476798057556
1773047961265590800,5.3685908203125,9.952945709228516,0.8745766878128052,0.15972091257572174
1773047961275771000,5.37877099609375,10.412367820739746,1.3154542446136475,-0.9463613629341125
1773047961285805300,5.388805419921875,10.01037311553955,0.9032905697822571,-1.2478569746017456
1773047961295776800,5.39877685546875,8.837292671203613,0.7357929348945618,0.3607180118560791
1773047961305758200,5.40875830078125,10.163514137268066,0.8075776696205139,-0.6017948985099792
1773047961315730400,5.41873046875,10.110872268676758,0.6448656916618347,-0.9367900490760803
1773047961325711000,5.428711181640625,10.043872833251953,0.22791635990142822,0.4660021960735321
1773047961335684400,5.438684326171875,10.000802040100098,0.13220344483852386,-0.24227328598499298
1773047961345664000,5.4486640625,11.331809997558594,0.4582255482673645,-1.2574282884597778
1773047961355638300,5.45863818359375,9.478569030761719,0.6927221417427063,-0.026919255033135414
1773047961365617400,5.468617431640625,10.436295509338379,-0.18364913761615753,-0.026919255033135414
1773047961375497500,5.47849755859375,10.637292861938477,0.012562318705022335,-1.195214867591858
1773047961385315000,5.488315185546875,10.14437198638916,0.1944168359041214,-0.9320043921470642
1773047961395495000,5.498494873046875,9.272786140441895,0.07477571070194244,0.5527420043945312
1773047961405529300,5.508529296875,10.7766752243042,-0.09272187948226929,-0.9607182741165161
1773047961415409200,5.5184091796875,10.359725952148438,0.2907279431819916,-1.3100703954696655
1773047961425226000,5.52822607421875,10.690533638000488,0.012562318705022335,-0.3762713670730591
1773047961435406000,5.538406005859375,10.359725952148438,0.03170489892363548,-0.7501499056816101
1773047961445439500,5.548439453125,10.512866020202637,0.5491527915000916,-0.898504912853241
1773047961455407000,5.558406982421875,8.803792953491211,0.836291491985321,-0.7836494445800781
1773047961465391600,5.5683916015625,10.043872833251953,0.4295116662979126,-0.6975077986717224
1773047961475361000,5.578361083984375,9.268000602722168,0.23748764395713806,-0.9655039310455322
1773047961485344000,5.588343994140625,8.641080856323242,0.5778666734695435,-0.5635097622871399
1773047961495314700,5.598314697265625,9.766305923461914,0.5778666734695435,-1.6169499158859253
1773047961505296600,5.608296630859375,9.378069877624512,0.3529413342475891,-1.5882359743118286
1773047961515268600,5.6182685546875,8.539983749389648,0.26201409101486206,0.47557350993156433
1773047961525249500,5.62824951171875,9.435498237609863,0.050847481936216354,-1.2143574953079224
1773047961535222500,5.638222412109375,11.049456596374512,0.4582255482673645,-2.6321048736572266
1773047961545202400,5.648202392578125,8.520841598510742,0.865005373954773,0.03529413416981697
1773047961555176200,5.65817626953125,8.051848411560059,0.36251261830329895,0.5288137793540955
1773047961565155600,5.668155517578125,9.991230964660645,0.7214360237121582,-2.6321048736572266
1773047961575130000,5.678130126953125,9.2919282913208,0.9942178130149841,-1.6265212297439575
1773047961585109200,5.688109130859375,7.070192813873291,0.8841479420661926,1.25144624710083
1773047961595123000,5.698123046875,9.862018585205078,0.9080761671066284,-0.8697910308837891
1773047961605105200,5.708105224609375,10.05823040008545,1.1521440744400024,-2.48315167427063
1773047961615038000,5.718037841796875,8.875576972961426,0.5874379873275757,0.9068797826766968
1773047961625015300,5.728015380859375,10.015159606933594,0.3768695592880249,-0.3475574851036072
1773047961634991600,5.73799169921875,9.890732765197754,0.778863787651062,-1.9663020372390747
1773047961644969000,5.747968994140625,9.248857498168945,0.6831508874893188,0.6293123364448547
1773047961654945500,5.757945556640625,9.694520950317383,0.31465616822242737,0.11665010452270508
1773047961664923000,5.7679228515625,10.307083129882812,0.09870393574237823,-1.7126628160476685
1773047961674899500,5.7778994140625,8.971290588378906,0.5395814776420593,-0.3236292600631714
1773047961684876500,5.78787646484375,9.833304405212402,0.6400800347328186,0.2793620526790619
1773047961694853000,5.79785302734375,9.905089378356934,0.06999006122350693,-1.7174484729766846
1773047961704830200,5.807830322265625,9.914660453796387,0.9224331378936768,-0.5443671345710754
1773047961714807000,5.81780712890625,9.728020668029785,0.7310073375701904,-0.3188436031341553
1773047961724784000,5.8277841796875,10.039087295532227,0.8793623447418213,-0.6209374666213989
1773047961734761000,5.837760986328125,9.795019149780273,1.0277173519134521,-0.0029910283628851175
1773047961744737800,5.84773779296875,10.05823040008545,0.8793623447418213,-0.5300102233886719
1773047961754714600,5.857714599609375,10.546365737915039,0.6831508874893188,-1.3387842178344727
1773047961764691700,5.867691650390625,8.899505615234375,0.33379876613616943,0.21714866161346436
1773047961774571800,5.87757177734375,10.29751205444336,0.9463613629341125,-0.5826523303985596
1773047961784390000,5.887389892578125,10.838888168334961,0.8410771489143372,-2.224726915359497
1773047961794569700,5.89756982421875,9.775876998901367,0.6544370055198669,-0.18484555184841156
1773047961804604400,5.9076044921875,9.421140670776367,0.989432156085968,-0.3810569941997528
1773047961814484200,5.917484130859375,10.867602348327637,1.6456637382507324,-0.9080761671066284
1773047961824301300,5.92730126953125,9.148359298706055,1.5451651811599731,-1.085145115852356
1773047961834481400,5.9374814453125,9.656235694885254,1.334596872329712,1.246660590171814
1773047961844515000,5.94751513671875,11.092527389526367,0.8937192559242249,-1.4297115802764893
1773047961854483500,5.9574833984375,8.248059272766113,1.1856436729431152,-1.2143574953079224
1773047961864467500,5.967467529296875,11.054242134094238,0.5443671345710754,0.24586252868175507
1773047961874437400,5.977437255859375,9.531210899353027,1.358525037765503,-1.0564311742782593
1773047961884419800,5.987419921875,11.532807350158691,0.6305087804794312,-0.9176474809646606
1773047961894391300,5.997391357421875,8.276773452758789,0.5778666734695435,-0.6448656916618347
1773047961904372700,6.007372802734375,10.958529472351074,1.1856436729431152,-0.11306086927652359
1773047961914345200,6.01734521484375,8.549555778503418,1.3106685876846313,-0.7692924737930298
1773047961924325600,6.02732568359375,10.096514701843262,1.2957134246826172,-0.4289134442806244
1773047961934205700,6.037205810546875,10.541580200195312,0.8075776696205139,-0.9511470198631287
1773047961944023000,6.04702294921875,8.971290588378906,0.9080761671066284,-0.2231307178735733
1773047961954203000,6.057202880859375,9.828518867492676,1.1330015659332275,-0.2757728099822998
1773047961964237000,6.067237060546875,10.254441261291504,0.14656038582324982,-1.8179470300674438
1773047961974206500,6.07720654296875,9.871589660644531,0.46779683232307434,-0.08434699475765228
1773047961984189400,6.087189453125,8.751151084899902,0.5395814776420593,0.35114672780036926
1773047961994160400,6.097160400390625,9.996016502380371,0.2470589429140091,-1.8753747940063477
1773047962004142000,6.10714208984375,9.569496154785156,0.49651068449020386,-0.6927221417427063
1773047962014114300,6.1171142578125,9.181859016418457,0.2231307178735733,0.7345965504646301
1773047962024095200,6.12709521484375,10.326226234436035,0.16091732680797577,-1.046859860420227
1773047962034068200,6.137068115234375,10.125228881835938,0.11306086927652359,-1.32921302318573
1773047962044048100,6.147048095703125,9.583852767944336,0.39122650027275085,0.2027917206287384
1773047962054022100,6.157022216796875,10.63250732421875,0.3577269911766052,-0.6687939167022705
1773047962064001300,6.167001220703125,9.761520385742188,0.2907279431819916,-1.1904292106628418
1773047962073976000,6.17697607421875,9.287142753601074,0.15613168478012085,-0.2949153780937195
1773047962083954700,6.18695458984375,9.593423843383789,0.592223584651947,-0.4001995921134949
1773047962093929700,6.1969296875,9.363713264465332,1.0372886657714844,-0.9607182741165161
1773047962103908000,6.206908203125,10.225728034973145,-0.12143574655056,-0.6305087804794312
1773047962113883600,6.216883544921875,8.535198211669922,0.2231307178735733,-0.6352944374084473
1773047962123861800,6.22686181640625,9.411569595336914,1.1521440744400024,-1.1282159090042114
1773047962133741800,6.236741943359375,11.116456031799316,0.4773681163787842,-1.0803594589233398
1773047962143602200,6.246602294921875,8.827720642089844,0.6496513485908508,-0.4049852192401886
1773047962153791200,6.256791259765625,10.077372550964355,0.46779683232307434,0.0687936544418335
1773047962163773200,6.266773193359375,10.64686393737793,0.41515472531318665,-1.200000524520874
1773047962173745000,6.276744873046875,9.488140106201172,1.1856436729431152,-1.0325030088424683
1773047962183726000,6.28672607421875,9.296713829040527,1.3489537239074707,0.45643091201782227
1773047962193698800,6.29669873046875,10.613365173339844,0.28594231605529785,-1.195214867591858
1773047962203679000,6.306678955078125,8.83250617980957,1.4781662225723267,-1.5589239597320557
1773047962213559000,6.31655908203125,10.488938331604004,0.6544370055198669,-0.20398813486099243
1773047962223419000,6.3264189453125,9.09093189239502,0.8841479420661926,-0.12263216078281403
1773047962233606400,6.3366064453125,9.92423152923584,0.6592226624488831,-0.6544370055198669
1773047962243589600,6.346589599609375,10.599007606506348,0.41994038224220276,-1.3866406679153442
1773047962253560300,6.356560302734375,9.45464038848877,0.8171489238739014,-1.3627125024795532
1773047962263542300,6.366542236328125,8.047062873840332,0.8315058946609497,0.4420739710330963
1773047962273514200,6.37651416015625,9.981659889221191,0.5635097622871399,-1.602592945098877
1773047962283495200,6.3864951171875,8.60758113861084,0.7932206988334656,-2.1242282390594482
1773047962293468200,6.39646826171875,7.9657063484191895,1.1042876243591309,-0.04127619042992592
1773047962303448300,6.4064482421875,9.244071960449219,0.9320043921470642,-0.8075776696205139
1773047962313421800,6.416421875,9.478569030761719,0.9559326171875,-1.2287144660949707
1773047962323401500,6.4264013671875,8.372486114501953,0.7645068168640137,-0.08434699475765228
1773047962333375700,6.436375732421875,11.566306114196777,0.6687939167022705,-0.9367900490760803
1773047962343355000,6.44635498046875,8.808578491210938,0.9224331378936768,-1.1473584175109863
1773047962353329700,6.45632958984375,9.095717430114746,0.9846464991569519,-0.23270200192928314
1773047962363308300,6.466308349609375,10.594222068786621,0.43908295035362244,-1.3914263248443604
1773047962373283600,6.47628369140625,8.276773452758789,1.3010972738265991,-0.7501499056816101
1773047962383261700,6.48626171875,9.215357780456543,0.7980063557624817,0.20757736265659332
1773047962393237200,6.4962373046875,10.321440696716309,0.5682953596115112,-1.1904292106628418
1773047962403215400,6.50621533203125,9.516854286193848,0.2715853750705719,-0.1178465187549591
1773047962413191200,6.516191162109375,10.555936813354492,0.36251261830329895,-1.0372886657714844
1773047962423169000,6.5261689453125,10.177870750427246,1.4015958309173584,-0.5826523303985596
1773047962433145000,6.53614501953125,10.273584365844727,0.8410771489143372,-0.04127619042992592
1773047962443122700,6.546122802734375,8.751151084899902,0.711864709854126,-1.0755738019943237
1773047962453098800,6.5560986328125,10.589436531066895,1.0707881450653076,-0.5395814776420593
1773047962463076400,6.566076416015625,8.827720642089844,0.8602197170257568,-0.5539384484291077
1773047962473052700,6.576052734375,11.121241569519043,0.5970092415809631,-0.12263216078281403
1773047962483030000,6.586030029296875,9.023932456970215,0.4582255482673645,-0.357128769159317
1773047962493006600,6.596006591796875,11.470593452453613,0.7405785918235779,-0.9846464991569519
1773047962502984000,6.60598388671875,9.92423152923584,0.6065805554389954,-0.6113662123680115
1773047962512960300,6.615960205078125,9.756733894348145,0.30987054109573364,-0.08434699475765228
1773047962522937600,6.6259375,10.378868103027344,0.6831508874893188,-0.47676992416381836
1773047962532914200,6.6359140625,10.50808048248291,0.07477571070194244,-1.0133603811264038
1773047962542891300,6.645891357421875,9.531210899353027,-0.18364913761615753,-0.17527425289154053
1773047962552868000,6.6558681640625,10.24487018585205,0.39601215720176697,-0.2183450609445572
1773047962562845200,6.66584521484375,9.406784057617188,0.6496513485908508,-0.13698910176753998
1773047962572822000,6.675822021484375,10.235299110412598,0.1944168359041214,-0.8554341197013855
1773047962582798800,6.685798828125,9.976874351501465,0.5491527915000916,-0.6209374666213989
1773047962592775700,6.695775634765625,9.334999084472656,0.7310073375701904,-0.0077766734175384045
1773047962602752800,6.705752685546875,10.340582847595215,0.06999006122350693,-1.2335001230239868
1773047962612632800,6.7156328125,9.129216194152832,0.49172505736351013,-0.6400800347328186
1773047962622493400,6.725493408203125,9.1052885055542,0.39122650027275085,-0.2997010350227356
1773047962632683300,6.735683349609375,10.101301193237305,0.11306086927652359,-0.9463613629341125
1773047962642664400,6.74566455078125,8.799007415771484,0.10827522724866867,-0.5539384484291077
1773047962652637200,6.75563720703125,9.790233612060547,0.4821537733078003,0.05922235921025276
1773047962662617600,6.76561767578125,9.766305923461914,0.9032905697822571,-0.9320043921470642
1773047962672591000,6.775591064453125,9.986445426940918,0.44386860728263855,-0.49591249227523804
1773047962682570800,6.78557080078125,10.589436531066895,0.33858439326286316,-0.5300102233886719
1773047962692545000,6.795544921875,8.866005897521973,0.8267202377319336,-0.357128769159317
1773047962702524000,6.80552392578125,10.64686393737793,0.3577269911766052,-0.39541393518447876
1773047962712404000,6.815404052734375,9.512067794799805,0.8554341197013855,-1.3914263248443604
1773047962722264300,6.825264404296875,9.914660453796387,0.7357929348945618,-0.251844584941864
1773047962732258600,6.835258544921875,9.229715347290039,0.28115665912628174,-0.8745766878128052
1773047962742221300,6.84522119140625,9.076574325561523,0.8889335989952087,-0.8027920126914978
1773047962752406300,6.85540625,10.053443908691406,0.5300102233886719,-0.5970092415809631
1773047962762391600,6.8653916015625,9.244071960449219,0.6640082597732544,-1.1186445951461792
1773047962772360200,6.875360107421875,10.029516220092773,0.36251261830329895,-0.2805584669113159
1773047962782344000,6.885343994140625,10.211370468139648,0.49172505736351013,-0.7166503667831421
1773047962792313900,6.89531396484375,10.316655158996582,0.9128618240356445,-0.4097708761692047
1773047962802296300,6.90529638671875,10.527223587036133,0.50129634141922,-0.41934216022491455
1773047962812267800,6.915267822265625,9.78544807434082,1.1042876243591309,-0.7932206988334656
1773047962822249200,6.925249267578125,9.258428573608398,1.2478569746017456,0.21236300468444824
1773047962832221700,6.9352216796875,9.818947792053223,1.0564311742782593,-1.171286702156067
1773047962842202000,6.9452021484375,8.617152214050293,1.3441680669784546,-1.5882359743118286
1773047962852175600,6.955175537109375,8.961718559265137,1.0995019674301147,-0.8171489238739014
1773047962862155300,6.9651552734375,9.574281692504883,1.4111671447753906,-0.6496513485908508
1773047962872129500,6.975129638671875,9.229715347290039,1.2335001230239868,0.0975075215101242
1773047962882108700,6.985108642578125,11.3509521484375,0.7405785918235779,-0.6640082597732544
1773047962892083500,6.99508349609375,10.814960479736328,0.9798609018325806,-0.898504912853241
1773047962902062000,7.00506201171875,9.790233612060547,1.0660024881362915,1.0217353105545044
1773047962912037000,7.015037109375,10.50808048248291,0.04127619042992592,-0.9367900490760803
1773047962922015500,7.025015380859375,8.047062873840332,0.8027920126914978,-1.420140266418457
1773047962931991000,7.034990966796875,9.54078197479248,0.7645068168640137,0.8303094506263733
1773047962941969200,7.04496923828125,8.549555778503418,0.592223584651947,-0.8937192559242249
1773047962951945000,7.054945068359375,10.04865837097168,0.3720839321613312,-0.8171489238739014
1773047962961922600,7.064922607421875,10.192228317260742,0.022133609279990196,0.6580262184143066
1773047962971899000,7.07489892578125,9.680164337158203,0.8123632669448853,-0.24227328598499298
1773047962981876500,7.08487646484375,11.873186111450195,0.5874379873275757,-0.4289134442806244
1773047962991852500,7.0948525390625,10.685748100280762,0.18963119387626648,-0.6735795736312866
1773047963001830100,7.104830078125,9.641879081726074,0.28594231605529785,1.1030912399291992
1773047963011806500,7.114806396484375,10.24487018585205,0.13220344483852386,0.6867401003837585
1773047963021783800,7.12478369140625,9.004789352416992,-0.020937198773026466,-1.2382856607437134
1773047963031760400,7.134760498046875,10.4219388961792,0.30987054109573364,-0.22791635990142822
1773047963041737500,7.144737548828125,8.094919204711914,0.9224331378936768,0.1501496136188507
1773047963051617500,7.154617431640625,9.622735977172852,1.1617153882980347,0.8590233325958252
1773047963061435600,7.164435546875,8.837292671203613,0.4342973232269287,-0.45284169912338257
1773047963071615700,7.17461572265625,10.024730682373047,0.7166503667831421,-0.15613168478012085
1773047963081650200,7.184650146484375,9.464211463928223,0.7740781307220459,1.1030912399291992
1773047963091621600,7.19462158203125,9.967302322387695,0.9511470198631287,1.2658032178878784
1773047963101603000,7.20460302734375,9.507282257080078,1.1473584175109863,0.01136590726673603
1773047963111575600,7.214575439453125,10.622936248779297,0.7070791125297546,-0.01734796352684498
1773047963121556000,7.224555908203125,9.943374633789062,0.7932206988334656,-0.09391828626394272
1773047963131435800,7.234435791015625,9.751948356628418,0.989432156085968,-0.3475574851036072
1773047963141253400,7.24425341796875,9.392427444458008,1.3154542446136475,0.5527420043945312
1773047963151433500,7.25443359375,9.833304405212402,0.46779683232307434,0.21236300468444824
1773047963161467400,7.26446728515625,9.632308006286621,-0.22193430364131927,-1.0277173519134521
1773047963171437000,7.27443701171875,10.106086730957031,0.1178465187549591,0.07836493849754333
1773047963181419800,7.284419677734375,9.047860145568848,0.9463613629341125,0.7154539823532104
1773047963191391000,7.294390869140625,9.215357780456543,0.3577269911766052,-0.6687939167022705
1773047963201372400,7.304372314453125,10.64686393737793,0.6879364848136902,-1.333998680114746
1773047963211344600,7.3143447265625,8.789435386657715,1.6169499158859253,0.5042873620986938
1773047963221325300,7.3243251953125,8.779864311218262,1.042074203491211,1.6636099815368652
1773047963231298600,7.334298583984375,9.459425926208496,0.47258245944976807,-1.5397813320159912
1773047963241278500,7.344278564453125,9.406784057617188,0.6448656916618347,0.3607180118560791
1773047963251252500,7.35425244140625,10.0343017578125,0.13698910176753998,0.2554338276386261
1773047963261231900,7.36423193359375,9.062217712402344,0.3768695592880249,-0.6975077986717224
1773047963271206400,7.374206298828125,10.627721786499023,-0.0687936544418335,-0.3858426511287689
1773047963281185300,7.384185302734375,6.869195461273193,1.3250255584716797,-0.1944168359041214
1773047963291160300,7.394160400390625,11.422737121582031,1.1282159090042114,-0.8027920126914978
1773047963301138700,7.404138671875,7.779066562652588,0.3433700501918793,-1.022931694984436
1773047963311114000,7.414114013671875,10.005587577819824,0.7549355626106262,1.1892328262329102
1773047963321092000,7.424092041015625,10.206584930419922,0.9032905697822571,0.8111668825149536
1773047963331106800,7.43410693359375,10.460224151611328,0.2763710021972656,-0.13698910176753998
1773047963341088500,7.444088623046875,10.695319175720215,0.06520441919565201,0.11186445504426956
1773047963351021800,7.454021728515625,10.240084648132324,0.22791635990142822,-0.36191442608833313
1773047963360998700,7.46399853515625,10.570294380187988,0.43908295035362244,-0.18005990982055664
1773047963370975700,7.473975830078125,8.444271087646484,0.23748764395713806,0.45164528489112854
1773047963380952600,7.48395263671875,9.473783493041992,0.5060819983482361,-0.42412781715393066
1773047963390929400,7.493929443359375,9.804591178894043,0.39122650027275085,0.07836493849754333
1773047963400906500,7.503906494140625,10.87717342376709,-0.45164528489112854,-0.012562318705022335
1773047963410883300,7.51388330078125,9.392427444458008,0.28115665912628174,0.5240281820297241
1773047963420860200,7.523860107421875,11.260025024414062,0.7501499056816101,0.14057832956314087
1773047963430837200,7.533837158203125,9.545567512512207,0.9750752449035645,-0.20877377688884735
1773047963440814000,7.54381396484375,10.302297592163086,0.5682953596115112,-0.39541393518447876
1773047963450791000,7.553791015625,9.5264253616333,0.5539384484291077,-0.12741780281066895
1773047963460768000,7.56376806640625,10.50808048248291,0.9798609018325806,0.2315055876970291
1773047963470744800,7.573744873046875,8.789435386657715,0.778863787651062,-0.3188436031341553
1773047963480721700,7.5837216796875,10.05823040008545,0.5970092415809631,-0.09391828626394272
1773047963490698800,7.59369873046875,9.071788787841797,0.6831508874893188,-0.6448656916618347
1773047963500675600,7.603675537109375,10.402796745300293,0.5108676552772522,0.09272187948226929
1773047963510652400,7.61365234375,9.905089378356934,0.5395814776420593,-0.10348957777023315
1773047963520629500,7.62362939453125,10.05823040008545,0.5778666734695435,0.9308080077171326
1773047963530606300,7.6336064453125,9.790233612060547,0.06999006122350693,0.4660021960735321
1773047963540583400,7.64358349609375,9.100502967834473,0.534795880317688,-0.251844584941864
1773047963550560300,7.653560302734375,11.221739768981934,0.5970092415809631,-0.34277185797691345
1773047963560537000,7.663537109375,9.670592308044434,0.3433700501918793,-0.47198426723480225
1773047963570514200,7.67351416015625,9.46899700164795,0.7357929348945618,0.28893333673477173
1773047963580491000,7.683490966796875,8.889934539794922,0.41994038224220276,-0.2805584669113159
1773047963590467800,7.6934677734375,10.589436531066895,0.6305087804794312,-1.6456637382507324
1773047963600445000,7.70344482421875,8.851649284362793,0.865005373954773,-0.5102694034576416
1773047963610324700,7.71332470703125,9.153144836425781,0.8410771489143372,1.4811571836471558
1773047963620143000,7.72314306640625,9.46899700164795,0.8171489238739014,0.07357929646968842
1773047963630323000,7.733322998046875,10.249655723571777,0.7070791125297546,0.28893333673477173
1773047963640357600,7.743357666015625,9.181859016418457,0.6687939167022705,-1.0707881450653076
1773047963650329300,7.753329345703125,10.14437198638916,1.578664779663086,0.355932354927063
1773047963660310300,7.763310302734375,9.7998046875,0.3768695592880249,0.1501496136188507
1773047963670283300,7.773283203125,8.257631301879883,0.6305087804794312,-0.4815555512905121
1773047963680263400,7.783263427734375,10.958529472351074,0.6209374666213989,-0.5730810165405273
1773047963690237000,7.79323681640625,8.880363464355469,0.8219345808029175,0.06400800496339798
1773047963700216600,7.803216552734375,10.536794662475586,0.6305087804794312,0.16450655460357666
1773047963710190800,7.81319091796875,8.837292671203613,0.18484555184841156,0.18843477964401245
1773047963720170000,7.823169921875,11.183454513549805,-0.05922235921025276,-0.23270200192928314
1773047963730144800,7.833144775390625,8.81814956665039,0.6161518096923828,-0.41934216022491455
1773047963740123400,7.843123291015625,11.331809997558594,0.778863787651062,0.34636107087135315
1773047963750098400,7.853098388671875,8.583653450012207,0.9080761671066284,0.25064817070961
1773047963760076800,7.863076904296875,10.7766752243042,0.6640082597732544,-0.5054838061332703
1773047963770052400,7.87305224609375,9.282357215881348,0.06520441919565201,-0.2183450609445572
1773047963780030500,7.883030517578125,9.862018585205078,-0.05922235921025276,0.37028929591178894
1773047963790006300,7.89300634765625,9.507282257080078,0.03170489892363548,-0.33798620104789734
1773047963799983900,7.90298388671875,10.110872268676758,0.0891326442360878,0.24586252868175507
1773047963809960200,7.912960205078125,9.68494987487793,0.13698910176753998,1.0265209674835205
1773047963819937800,7.922937744140625,10.307083129882812,0.3433700501918793,0.42293140292167664
1773047963829913900,7.932913818359375,10.398011207580566,0.7501499056816101,-0.18484555184841156
1773047963839891500,7.942891357421875,10.503294944763184,0.4103690981864929,0.6675975322723389
1773047963849867800,7.95286767578125,9.82373332977295,0.07956135272979736,0.4133601188659668
1773047963859845000,7.96284521484375,10.350153923034668,0.9032905697822571,-0.09870393574237823
1773047963869821700,7.97282177734375,10.38365364074707,0.9750752449035645,0.04486542567610741
1773047963879798800,7.982798828125,9.723235130310059,0.6496513485908508,0.23629122972488403
1773047963889775400,7.992775390625,9.900303840637207,0.6065805554389954,-0.06999006122350693
1773047963899752700,8.002752685546875,9.545567512512207,1.1330015659332275,-0.07956135272979736
1773047963909729300,8.012729248046876,10.340582847595215,0.8793623447418213,-0.18963119387626648
1773047963919706400,8.022706298828124,9.972088813781738,0.7405785918235779,-0.3044866919517517
1773047963929683200,8.03268310546875,9.871589660644531,1.1617153882980347,0.07357929646968842
1773047963939660300,8.042660400390625,9.287142753601074,0.625723123550415,0.4085744619369507
1773047963949637000,8.05263720703125,9.545567512512207,0.6017948985099792,-0.19920247793197632
1773047963959614000,8.062614013671874,9.747162818908691,1.0612168312072754,0.001794616924598813
1773047963969590800,8.0725908203125,8.83250617980957,1.583450436592102,0.7872386574745178
1773047963979567900,8.08256787109375,9.90987491607666,1.4829518795013428,-0.5006981492042542
1773047963989544700,8.092544677734375,9.282357215881348,1.1521440744400024,0.32243284583091736
1773047963999521500,8.102521484375,8.995218276977539,1.0277173519134521,0.7872386574745178
1773047964009498600,8.11249853515625,9.334999084472656,1.4638092517852783,-1.0516455173492432
1773047964019475500,8.122475341796875,9.828518867492676,0.5395814776420593,-1.085145115852356
1773047964029452300,8.132452392578125,9.08135986328125,0.534795880317688,1.1461620330810547
1773047964039429400,8.142429443359376,10.01037311553955,0.9080761671066284,1.093519926071167
1773047964049406200,8.15240625,10.714461326599121,1.200000524520874,-0.7740781307220459
1773047964059383000,8.162383056640625,9.632308006286621,0.8554341197013855,0.7824530005455017
1773047964069360000,8.172360107421875,10.254441261291504,0.6640082597732544,0.672383189201355
1773047964079337000,8.1823369140625,9.425926208496094,1.7078771591186523,-0.012562318705022335
1773047964089314800,8.192314697265624,9.962516784667969,1.4063814878463745,0.50907301902771
1773047964099291600,8.202291748046875,8.147561073303223,0.5491527915000916,-1.6265212297439575
1773047964109268500,8.2122685546875,10.838888168334961,1.4973087310791016,0.049651071429252625
1773047964119245600,8.22224560546875,8.477770805358887,1.0660024881362915,0.3607180118560791
1773047964129222400,8.232222412109374,9.277571678161621,0.4295116662979126,-0.42412781715393066
1773047964139199500,8.242199462890625,11.164312362670898,0.6400800347328186,-1.353141188621521
1773047964149176300,8.25217626953125,9.512067794799805,1.5738791227340698,0.3607180118560791
1773047964159153200,8.262153076171876,9.818947792053223,1.3489537239074707,1.5337992906570435
1773047964169130000,8.2721298828125,9.378069877624512,-0.37507495284080505,-1.6169499158859253
1773047964179107000,8.282107177734375,9.952945709228516,0.4295116662979126,-0.7262216806411743
1773047964189084000,8.292083984375,9.143573760986328,0.7022934556007385,1.0839486122131348
1773047964199061000,8.30206103515625,8.822935104370117,0.6927221417427063,-0.23270200192928314
1773047964209037800,8.312037841796876,9.852447509765625,0.3433700501918793,-1.2239288091659546
1773047964219014700,8.3220146484375,8.539983749389648,0.6640082597732544,0.6197410821914673
1773047964228991700,8.33199169921875,9.559925079345703,0.4247260093688965,0.1788634955883026
1773047964238968600,8.341968505859375,9.780662536621094,0.3433700501918793,-0.8889335989952087
1773047964248945400,8.3519453125,9.847661972045898,0.18484555184841156,0.35114672780036926
1773047964268899300,8.3718994140625,10.642078399658203,0.7262216806411743,-0.12741780281066895
1773047964278876200,8.381876220703125,10.216156005859375,0.10827522724866867,-0.3332005441188812
1773047964288853200,8.391853271484376,9.033503532409668,0.5108676552772522,0.42293140292167664
1773047964298830000,8.401830078125,9.478569030761719,0.2183450609445572,-0.6640082597732544
1773047964308807000,8.411806884765625,10.17308521270752,0.2183450609445572,-0.09391828626394272
1773047964318784000,8.421783935546875,9.976874351501465,0.1417747437953949,0.08793623000383377
1773047964328760800,8.4317607421875,8.866005897521973,0.5587241053581238,0.5910272002220154
1773047964338737700,8.441737548828126,11.379666328430176,0.9559326171875,0.8303094506263733
1773047964348714800,8.45171484375,9.814162254333496,0.2470589429140091,-0.8793623447418213
1773047964358691600,8.461691650390625,10.474580764770508,-0.07836493849754333,0.1788634955883026
1773047964368668400,8.47166845703125,9.622735977172852,0.09870393574237823,0.10229317098855972
1773047964378645500,8.4816455078125,9.632308006286621,0.5635097622871399,0.13100704550743103
1773047964388525300,8.491525390625,9.890732765197754,0.9607182741165161,0.48035913705825806
1773047964398405400,8.5014052734375,9.248857498168945,0.7597211599349976,-0.1417747437953949
1773047964408576000,8.511575927734375,10.445867538452148,0.251844584941864,-1.0372886657714844
1773047964418560000,8.52156005859375,9.775876998901367,0.31465616822242737,-0.08434699475765228
1773047964428491000,8.531490966796875,10.130014419555664,0.7645068168640137,1.332802176475525
1773047964438469600,8.5414697265625,9.272786140441895,1.0707881450653076,-0.5682953596115112
1773047964448444700,8.551444580078124,10.450653076171875,0.6783652305603027,-0.44805604219436646
1773047964458423300,8.56142333984375,9.478569030761719,0.9559326171875,0.19800607860088348
1773047964468437500,8.5714375,10.555936813354492,1.2335001230239868,0.13100704550743103
1773047964478419500,8.58141943359375,9.929018020629883,0.5826523303985596,0.21236300468444824
1773047964488275000,8.59127490234375,9.162715911865234,0.09391828626394272,-0.09870393574237823
1773047964498244000,8.601244140625,10.302297592163086,0.6592226624488831,0.2602194547653198
1773047964508306200,8.61130615234375,10.594222068786621,0.24227328598499298,-0.4576273262500763
1773047964518285000,8.62128515625,9.602995872497559,0.6640082597732544,-0.5587241053581238
1773047964528299000,8.631299072265625,10.225728034973145,1.0325030088424683,0.35114672780036926
1773047964538281200,8.64128125,8.458627700805664,0.8937192559242249,0.030508488416671753
1773047964548214000,8.651214111328125,9.77109146118164,0.43908295035362244,-1.5643078088760376
1773047964558191400,8.66119140625,9.723235130310059,0.41515472531318665,-1.042074203491211
1773047964568168000,8.67116796875,8.559126853942871,0.8458628058433533,0.006580262444913387
1773047964578145000,8.68114501953125,9.071788787841797,0.9080761671066284,0.08315058797597885
1773047964588082700,8.691082763671876,9.938589096069336,-0.025722842663526535,-0.7549355626106262
1773047964598056200,8.70105615234375,9.881160736083984,-0.3798605799674988,-0.23270200192928314
1773047964607997700,8.710997802734376,9.234500885009766,-0.049651071429252625,-0.26620152592658997
1773047964617967900,8.7209677734375,10.608579635620117,0.6687939167022705,-0.36670008301734924
1773047964627912700,8.73091259765625,10.292726516723633,-0.1453639715909958,-1.506281852722168
1773047964637880300,8.74088037109375,8.539983749389648,1.454237937927246,0.5814558863639832
1773047964647789000,8.7507890625,9.991230964660645,0.7597211599349976,-0.23748764395713806
1773047964657750800,8.760750732421876,9.5264253616333,0.8554341197013855,-2.4975085258483887
1773047964667704000,8.7707041015625,9.201001167297363,0.836291491985321,-0.026919255033135414
1773047964677665000,8.7806650390625,8.252845764160156,1.1665010452270508,1.0169496536254883
1773047964687657700,8.79065771484375,9.354142189025879,1.4973087310791016,-0.6735795736312866
1773047964697621800,8.800621826171875,10.599007606506348,1.6408780813217163,-1.2765709161758423
1773047964707572700,8.81057275390625,8.885149002075195,1.3441680669784546,0.2315055876970291
1773047964717535500,8.820535400390625,10.431509971618652,1.9806588888168335,0.9930213689804077
1773047964727487700,8.83048779296875,9.148359298706055,1.3202399015426636,0.45164528489112854
1773047964737449500,8.840449462890625,10.110872268676758,1.1042876243591309,0.21236300468444824
1773047964747325400,8.850325439453124,9.119645118713379,1.176072359085083,-1.2143574953079224
1773047964757278500,8.860278564453125,9.7998046875,1.195214867591858,-1.1186445951461792
1773047964767278800,8.87027880859375,7.558926582336426,1.4973087310791016,0.4995017349720001
1773047964777236700,8.88023681640625,8.775078773498535,1.7892330884933472,0.28893333673477173
1773047964787193900,8.89019384765625,9.05264663696289,1.4159528017044067,-1.1569297313690186
1773047964797151500,8.9001513671875,11.480164527893066,1.4733805656433105,-0.18484555184841156
1773047964807108900,8.91010888671875,9.569496154785156,1.5738791227340698,1.6683956384658813
1773047964817066500,8.92006640625,10.953743934631348,0.2183450609445572,1.0504491329193115
1773047964826985200,8.929985107421874,10.536794662475586,0.14656038582324982,-0.9559326171875
1773047964836939000,8.93993896484375,10.106086730957031,0.8841479420661926,-0.6161518096923828
1773047964846900000,8.94989990234375,10.541580200195312,0.6209374666213989,0.672383189201355
1773047964856854500,8.9598544921875,7.735995769500732,1.0755738019943237,0.12143574655056
1773047964866853400,8.969853271484375,8.46341323852539,1.602592945098877,-0.592223584651947
1773047964876812500,8.9798125,9.751948356628418,1.0516455173492432,-0.8745766878128052
1773047964886992400,8.989992431640625,9.354142189025879,1.1569297313690186,0.3367897868156433
1773047964897172500,9.00017236328125,10.551151275634766,0.8602197170257568,1.9411773681640625
1773047964907352300,9.010352294921875,10.97767162322998,1.046859860420227,0.13579268753528595
1773047964917417500,9.02041748046875,10.685748100280762,0.6831508874893188,0.11665010452270508
1773047964927375400,9.030375244140625,11.858829498291016,0.9559326171875,0.6101697683334351
1773047964937367600,9.040367431640625,8.995218276977539,1.7748762369155884,-0.4145565330982208
1773047964947329300,9.050329345703124,11.710474014282227,0.5970092415809631,1.0121639966964722
1773047964957318400,9.060318359375,6.98405122756958,0.012562318705022335,-0.4289134442806244
1773047964967283000,9.070282958984375,9.675378799438477,-0.0975075215101242,-0.23270200192928314
1773047964977270000,9.08027001953125,10.594222068786621,0.5682953596115112,0.15493527054786682
1773047964987236900,9.09023681640625,10.28315544128418,0.7166503667831421,1.2658032178878784
1773047964997222000,9.100221923828125,11.801401138305664,0.7501499056816101,0.3655036687850952
1773047965007190800,9.110190673828125,11.36052417755127,0.8889335989952087,-1.3196417093276978
1773047965017174000,9.120174072265625,11.715259552001953,0.11306086927652359,0.7393822073936462
1773047965027144700,9.130144775390624,8.96650505065918,-0.15972091257572174,0.6005984544754028
1773047965037126700,9.140126708984376,9.57906723022461,0.05563312768936157,-1.085145115852356
1773047965047098600,9.1500986328125,9.368498802185059,0.1944168359041214,-1.8323038816452026
1773047965057079600,9.16007958984375,9.459425926208496,0.18005990982055664,-0.2709871530532837
1773047965067052300,9.17005224609375,8.70807933807373,1.0803594589233398,1.1940184831619263
1773047965077032400,9.180032470703125,9.220144271850586,0.7549355626106262,-0.14656038582324982
1773047965087006200,9.190006103515625,10.757532119750977,0.50129634141922,-0.5635097622871399
1773047965096985900,9.19998583984375,10.316655158996582,-0.45643091201782227,-0.5300102233886719
1773047965106960100,9.209960205078126,10.378868103027344,-0.7052844762802124,-0.23270200192928314
1773047965116939000,9.21993896484375,9.617950439453125,0.19920247793197632,2.166102647781372
1773047965126913800,9.229913818359375,10.086943626403809,0.15613168478012085,0.11186445504426956
1773047965136892400,9.239892333984375,10.86281681060791,0.8937192559242249,-2.5118656158447266
1773047965146867700,9.24986767578125,9.33021354675293,1.1282159090042114,-0.4336991012096405
1773047965156845800,9.259845703125,8.104490280151367,0.4582255482673645,1.3902299404144287
1773047965166726000,9.269725830078125,8.98086166381836,0.711864709854126,0.18843477964401245
1773047965176543700,9.279543701171875,9.569496154785156,0.5491527915000916,-1.578664779663086
1773047965186723800,9.289723876953126,9.689735412597656,0.28594231605529785,-0.711864709854126
1773047965196758300,9.29975830078125,9.268000602722168,-0.10707881301641464,-0.23270200192928314
1773047965206638000,9.30963818359375,9.334999084472656,0.5730810165405273,0.7585247755050659
1773047965216455000,9.319454833984375,10.216156005859375,1.171286702156067,-0.34277185797691345
1773047965226635000,9.329635009765624,8.827720642089844,0.9272187948226929,-1.2957134246826172
1773047965236668700,9.339668701171876,9.535996437072754,0.7645068168640137,-0.6735795736312866
1773047965246636500,9.349636474609374,8.319844245910645,0.8697910308837891,-0.45284169912338257
1773047965256620800,9.359620849609374,9.708877563476562,0.6783652305603027,0.6340979933738708
1773047965266590500,9.369590576171875,8.47298526763916,1.3154542446136475,0.21714866161346436
1773047965276573200,9.3795732421875,10.762317657470703,1.26699960231781,-1.3722838163375854
1773047965286544400,9.38954443359375,9.497711181640625,1.1856436729431152,-0.5826523303985596
1773047965296526000,9.399526123046876,9.866804122924805,0.44386860728263855,-0.34277185797691345
1773047965306406000,9.409406005859376,8.439485549926758,0.7405785918235779,0.2027917206287384
1773047965316223000,9.419222900390626,9.996016502380371,0.5204389095306396,0.14057832956314087
1773047965326403000,9.429403076171875,9.728020668029785,0.5395814776420593,-0.745364248752594
1773047965336437000,9.43943701171875,10.264012336730957,-0.4085744619369507,0.21236300468444824
1773047965346406000,9.449406005859375,9.814162254333496,-0.025722842663526535,0.355932354927063
1773047965356389000,9.45938916015625,10.498509407043457,0.8697910308837891,1.2323036193847656
1773047965366359600,9.469359619140626,9.842875480651855,0.8554341197013855,0.2793620526790619
1773047965376341800,9.479341796875,10.311869621276855,0.3433700501918793,-1.3770694732666016
1773047965386313500,9.4893134765625,10.676176071166992,-0.10229317098855972,-0.47676992416381836
1773047965396294700,9.499294677734374,7.347760200500488,0.4103690981864929,-0.357128769159317
1773047965406267400,9.509267333984376,9.80937671661377,0.2470589429140091,-0.4145565330982208
1773047965416247600,9.51924755859375,10.350153923034668,-0.4612165689468384,-0.29012975096702576
1773047965426221000,9.529220947265625,9.516854286193848,1.3202399015426636,0.31764721870422363
1773047965436200700,9.53920068359375,10.915458679199219,-0.001794616924598813,-0.07477571070194244
1773047965446175000,9.549175048828126,10.767104148864746,-0.50907301902771,0.3798605799674988
1773047965456154000,9.559154052734375,10.240084648132324,0.5730810165405273,0.13100704550743103
1773047965466034200,9.5690341796875,9.66102123260498,0.8075776696205139,-1.3962119817733765
1773047965475851800,9.578851806640625,8.751151084899902,1.2191431522369385,-1.3674981594085693
1773047965486032000,9.589031982421876,6.495915412902832,1.1808580160140991,0.1501496136188507
1773047965496066000,9.599066162109375,9.019146919250488,2.0093727111816406,0.39421752095222473
1773047965506036500,9.609036376953124,10.378868103027344,2.4646072387695312,-0.24227328598499298
1773047965516018400,9.619018310546876,10.704890251159668,1.731805443763733,0.638883650302887
1773047965525990100,9.628990234375,11.106884956359863,0.39122650027275085,0.7680960893630981
1773047965535971300,9.638971435546875,11.092527389526367,0.9607182741165161,-0.2757728099822998
1773047965545944000,9.648944091796874,11.365309715270996,0.8554341197013855,-0.8410771489143372
1773047965555924200,9.65892431640625,10.211370468139648,0.6448656916618347,0.6867401003837585
1773047965565898000,9.66889794921875,9.401998519897461,1.8035900592803955,-0.5150550603866577
1773047965575877400,9.67887744140625,8.50169849395752,1.6983058452606201,-1.583450436592102
1773047965585851600,9.6888515625,8.176275253295898,0.8075776696205139,0.8733802437782288
1773047965595830800,9.698830810546875,9.33021354675293,0.6113662123680115,0.11186445504426956
1773047965605710800,9.7087109375,9.986445426940918,0.625723123550415,-1.8131613731384277
1773047965615528400,9.718528564453125,12.385250091552734,-0.11186445504426956,0.23629122972488403
1773047965625708500,9.72870849609375,10.005587577819824,0.4055834412574768,0.7585247755050659
1773047965635742700,9.73874267578125,11.398808479309082,0.486939400434494,-0.8219345808029175
1773047965645713200,9.748713134765625,10.15872859954834,1.6121642589569092,0.4325026869773865
1773047965655695400,9.7586953125,9.100502967834473,0.9128618240356445,0.12143574655056
1773047965665666800,9.768666748046876,10.417153358459473,0.9511470198631287,-1.8370895385742188
1773047965675648000,9.77864794921875,9.234500885009766,0.41515472531318665,-1.9519450664520264
1773047965685620700,9.788620849609375,6.519843578338623,-0.6287141442298889,0.31764721870422363
1773047965695601200,9.79860107421875,9.119645118713379,0.36729827523231506,1.3423734903335571
1773047965705481000,9.80848095703125,12.466606140136719,0.4486542344093323,-0.4145565330982208
1773047965715298600,9.818298583984374,11.432308197021484,0.30508488416671753,-3.249453067779541
1773047965725478400,9.828478515625,9.258428573608398,-0.04486542567610741,-2.2773690223693848
1773047965735512600,9.8385126953125,8.305487632751465,-0.03529413416981697,1.246660590171814
1773047965745482200,9.848482177734375,13.673187255859375,-0.054436713457107544,1.649253010749817
1773047965755465000,9.85846484375,10.948958396911621,-0.3367897868156433,-2.090728759765625
1773047965765436000,9.868435791015624,7.362117290496826,-0.45164528489112854,-1.4536397457122803
1773047965775417600,9.87841748046875,9.598209381103516,0.2955136001110077,1.2370892763137817
1773047965785389800,9.888389892578125,9.248857498168945,0.6879364848136902,-0.4863412082195282
1773047965795370500,9.89837060546875,11.01595687866211,0.13698910176753998,-1.8849459886550903
1773047965805343700,9.90834375,10.192228317260742,-0.7244270443916321,-0.6975077986717224
1773047965815323600,9.91832373046875,10.536794662475586,-0.21236300468444824,0.08793623000383377
1773047965825297400,9.92829736328125,9.972088813781738,-0.3032902777194977,0.7920243144035339
1773047965835276800,9.93827685546875,10.608579635620117,-0.15493527054786682,-0.3475574851036072
1773047965845156900,9.948156982421875,10.230513572692871,0.3577269911766052,-2.7038896083831787
1773047965854974500,9.957974365234374,10.106086730957031,0.6209374666213989,-0.7932206988334656
1773047965865154300,9.968154296875,7.726424217224121,0.47258245944976807,0.9116654396057129
1773047965875188500,9.9781884765625,8.947361946105957,0.8937192559242249,-0.1944168359041214
1773047965885158700,9.98815869140625,9.014361381530762,0.7549355626106262,-1.3962119817733765
1773047965895141000,9.99814111328125,9.043074607849121,1.4350954294204712,-2.0620148181915283
1773047965905112600,10.008112548828125,9.92423152923584,0.9750752449035645,-0.534795880317688
1773047965915093800,10.01809375,9.114859580993652,0.7932206988334656,0.4899304509162903
1773047965925066500,10.02806640625,7.510472297668457,1.2095718383789062,0.16450655460357666
1773047965935047000,10.038046875,12.064611434936523,1.3010972738265991,-1.6360924243927002
1773047965945020400,10.0480205078125,9.535996437072754,0.6496513485908508,-3.1489546298980713
1773047965955000000,10.058,8.598010063171387,0.026919255033135414,0.50907301902771
1773047965964974000,10.06797412109375,7.936992645263672,0.09391828626394272,2.2091734409332275
1773047965974953200,10.077953125,8.909076690673828,1.4350954294204712,-0.8267202377319336
1773047965984928000,10.087927978515625,10.97767162322998,1.1473584175109863,-3.5509488582611084
1773047965994906600,10.09790673828125,8.104490280151367,1.109073281288147,0.07357929646968842
1773047966004882000,10.1078818359375,9.2919282913208,0.8841479420661926,1.9124635457992554
1773047966014860000,10.117860107421874,9.905089378356934,1.3824533224105835,0.3032902777194977
1773047966024740000,10.127739990234375,11.307881355285645,2.248655080795288,-1.9184455871582031
1773047966034558000,10.137557861328125,9.406784057617188,1.2335001230239868,-1.5930216312408447
1773047966044738000,10.147738037109375,10.015159606933594,0.865005373954773,-0.39541393518447876
1773047966054772200,10.157772216796875,8.334200859069824,1.363310694694519,0.6867401003837585
1773047966064743200,10.1677431640625,9.507282257080078,0.9463613629341125,0.7154539823532104
1773047966074724900,10.177724853515626,11.1978120803833,0.30508488416671753,-3.187239646911621
1773047966084696800,10.18769677734375,10.17308521270752,0.4295116662979126,-1.82273268699646
1773047966094677800,10.197677734375,8.96650505065918,-0.04486542567610741,1.6875381469726562
1773047966104557800,10.207557861328125,8.482556343078613,0.3481557071208954,1.1318050622940063
1773047966114375200,10.217375244140625,11.556735038757324,0.7884350419044495,-2.6703901290893555
1773047966124371700,10.227371826171876,9.31585693359375,0.9224331378936768,-2.66560435295105
1773047966134332700,10.237332763671875,8.875576972961426,0.836291491985321,0.7585247755050659
1773047966144512800,10.2475126953125,9.2919282913208,0.7166503667831421,1.0552347898483276
1773047966154546000,10.2575458984375,9.632308006286621,0.7932206988334656,-1.688734531402588
1773047966164512000,10.267511962890625,9.680164337158203,0.5970092415809631,-1.3483555316925049
1773047966174497500,10.27749755859375,9.723235130310059,-0.24107688665390015,0.025722842663526535
1773047966184466000,10.2874658203125,8.645866394042969,-0.15493527054786682,0.4612165689468384
1773047966194449700,10.29744970703125,8.420342445373535,0.41994038224220276,-0.9990034699440002
1773047966204419800,10.307419921875,11.154741287231445,0.8841479420661926,-2.3778674602508545
1773047966214402300,10.31740234375,8.267202377319336,1.7078771591186523,-1.9471594095230103
1773047966224282000,10.3272822265625,7.88913631439209,1.4207384586334229,-0.5102694034576416
1773047966244279300,10.347279296875,8.952147483825684,2.66560435295105,-0.21355941891670227
1773047966254313000,10.35731298828125,10.881958961486816,2.2055842876434326,-0.7214360237121582
1773047966264281000,10.367281005859375,10.800602912902832,0.8793623447418213,-2.2534406185150146
1773047966274265000,10.37726513671875,9.986445426940918,1.2765709161758423,0.42771705985069275
1773047966284235000,10.387235107421875,9.047860145568848,1.2861422300338745,1.0360921621322632
1773047966294217500,10.397217529296874,11.331809997558594,1.1521440744400024,-2.2582263946533203
1773047966304189000,10.40718896484375,10.254441261291504,0.5587241053581238,-2.9766714572906494
1773047966314170000,10.417170166015625,8.324629783630371,1.3537393808364868,-1.4057832956314087
1773047966324050200,10.42705029296875,8.755936622619629,1.046859860420227,0.7058826684951782
1773047966333867300,10.4368671875,10.685748100280762,0.6831508874893188,0.7489534616470337
1773047966343863600,10.446863525390626,11.36052417755127,0.7501499056816101,-2.090728759765625
1773047966353824800,10.45682470703125,10.512866020202637,1.4398809671401978,0.20757736265659332
1773047966364004900,10.4670048828125,10.436295509338379,-0.24586252868175507,0.34636107087135315
1773047966374038000,10.4770380859375,9.82373332977295,0.5730810165405273,0.3607180118560791
1773047966384003800,10.48700390625,10.517651557922363,1.1377872228622437,-1.482353687286377
1773047966393989600,10.49698974609375,10.273584365844727,0.2470589429140091,-2.6081767082214355
1773047966403957800,10.506957763671876,10.551151275634766,-0.12143574655056,0.05922235921025276
1773047966413941800,10.516941650390624,7.103692054748535,0.36251261830329895,1.1653046607971191
1773047966423821800,10.52682177734375,11.207383155822754,-1.3902299404144287,0.10229317098855972
1773047966433638400,10.536638427734376,10.661819458007812,-0.5042873620986938,-3.1202406883239746
1773047966443818500,10.546818603515625,10.819746017456055,0.10348957777023315,-1.0612168312072754
1773047966453852000,10.556851806640625,10.49372386932373,-0.16929219663143158,2.079961061477661
1773047966463819300,10.5668193359375,9.311071395874023,-0.2315055876970291,1.654038667678833
1773047966473803800,10.5768037109375,14.291132926940918,-0.389431893825531,-1.913659930229187
1773047966483773000,10.58677294921875,9.44028377532959,-0.6095715761184692,-2.296511650085449
1773047966493756200,10.596756103515625,7.788637638092041,-0.35114672780036926,0.8303094506263733
1773047966503726800,10.606726806640625,8.803792953491211,-0.1501496136188507,1.8837496042251587
1773047966513708800,10.616708740234374,9.948160171508789,0.0891326442360878,-1.731805443763733
1773047966523680800,10.6266806640625,10.40758228302002,0.7214360237121582,-2.8522446155548096
1773047966533661700,10.63666162109375,9.569496154785156,0.4247260093688965,-2.028515338897705
1773047966543634700,10.646634765625,8.324629783630371,0.24227328598499298,0.9499505758285522
1773047966553614600,10.656614501953126,10.374082565307617,0.7501499056816101,0.8255237936973572
1773047966563494700,10.66649462890625,11.260025024414062,0.36251261830329895,-2.775674343109131
1773047966573312000,10.67631201171875,9.320642471313477,0.0077766734175384045,-2.871387243270874
1773047966583492000,10.6864921875,7.141977310180664,0.6065805554389954,0.37028929591178894
1773047966593526000,10.696526123046874,9.349356651306152,0.9511470198631287,1.673181176185608
1773047966603496000,10.706495849609375,9.962516784667969,1.3728820085525513,0.030508488416671753
1773047966613478700,10.716478759765625,10.000802040100098,1.0564311742782593,-2.2821545600891113
1773047966623449900,10.726449951171874,7.39561653137207,0.4821537733078003,-2.4879374504089355
1773047966633431300,10.736431396484376,7.453044414520264,0.33858439326286316,0.7824530005455017
1773047966643403500,10.746403564453125,11.777473449707031,0.7262216806411743,1.587039589881897
1773047966653384200,10.75638427734375,11.417951583862305,0.836291491985321,-1.262213945388794
1773047966663357400,10.766357421875,9.991230964660645,1.4733805656433105,-2.6368906497955322
1773047966673337300,10.77633740234375,8.334200859069824,1.1904292106628418,-0.28534409403800964
1773047966683311000,10.78631103515625,9.100502967834473,0.9320043921470642,1.6444673538208008
1773047966693290500,10.79629052734375,10.968100547790527,1.363310694694519,-0.5300102233886719
1773047966703265000,10.80626513671875,9.2919282913208,0.745364248752594,-2.1433708667755127
1773047966713244000,10.816243896484375,8.449056625366211,1.1904292106628418,0.07836493849754333
1773047966723219000,10.826218994140625,8.075776100158691,1.4350954294204712,1.2323036193847656
1773047966733197300,10.836197265625,10.886744499206543,1.9519450664520264,-1.1617153882980347
1773047966743172600,10.846172607421876,9.507282257080078,1.0085747241973877,-2.38265323638916
1773047966753150700,10.856150634765624,7.860422611236572,1.5020943880081177,-2.3395824432373047
1773047966763126500,10.86612646484375,10.17308521270752,1.0516455173492432,1.3710874319076538
1773047966773104400,10.8761044921875,10.627721786499023,1.0516455173492432,1.1222338676452637
1773047966783080400,10.88608056640625,11.355737686157227,0.7070791125297546,-1.9232312440872192
1773047966793058000,10.89605810546875,9.881160736083984,1.3872389793395996,-1.9232312440872192
1773047966803034000,10.9060341796875,8.133204460144043,0.7645068168640137,1.0791629552841187
1773047966813011700,10.91601171875,9.996016502380371,0.4773681163787842,0.6532405614852905
1773047966822988000,10.925988037109375,10.125228881835938,0.2183450609445572,-2.435295343399048
1773047966832965400,10.93596533203125,10.039087295532227,-0.01136590726673603,-3.043670415878296
1773047966842941700,10.945941650390624,8.453842163085938,0.7549355626106262,-0.06520441919565201
1773047966852919000,10.9559189453125,10.063015937805176,0.6113662123680115,1.5194423198699951
1773047966862895600,10.9658955078125,12.122039794921875,0.0891326442360878,-1.2382856607437134
1773047966872872700,10.975872802734376,9.838089942932129,0.5443671345710754,-3.2781670093536377
1773047966882849300,10.985849365234374,8.59322452545166,0.18484555184841156,-0.5150550603866577
1773047966892826600,10.99582666015625,10.704890251159668,0.05563312768936157,1.8693926334381104
1773047966902803200,11.00580322265625,11.547163963317871,0.4486542344093323,-0.36670008301734924
1773047966912780300,11.0157802734375,9.7998046875,0.4342973232269287,-2.1720848083496094
1773047966922756900,11.0257568359375,7.793423175811768,0.7549355626106262,-0.2470589429140091
1773047966932734000,11.03573388671875,8.70807933807373,0.5204389095306396,1.4093725681304932
1773047966942710800,11.045710693359375,10.029516220092773,0.898504912853241,-0.9128618240356445
1773047966952687900,11.05568798828125,10.101301193237305,0.49651068449020386,-2.200798511505127
1773047966962664400,11.06566455078125,10.364511489868164,-0.025722842663526535,-1.0085747241973877
1773047966972641500,11.0756416015625,10.115657806396484,1.4638092517852783,1.740180253982544
1773047966982618400,11.085618408203125,10.201799392700195,1.171286702156067,0.025722842663526535
1773047966992595500,11.095595458984375,12.385250091552734,0.28115665912628174,-2.9240293502807617
1773047967002572300,11.105572265625,8.343772888183594,0.6640082597732544,-1.6791633367538452
1773047967012549000,11.115549072265624,8.37727165222168,0.44386860728263855,1.1222338676452637
1773047967022526000,11.12552587890625,10.4219388961792,-0.13579268753528595,0.9930213689804077
1773047967032502800,11.135502685546875,11.44666576385498,0.20877377688884735,-2.1481566429138184
1773047967042479900,11.14547998046875,8.061419486999512,1.2861422300338745,-1.8705891370773315
1773047967052456700,11.155456787109374,9.038289070129395,0.6017948985099792,0.5431707501411438
1773047967062433500,11.16543359375,11.69133186340332,-0.12622138857841492,-1.7126628160476685
1773047967072410600,11.17541064453125,8.971290588378906,0.4295116662979126,-3.7573297023773193
1773047967082387500,11.185387451171875,9.196215629577637,0.6975077986717224,-0.2949153780937195
1773047967092364300,11.1953642578125,9.210572242736816,0.7310073375701904,1.2897313833236694
1773047967102341000,11.205341064453124,9.852447509765625,0.8697910308837891,-1.932802438735962
1773047967112318200,11.215318115234375,9.943374633789062,0.6352944374084473,-2.004587173461914
1773047967122295000,11.225294921875,9.373284339904785,-0.45643091201782227,-0.07956135272979736
1773047967132271900,11.23527197265625,9.239286422729492,-0.2554338276386261,-0.18484555184841156
1773047967142152000,11.24515185546875,10.225728034973145,0.38644084334373474,-2.3874387741088867
1773047967151970000,11.254969970703126,10.273584365844727,0.33858439326286316,-2.4400808811187744
1773047967162150100,11.265150146484375,10.029516220092773,0.4582255482673645,-0.3858426511287689
1773047967172184600,11.2751845703125,9.095717430114746,0.7357929348945618,1.4524433612823486
1773047967182156300,11.28515625,10.527223587036133,-0.1740778535604477,0.26500511169433594
1773047967192137200,11.29513720703125,10.867602348327637,0.4342973232269287,-2.5118656158447266
1773047967202110200,11.305110107421875,9.728020668029785,-0.0687936544418335,-1.4632110595703125
1773047967212090400,11.31509033203125,7.616354465484619,0.5730810165405273,1.2897313833236694
1773047967222063900,11.32506396484375,10.029516220092773,1.2478569746017456,1.155733346939087
1773047967232043500,11.33504345703125,11.11167049407959,1.3250255584716797,-0.711864709854126
1773047967242017800,11.345017822265625,9.507282257080078,0.251844584941864,-2.3300111293792725
1773047967251996700,11.35499658203125,7.084549427032471,0.10348957777023315,-0.2949153780937195
1773047967261971500,11.364971435546876,11.47537899017334,0.28115665912628174,1.1940184831619263
1773047967271950000,11.3749501953125,10.786246299743652,0.8554341197013855,-1.1569297313690186
1773047967281925400,11.38492529296875,9.981659889221191,0.18963119387626648,-2.3204398155212402
1773047967291903700,11.39490380859375,8.578866958618164,0.745364248752594,0.5042873620986938
1773047967301879000,11.404879150390625,11.274381637573242,0.3768695592880249,0.9834501147270203
1773047967311857200,11.414857177734374,10.024730682373047,-0.6191428303718567,-1.8418751955032349
1773047967321833000,11.4248330078125,8.698508262634277,0.4630111753940582,-2.459223508834839
1773047967331810800,11.434810791015625,8.636295318603516,1.3106685876846313,0.19322042167186737
1773047967341787000,11.444786865234375,9.34457015991211,0.9032905697822571,-0.47198426723480225
1773047967351764500,11.454764404296874,9.866804122924805,0.6161518096923828,-1.9471594095230103
1773047967361740500,11.464740478515624,9.54078197479248,0.36729827523231506,-0.2183450609445572
1773047967371718100,11.47471826171875,9.737591743469238,0.6879364848136902,-0.6687939167022705
1773047967381694500,11.484694580078125,10.398011207580566,0.7214360237121582,-2.200798511505127
1773047967391671800,11.494671875,8.583653450012207,1.3776676654815674,-0.5300102233886719
1773047967401648000,11.504648193359374,9.119645118713379,1.042074203491211,0.8542376756668091
1773047967411625500,11.51462548828125,9.483354568481445,0.6496513485908508,-1.353141188621521
1773047967421602000,11.52460205078125,9.900303840637207,0.9224331378936768,-2.2199411392211914
1773047967431579100,11.5345791015625,8.889934539794922,0.5108676552772522,-1.109073281288147
1773047967441459200,11.544459228515626,8.46341323852539,0.778863787651062,-0.5054838061332703
1773047967451277300,11.55427734375,9.378069877624512,0.9367900490760803,-0.45284169912338257
1773047967461457400,11.56445751953125,9.296713829040527,1.0755738019943237,-1.0612168312072754
1773047967471491600,11.57449169921875,9.790233612060547,0.3290131092071533,-1.7365909814834595
1773047967481463300,11.58446337890625,9.847661972045898,0.30987054109573364,-0.09391828626394272
1773047967491444500,11.594444580078125,9.732806205749512,0.49172505736351013,0.13100704550743103
1773047967501417200,11.604417236328125,10.005587577819824,1.1425727605819702,-2.35872483253479
1773047967511397400,11.6143974609375,11.10209846496582,0.6879364848136902,-1.578664779663086
1773047967521371000,11.624370849609376,7.716853141784668,0.6783652305603027,1.25144624710083
1773047967531350500,11.6343505859375,9.972088813781738,0.4295116662979126,0.19322042167186737
1773047967541230600,11.644230712890625,10.671390533447266,0.07956135272979736,-3.0580272674560547
1773047967551048200,11.654048095703125,9.258428573608398,-0.06400800496339798,-2.397010087966919
1773047967561228000,11.66422802734375,8.688937187194824,0.3720839321613312,1.0217353105545044
1773047967571262200,11.67426220703125,11.216954231262207,0.30508488416671753,0.04007977992296219
1773047967581232000,11.684232177734375,10.273584365844727,0.16091732680797577,-3.005385160446167
1773047967591214600,11.694214599609374,9.201001167297363,-0.5617151260375977,-0.5826523303985596
1773047967601186000,11.70418603515625,9.545567512512207,-0.18843477964401245,1.2849457263946533
1773047967611167500,11.71416748046875,10.97767162322998,0.7166503667831421,-1.7030915021896362
1773047967621140000,11.724139892578124,10.829317092895508,0.6209374666213989,-2.5645077228546143
1773047967631120400,11.734120361328126,8.195417404174805,0.4534398913383484,0.29850462079048157
1773047967641093600,11.74409375,10.292726516723633,0.5730810165405273,0.39421752095222473
1773047967651073500,11.754073486328124,9.622735977172852,0.14656038582324982,-2.454437732696533
1773047967661047600,11.764047607421874,9.110074043273926,-0.7579265832901001,-0.8745766878128052
1773047967671026700,11.774026611328125,10.082158088684082,-0.37028929591178894,0.6675975322723389
1773047967681001500,11.78400146484375,9.833304405212402,0.7357929348945618,-0.4097708761692047
1773047967690980000,11.79397998046875,12.232109069824219,-0.16929219663143158,-1.5158531665802002
1773047967700955100,11.803955078125,8.453842163085938,0.15613168478012085,-0.18484555184841156
1773047967710933500,11.81393359375,10.077372550964355,0.10827522724866867,0.9451649188995361
1773047967720909000,11.823908935546875,8.315058708190918,0.5395814776420593,-1.2526426315307617
1773047967730887200,11.83388720703125,11.489736557006836,0.7262216806411743,-1.846660852432251
1773047967740767200,11.843767333984376,8.588438987731934,1.2957134246826172,0.7872386574745178
1773047967750585000,11.853585205078126,9.704092025756836,0.30508488416671753,1.3806586265563965
1773047967760765000,11.863764892578125,12.088540077209473,-0.3367897868156433,-1.0660024881362915
1773047967770842000,11.873842041015624,10.910673141479492,0.10827522724866867,-2.7421748638153076
1773047967780770300,11.883770263671876,8.032705307006836,0.30508488416671753,0.3032902777194977
1773047967790751200,11.893751220703125,10.101301193237305,0.3577269911766052,1.4763715267181396
1773047967800724200,11.90372412109375,10.848459243774414,0.6592226624488831,-1.9854445457458496
1773047967810704400,11.913704345703126,9.617950439453125,0.7692924737930298,-2.2773690223693848
1773047967820678000,11.923677978515625,9.114859580993652,0.9463613629341125,0.4325026869773865
1773047967830657500,11.933657470703125,10.858031272888184,0.20398813486099243,0.5383850932121277
1773047967840537600,11.94353759765625,10.75274658203125,0.10827522724866867,-3.129812002182007
1773047967850417400,11.95341748046875,8.544769287109375,0.778863787651062,-2.4640090465545654
1773047967860585700,11.963585693359375,8.544769287109375,0.8745766878128052,1.1078768968582153
1773047967870564600,11.973564697265624,10.920244216918945,0.11306086927652359,1.069591760635376
1773047967880539400,11.983539306640624,10.331011772155762,-0.08793623000383377,-1.2191431522369385
1773047967890518000,11.99351806640625,7.582854747772217,0.1944168359041214,-2.723032236099243
1773047967900493300,12.003493408203125,9.157930374145508,0.6400800347328186,0.8781659007072449
1773047967910471400,12.013471435546874,11.183454513549805,-0.2745763957500458,-0.1657029688358307
1773047967920447000,12.023447021484374,10.192228317260742,0.1417747437953949,-2.152942180633545
1773047967930425000,12.033425048828125,8.195417404174805,-0.25064817070961,-0.13698910176753998
1773047967940401000,12.04340087890625,10.311869621276855,-0.37028929591178894,-0.5635097622871399
1773047967950378800,12.053378662109376,9.814162254333496,0.08434699475765228,-2.4496521949768066
1773047967960354800,12.063354736328124,7.2472615242004395,1.022931694984436,-0.7980063557624817
1773047967970332200,12.073332275390625,9.258428573608398,0.7357929348945618,1.1413763761520386
1773047968000262400,12.103262451171876,8.947361946105957,0.5682953596115112,0.6915257573127747
1773047968010239700,12.11323974609375,10.886744499206543,1.4111671447753906,-1.669592022895813
1773047968020216000,12.123216064453125,10.441082000732422,1.2430713176727295,-1.2861422300338745
1773047968030193400,12.133193359375,7.467401027679443,-0.04007977992296219,0.6628118753433228
1773047968040170000,12.143169921875,10.024730682373047,0.23748764395713806,-0.2566302418708801
1773047968050147300,12.153147216796874,9.167501449584961,1.1904292106628418,-1.2047861814498901
1773047968060124000,12.1631240234375,11.346166610717773,0.4007977843284607,-0.24227328598499298
1773047968070101000,12.17310107421875,9.378069877624512,1.2335001230239868,-0.5778666734695435
1773047968080077600,12.18307763671875,11.097312927246094,1.2813565731048584,0.26500511169433594
1773047968090054700,12.1930546875,10.584650993347168,-0.05922235921025276,-0.5443671345710754
1773047968100031500,12.203031494140625,9.368498802185059,0.13220344483852386,-1.1473584175109863
1773047968110008600,12.213008544921875,10.40758228302002,0.8697910308837891,-0.5635097622871399
1773047968119985200,12.222985107421875,9.09093189239502,1.5690934658050537,-0.36670008301734924
1773047968129962200,12.232962158203126,9.613164901733398,1.0707881450653076,-0.5970092415809631
1773047968139939000,12.24293896484375,8.894720077514648,0.31465616822242737,-0.7501499056816101
1773047968149916000,12.252916015625,9.31585693359375,0.7310073375701904,-0.8315058946609497
1773047968159892700,12.262892822265625,9.071788787841797,1.3202399015426636,-1.3770694732666016
1773047968169869800,12.272869873046876,9.378069877624512,1.4973087310791016,-0.9559326171875
1773047968179846700,12.2828466796875,8.669795036315918,1.5355939865112305,-0.022133609279990196
1773047968189823700,12.29282373046875,10.211370468139648,0.9463613629341125,-0.2231307178735733
1773047968199800600,12.302800537109375,9.795019149780273,1.01814603805542,-1.8083757162094116
1773047968209777400,12.31277734375,10.398011207580566,1.0133603811264038,-0.4289134442806244
1773047968219754200,12.322754150390624,8.358129501342773,1.2382856607437134,0.40378883481025696
1773047968229731000,12.33273095703125,9.387641906738281,0.8123632669448853,-1.3387842178344727
1773047968239708200,12.342708251953125,10.465009689331055,0.6783652305603027,-1.3770694732666016
1773047968249685000,12.35268505859375,8.128418922424316,-0.21714866161346436,0.020937198773026466
1773047968259661800,12.362661865234376,9.77109146118164,-0.006580262444913387,-0.09391828626394272
1773047968269639000,12.372638916015624,10.73838996887207,0.7070791125297546,-0.7310073375701904
1773047968279615700,12.38261572265625,9.239286422729492,-0.001794616924598813,-1.8610178232192993
1773047968289592600,12.392592529296875,9.497711181640625,0.10827522724866867,-0.2183450609445572
1773047968299569400,12.4025693359375,9.627521514892578,0.2667997181415558,0.19322042167186737
1773047968309546500,12.41254638671875,8.947361946105957,0.03170489892363548,-0.6305087804794312
1773047968319523300,12.4225234375,11.537592887878418,-0.7627122402191162,-0.04127619042992592
1773047968329500200,12.432500244140625,8.684151649475098,-0.7920243144035339,-0.5054838061332703
1773047968339477000,12.44247705078125,9.617950439453125,-0.6287141442298889,-1.9950158596038818
1773047968349454000,12.4524541015625,8.185846328735352,-0.50907301902771,-1.7988044023513794
1773047968359431000,12.462430908203125,7.70249605178833,-1.1318050622940063,0.45164528489112854
1773047968369407700,12.47240771484375,9.464211463928223,-0.4707878530025482,0.9595218896865845
1773047968379384600,12.482384521484375,13.74497127532959,0.12263216078281403,-0.2757728099822998
1773047968389361700,12.492361572265626,8.889934539794922,1.5308083295822144,0.4468596279621124
1773047968399338500,12.50233837890625,12.260823249816895,0.16091732680797577,0.605384111404419
1773047968409315600,12.512315673828125,9.929018020629883,1.5882359743118286,-1.3722838163375854
1773047968419292400,12.52229248046875,10.953743934631348,2.5220351219177246,-0.5054838061332703
1773047968429269200,12.532269287109376,7.573283672332764,1.2239288091659546,-0.050847481936216354
1773047968439246000,12.54224609375,11.437093734741211,0.6305087804794312,-0.5491527915000916
1773047968449223000,12.552222900390625,8.291130065917969,1.4111671447753906,-0.3236292600631714
1773047968459200000,12.562199951171875,13.13240909576416,1.290927767753601,1.3184453248977661
1773047968469176800,12.5721767578125,9.957731246948242,0.28115665912628174,-0.3810569941997528
1773047968479153700,12.582153564453124,12.160325050354004,0.3290131092071533,-0.45284169912338257
1773047968489130500,12.592130615234375,10.220941543579102,0.9080761671066284,-0.8027920126914978
1773047968499107600,12.602107666015625,9.780662536621094,1.937588095664978,1.074377417564392
1773047968509084400,12.61208447265625,9.220144271850586,0.989432156085968,-0.07477571070194244
1773047968519061200,12.622061279296876,9.80937671661377,-0.049651071429252625,-2.554936408996582
1773047968529038300,12.632038330078124,8.539983749389648,0.6592226624488831,-1.2813565731048584
1773047968539015200,12.64201513671875,5.31266450881958,0.4247260093688965,1.069591760635376
1773047968548992000,12.651991943359375,7.817351341247559,-0.4660021960735321,0.8398807644844055
1773047968558969000,12.661968994140626,11.508878707885742,-0.4085744619369507,-1.0277173519134521
1773047968568946000,12.67194580078125,9.215357780456543,0.6113662123680115,-1.357926845550537
1773047968578922800,12.6819228515625,9.296713829040527,0.15613168478012085,0.7345965504646301
1773047968588899600,12.691899658203125,13.701900482177734,-0.2027917206287384,1.2323036193847656
1773047968598876700,12.701876708984376,11.504093170166016,0.9415757060050964,-0.9320043921470642
1773047968608853500,12.711853515625,8.281558990478516,0.836291491985321,-0.9415757060050964
1773047968618830300,12.721830322265625,9.325428009033203,1.2478569746017456,0.9978070259094238
1773047968628807200,12.73180712890625,9.08135986328125,1.5355939865112305,-0.45284169912338257
1773047968638784300,12.7417841796875,7.582854747772217,1.3920245170593262,-0.5635097622871399
1773047968648761000,12.751760986328126,11.073385238647461,1.6265212297439575,1.423729419708252
1773047968658738200,12.76173828125,14.003994941711426,2.248655080795288,0.15972091257572174
1773047968668715000,12.771715087890625,10.767104148864746,2.004587173461914,-2.4975085258483887
1773047968678691800,12.78169189453125,9.876375198364258,2.114656925201416,-0.6783652305603027
1773047968688668700,12.791668701171876,9.694520950317383,0.8458628058433533,2.362314224243164
1773047968698645800,12.801645751953124,12.5144624710083,1.4925230741500854,0.26979073882102966
1773047968708622600,12.81162255859375,10.254441261291504,2.186441659927368,-1.4536397457122803
1773047968718599400,12.821599365234375,8.310273170471191,1.76051926612854,-0.6017948985099792
1773047968728576500,12.831576416015626,8.26241683959961,1.516451358795166,0.5527420043945312
1773047968738553300,12.84155322265625,6.749554634094238,1.2239288091659546,-0.30927231907844543
1773047968748530200,12.8515302734375,9.181859016418457,1.4781662225723267,-1.1473584175109863
1773047968758468400,12.86146826171875,10.460224151611328,1.1665010452270508,-0.6113662123680115
1773047968768441300,12.87144140625,9.847661972045898,1.7413766384124756,0.7776673436164856
1773047968778461000,12.8814609375,10.968100547790527,1.913659930229187,0.9308080077171326
1773047968788438500,12.8914384765625,12.112467765808105,2.2342982292175293,-0.8554341197013855
1773047968798376000,12.9013759765625,10.939387321472168,1.3680963516235352,-1.5206388235092163
1773047968808349700,12.911349609375,7.261618614196777,1.5978072881698608,0.4612165689468384
1773047968818329900,12.921329833984375,10.043872833251953,1.693520188331604,0.24107688665390015
1773047968828304100,12.93130419921875,8.085348129272461,1.26699960231781,-1.6600207090377808
1773047968838283500,12.941283447265626,7.893921852111816,1.3154542446136475,-1.176072359085083
1773047968848258300,12.95125830078125,8.367700576782227,1.4015958309173584,-0.09870393574237823
1773047968858276400,12.9612763671875,9.742377281188965,1.8035900592803955,0.020937198773026466
1773047968868255200,12.971255126953125,11.61416244506836,0.8506484627723694,-0.41934216022491455
1773047968878152400,12.98115234375,9.7998046875,0.07477571070194244,1.2418749332427979
1773047968888123400,12.991123291015626,10.498509407043457,-0.18364913761615753,0.7441678643226624
1773047968898145000,13.00114501953125,10.527223587036133,-0.4468596279621124,-1.607378602027893
1773047968908121000,13.01112109375,9.632308006286621,0.1178465187549591,-1.2765709161758423
1773047968918060000,13.02106005859375,7.2089762687683105,0.15613168478012085,0.6867401003837585
1773047968928032300,13.0310322265625,8.166703224182129,-0.1501496136188507,1.6396816968917847
1773047968937936400,13.040936279296876,9.019146919250488,0.14656038582324982,-1.5302101373672485
