time,seconds_elapsed,z,y,x
1773048314234588400,0.23358837890625,0,0,0
1773048314244586500,0.24358642578125,-0.29665660858154297,-0.5977121591567993,0.6013377904891968
1773048314254545000,0.253544921875,-1.8669886589050293,0.20557817816734314,0.17890119552612305
1773048314264527000,0.263527099609375,0.21139907836914062,0.5259747505187988,-0.7938671112060547
1773048314284479200,0.283479248046875,0.3336038589477539,-0.7227681279182434,1.3318772315979004
1773048314294458000,0.2934580078125,-1.6220598220825195,0.2611510157585144,-0.5056705474853516
1773048314304435200,0.303435302734375,-0.0836944580078125,0.6494003534317017,-0.8171746730804443
1773048314314413300,0.313413330078125,1.4103832244873047,-0.1308150589466095,1.1763582229614258
1773048314324391200,0.32339111328125,-0.5659074783325195,-0.40329378843307495,0.37245142459869385
1773048314334369300,0.333369384765625,-0.5059728622436523,-0.30143865942955017,-0.18945980072021484
1773048314344347400,0.343347412109375,0.25104713439941406,0.06481730937957764,0.7529252767562866
1773048314354325200,0.3533251953125,0.5320291519165039,0.3421485424041748,0.0699312686920166
1773048314364303400,0.363303466796875,0.16497516632080078,-0.2516053318977356,0.18924963474273682
1773048314374281500,0.373281494140625,-0.31070899963378906,-0.4984279274940491,0.2130904197692871
1773048314384259300,0.38325927734375,-0.5381994247436523,0.2733306884765625,-0.28962457180023193
1773048314394237400,0.393237548828125,0.17363357543945312,0.7748891115188599,0.27490341663360596
1773048314404215300,0.40321533203125,1.420741081237793,-0.37587082386016846,0.5009793043136597
1773048314414193400,0.413193359375,-0.29989051818847656,-0.7594188451766968,-0.19566285610198975
1773048314424133000,0.423133056640625,-1.7858004570007324,0.2513507008552551,0.22953808307647705
1773048314434095600,0.433095703125,1.2900524139404297,0.46335986256599426,-0.256048321723938
1773048314444127200,0.443127197265625,0.6011228561401367,0.22700434923171997,0.07841134071350098
1773048314454117600,0.45311767578125,-0.3314018249511719,-0.25354647636413574,0.009825587272644043
1773048314464083500,0.46308349609375,-0.8724174499511719,-0.25660961866378784,0.4206264019012451
1773048314474064100,0.473064208984375,0.715977668762207,0.25518131256103516,-0.38366782665252686
1773048314484039700,0.483039794921875,-0.18111038208007812,0.654228150844574,0.04472243785858154
1773048314494018000,0.49301806640625,0.42038822174072266,-0.4344767928123474,0.15373897552490234
1773048314503995600,0.50299560546875,-0.1986684799194336,-0.6770099997520447,-0.769701361656189
1773048314513973800,0.512973876953125,-1.3424873352050781,0.7740784883499146,-0.3979882001876831
1773048314523951600,0.52295166015625,0.9096393585205078,0.79934161901474,0.07014679908752441
1773048314533929700,0.5329296875,0.7232236862182617,-0.09771391749382019,0.1820594072341919
1773048314543907800,0.542907958984375,-1.1677360534667969,-0.6513885855674744,-0.06288385391235352
1773048314553885700,0.5528857421875,-0.5796298980712891,-0.09703794121742249,-0.528701663017273
1773048314563825000,0.562824951171875,-0.00001621246337890625,0.8576263785362244,0.08736956119537354
1773048314573799200,0.572799072265625,1.032588005065918,0.591231107711792,-0.7108433246612549
1773048314583819800,0.58281982421875,-0.5591983795166016,-0.46862560510635376,-0.5821933746337891
1773048314593798700,0.592798583984375,-1.3820972442626953,-0.428234338760376,-0.02249467372894287
1773048314603737000,0.602737060546875,0.07150554656982422,0.15173858404159546,0.35025453567504883
1773048314613712000,0.6127119140625,0.07004737854003906,0.9681994318962097,-0.1233069896697998
1773048314623693000,0.622693115234375,0.46547985076904297,0.020105302333831787,-0.8323056697845459
1773048314633668400,0.63266845703125,-0.6801090240478516,-0.2703958749771118,-0.2131861448287964
1773048314643688000,0.64268798828125,-0.855316162109375,-0.016987502574920654,0.09692192077636719
1773048314653667800,0.652667724609375,0.7265644073486328,0.320492148399353,-0.5561593770980835
1773048314663644000,0.662643798828125,-0.8287172317504883,0.2700071930885315,0.1627262830734253
1773048314673623300,0.672623291015625,0.6221208572387695,-0.5543087124824524,0.12046658992767334
1773048314683561200,0.682561279296875,-0.6319389343261719,-0.11664626002311707,-0.37425506114959717
1773048314693536500,0.69253662109375,-0.1921834945678711,0.6964327692985535,-0.5219398736953735
1773048314703517200,0.70251708984375,-0.042659759521484375,0.5450942516326904,-0.39784443378448486
1773048314713493000,0.712492919921875,0.2630767822265625,-0.34328484535217285,0.2902334928512573
1773048314723512000,0.722511962890625,-0.7646827697753906,-0.4448016881942749,0.22608208656311035
1773048314733492200,0.7324921875,-0.1068410873413086,0.15084004402160645,-0.6531991958618164
1773048314743468000,0.742468017578125,0.3271617889404297,0.513415515422821,0.18970012664794922
1773048314753448000,0.752447998046875,0.38663387298583984,-0.06957989931106567,0.07728874683380127
1773048314763385300,0.76238525390625,-0.8465194702148438,-0.4681447148323059,-0.461142897605896
1773048314773361000,0.77236083984375,-0.638575553894043,-0.2017870843410492,-0.15325117111206055
1773048314783302400,0.782302490234375,1.220458984375,0.2533189654350281,-0.09747624397277832
1773048314793274600,0.792274658203125,-0.3576211929321289,0.5957597494125366,0.12295210361480713
1773048314803181000,0.80218115234375,0.3916187286376953,-0.5054713487625122,-0.06025075912475586
1773048314813146400,0.812146484375,-0.9841976165771484,-0.5727655291557312,-0.10765421390533447
1773048314823098000,0.82209814453125,-0.25716686248779297,0.10530829429626465,0.24988722801208496
1773048314833062400,0.8320625,0.7029628753662109,0.5742760896682739,0.21162021160125732
1773048314843054000,0.84205419921875,0.3431854248046875,-0.23594629764556885,-0.6811704635620117
1773048314853021000,0.85202099609375,-0.4581022262573242,-0.6373937129974365,-0.756767988204956
1773048314862971400,0.861971435546875,-1.247415542602539,0.37952154874801636,0.8955079317092896
1773048314872936700,0.871936767578125,1.9388971328735352,-0.06872355937957764,0.20117735862731934
1773048314882888400,0.881888427734375,0.14206790924072266,-0.3698590099811554,0.029109835624694824
1773048314892852500,0.8918525390625,-1.939439296722412,-0.12855008244514465,-0.4480898380279541
1773048314902805800,0.9018056640625,-0.18002033233642578,-0.004682064056396484,0.040869951248168945
1773048314912768500,0.9117685546875,2.039644241333008,-0.26471447944641113,0.33720898628234863
1773048314922722800,0.921722900390625,0.26516151428222656,-0.34580352902412415,-0.8699699640274048
1773048314932684800,0.931684814453125,-2.145507335662842,0.017275869846343994,-0.11250817775726318
1773048314942562800,0.941562744140625,0.17799663543701172,-0.6348589658737183,0.992311954498291
1773048314952516400,0.951516357421875,1.1860647201538086,-0.5835731029510498,0.08516097068786621
1773048314962479900,0.96147998046875,-0.48717594146728516,0.2652204632759094,-0.9790047407150269
1773048314972434400,0.971434326171875,-0.4805431365966797,-0.045763492584228516,0.11662542819976807
1773048314982435600,0.981435546875,0.8485031127929688,-0.96601802110672,0.2832372188568115
1773048314992394800,0.991394775390625,-1.0472345352172852,-0.19319087266921997,-0.6789795160293579
1773048315002352600,1.0013525390625,-0.49524974822998047,0.19169670343399048,-0.25148260593414307
1773048315012311800,1.011311767578125,1.5293283462524414,-0.7882537841796875,0.3641272783279419
1773048315022231600,1.0212314453125,-1.2216262817382812,-0.40983325242996216,0.49416303634643555
1773048315032186600,1.0311865234375,-0.7145547866821289,-0.3659874200820923,-1.0667957067489624
1773048315042148600,1.041148681640625,0.6514806747436523,-0.2770147919654846,0.3687213659286499
1773048315052104400,1.0511044921875,0.6390485763549805,-0.18407759070396423,0.5778955221176147
1773048315062065700,1.061065673828125,-0.5977516174316406,-0.12454122304916382,-0.7056639194488525
1773048315072022000,1.07102197265625,-1.0872879028320312,-0.25083911418914795,-0.41653263568878174
1773048315082059800,1.081059814453125,0.519902229309082,-0.4087573289871216,0.31510138511657715
1773048315092024300,1.0910244140625,0.5236482620239258,-0.21063107252120972,0.8144381642341614
1773048315102204400,1.101204345703125,0.2625570297241211,-0.11784964799880981,-0.6831772327423096
1773048315112384500,1.111384521484375,-0.8144702911376953,-0.33017978072166443,-0.6246174573898315
1773048315122564400,1.121564453125,-0.49751949310302734,-0.45477861166000366,0.21622145175933838
1773048315132633600,1.131633544921875,-0.18418312072753906,0.07019436359405518,0.21382296085357666
1773048315142588700,1.141588623046875,1.0537643432617188,-0.3614521026611328,-0.34394264221191406
1773048315152585000,1.1515849609375,-0.1219635009765625,-0.5423448085784912,0.09087741374969482
1773048315162545000,1.161544921875,-1.219202995300293,-0.2766331136226654,-0.12990951538085938
1773048315172537600,1.17153759765625,0.6833715438842773,-0.3264871835708618,-0.40741991996765137
1773048315182501000,1.181501220703125,0.7712697982788086,-0.08233430981636047,0.27552974224090576
1773048315192490800,1.19149072265625,-0.918269157409668,-0.35676658153533936,0.03980398178100586
1773048315202457000,1.20145703125,-0.5533676147460938,-0.49464151263237,-0.7942272424697876
1773048315212444700,1.211444580078125,-0.24458694458007812,-0.39139577746391296,0.6155949831008911
1773048315222413300,1.221413330078125,1.1984777450561523,-0.5057951807975769,0.19911134243011475
1773048315232398800,1.23139892578125,-0.5476589202880859,-0.4864179193973541,-0.5468486547470093
1773048315242369500,1.24136962890625,-0.9500350952148438,-0.30622410774230957,-0.1383575201034546
1773048315252353500,1.251353515625,0.11620903015136719,-0.5216388702392578,-0.3243083953857422
1773048315262325500,1.261325439453125,0.6128807067871094,-0.2889273762702942,-0.3789353370666504
1773048315272308500,1.27130859375,-0.13262367248535156,-0.3475099503993988,0.5270049571990967
1773048315282281700,1.28128173828125,-0.012944221496582031,-0.4856450855731964,-0.24223566055297852
1773048315292263400,1.291263427734375,-0.6861095428466797,-0.46677500009536743,-0.7695600986480713
1773048315302237700,1.30123779296875,0.10737419128417969,-0.4141960144042969,0.7158489227294922
1773048315312219000,1.311218994140625,-0.23041439056396484,-0.09211242198944092,-0.21076345443725586
1773048315322194000,1.32119384765625,0.17485427856445312,-0.445649117231369,-0.97792649269104
1773048315332174300,1.33117431640625,-0.5239429473876953,-0.6352143287658691,0.35205841064453125
1773048315342150000,1.34114990234375,-0.5715808868408203,-0.5196395516395569,0.6474486589431763
1773048315352130000,1.351130126953125,0.9610729217529297,-0.39031079411506653,-0.158669114112854
1773048315362009900,1.361009765625,-0.15739727020263672,-0.16775117814540863,-0.5145219564437866
1773048315371829800,1.370829833984375,-0.09436702728271484,-0.5729816555976868,-0.2394014596939087
1773048315382009900,1.381009765625,-0.4304342269897461,-0.34017229080200195,0.23825466632843018
1773048315392046300,1.39104638671875,0.7689695358276367,-0.11361706256866455,-0.36052119731903076
1773048315402018000,1.40101806640625,0.24066448211669922,-0.44469037652015686,-0.017788290977478027
1773048315412001300,1.411001220703125,-0.3642148971557617,-0.7531969547271729,0.7004225254058838
1773048315421974300,1.420974365234375,-0.7266006469726562,-0.4048820436000824,0.16867494583129883
1773048315431956500,1.43095654296875,0.6748952865600586,-0.016607731580734253,-0.7812356948852539
1773048315441930200,1.44093017578125,0.5840921401977539,-0.18260183930397034,-0.004308819770812988
1773048315451911700,1.45091162109375,-0.716792106628418,-0.4038531184196472,0.601508617401123
1773048315461886500,1.460886474609375,-0.6208438873291016,-0.2631041407585144,-0.3870145082473755
1773048315471867100,1.4708671875,1.2122230529785156,-0.546256422996521,0.016132473945617676
1773048315481842400,1.480842529296875,0.9700613021850586,-0.27619531750679016,0.7819823026657104
1773048315491822600,1.490822509765625,-1.0699329376220703,-0.013303041458129883,-0.6064341068267822
1773048315501798700,1.500798583984375,-0.19727230072021484,-0.5123301148414612,-0.27120137214660645
1773048315511778300,1.5107783203125,0.003947257995605469,-0.11019299924373627,-0.007229924201965332
1773048315521754600,1.520754638671875,-0.12415599822998047,0.08905714750289917,0.15532898902893066
1773048315531734000,1.530734130859375,0.8364725112915039,-0.5527530908584595,0.31475305557250977
1773048315541710800,1.5407109375,-1.7488226890563965,-0.08898285031318665,-0.25042998790740967
1773048315551690000,1.55068994140625,0.5349569320678711,-0.07416817545890808,-0.05912160873413086
1773048315561666800,1.560666748046875,0.8117618560791016,0.22941195964813232,-0.3562333583831787
1773048315571645700,1.570645751953125,-0.8902072906494141,0.08911365270614624,-0.28749239444732666
1773048315581525800,1.58052587890625,-0.42251014709472656,-0.4108556807041168,0.35674524307250977
1773048315591346000,1.590345947265625,-0.1675281524658203,0.15630465745925903,-0.23100411891937256
1773048315601346300,1.60034619140625,1.1455011367797852,-0.00696524977684021,-0.4349294900894165
1773048315611306200,1.61030615234375,-0.720524787902832,-0.031946539878845215,0.7094906568527222
1773048315621486300,1.620486328125,-0.9291133880615234,0.14364111423492432,-1.2248079776763916
1773048315631522300,1.630522216796875,0.802800178527832,0.20329245924949646,-0.5678118467330933
1773048315641491000,1.640490966796875,0.5215177536010742,0.1387602984905243,0.7679972648620605
1773048315651476500,1.6504765625,-0.969635009765625,0.10431843996047974,-0.008336186408996582
1773048315661447200,1.660447265625,-0.7584753036499023,0.0600283145904541,-0.6030596494674683
1773048315671431200,1.67043115234375,1.1672687530517578,0.02109074592590332,-0.43601298332214355
1773048315681442300,1.6804423828125,0.1612100601196289,0.4099780321121216,-0.044786810874938965
1773048315691429000,1.69042919921875,-0.7860078811645508,-0.09740984439849854,-0.06209158897399902
1773048315701359600,1.700359619140625,-0.0010318756103515625,-0.20679694414138794,-0.18240821361541748
1773048315711340500,1.710340576171875,0.7217617034912109,-0.058865755796432495,0.2173004150390625
1773048315721315600,1.720315673828125,0.14177703857421875,0.20273414254188538,-0.06296658515930176
1773048315731296300,1.730296142578125,-0.9194536209106445,0.005605965852737427,-0.34098541736602783
1773048315741271800,1.740271728515625,0.22301578521728516,-0.13216795027256012,-0.7122392654418945
1773048315751251700,1.750251708984375,-0.06364154815673828,0.04885286092758179,0.21635699272155762
1773048315761227800,1.760227783203125,0.2933197021484375,-0.29794666171073914,0.6942932605743408
1773048315771207400,1.77020751953125,-0.768916130065918,-0.395419180393219,-0.5344908237457275
1773048315781184000,1.78018408203125,0.2250833511352539,-0.09255075454711914,-0.36245203018188477
1773048315791163400,1.790163330078125,0.8135004043579102,-0.24829146265983582,0.5242841243743896
1773048315801140200,1.80014013671875,-0.7278251647949219,-0.021707892417907715,-0.588575005531311
1773048315811119000,1.810119140625,-0.8801584243774414,-0.3393147587776184,-0.1701122522354126
1773048315821096200,1.82009619140625,1.1800270080566406,-0.3880089819431305,0.444766640663147
1773048315831075000,1.830074951171875,-0.32532310485839844,-0.34183359146118164,-0.46649467945098877
1773048315841052400,1.840052490234375,-0.42316246032714844,-0.45617973804473877,0.3415466547012329
1773048315851031000,1.850031005859375,-0.8914260864257812,-0.13320419192314148,-0.30130302906036377
1773048315861008400,1.86000830078125,0.5936203002929688,-0.06855088472366333,-1.015592098236084
1773048315870987000,1.869987060546875,0.5807886123657227,-0.7421160936355591,1.2816259860992432
1773048315880867000,1.8798671875,-1.0116729736328125,-0.3352753818035126,-0.23540008068084717
1773048315890687500,1.8896875,-0.5107355117797852,-0.14603900909423828,-0.6580119132995605
1773048315900867300,1.899867431640625,2.2233753204345703,-0.8326611518859863,0.6971840858459473
1773048315910904000,1.909904052734375,-1.0772066116333008,-0.2264542281627655,-0.3875070810317993
1773048315920838000,1.919837890625,-1.4423484802246094,0.18625673651695251,-0.7142826318740845
1773048315930816500,1.92981640625,1.5258102416992188,-0.7365167140960693,0.39771533012390137
1773048315940696300,1.9396962890625,0.4227485656738281,-0.6257302761077881,-0.16700279712677002
1773048315950559200,1.949559326171875,-1.554534912109375,-0.02051609754562378,-0.6183582544326782
1773048315960556000,1.95955615234375,0.462371826171875,-0.26639294624328613,0.17475426197052002
1773048315970519000,1.96951904296875,0.831110954284668,-0.4542508125305176,-0.5782147645950317
1773048315980512000,1.979511962890625,-0.3061399459838867,-0.3689969778060913,-0.59996497631073
1773048315990477800,1.989477783203125,-0.9945144653320312,0.0003078579902648926,0.6762855052947998
1773048316000468000,1.999468017578125,0.8100700378417969,-0.5128306150436401,-0.17925536632537842
1773048316010436400,2.009436279296875,1.0677738189697266,-0.48031455278396606,-0.9763131141662598
1773048316020616400,2.019616455078125,-1.5419988632202148,0.10727924108505249,0.32385897636413574
1773048316030651000,2.02965087890625,-0.11950302124023438,-0.09212422370910645,-0.6698806285858154
1773048316040531000,2.039531005859375,0.7141141891479492,-0.3399167060852051,0.3364361524581909
1773048316050347800,2.04934765625,0.8627910614013672,-0.5898290872573853,-0.288202166557312
1773048316060336400,2.05933642578125,-1.9124865531921387,0.1790129840373993,-0.40968525409698486
1773048316070306000,2.06930615234375,0.0019350051879882812,0.053361743688583374,0.24969303607940674
1773048316080292400,2.079292236328125,2.163388252258301,-0.5899921655654907,-0.19859445095062256
1773048316090263800,2.089263916015625,-1.0233983993530273,0.04563137888908386,-0.8564633131027222
1773048316100248300,2.099248291015625,-1.4611358642578125,0.020752638578414917,0.7185779809951782
1773048316110221000,2.109220947265625,1.0747156143188477,-0.20391619205474854,-0.15764343738555908
1773048316120204300,2.119204345703125,0.48349761962890625,-0.037031129002571106,-0.5459365844726562
1773048316130178000,2.129177978515625,-0.5142641067504883,0.02039352059364319,0.06343257427215576
1773048316140160500,2.139160400390625,-1.440201759338379,0.19539111852645874,-0.49307358264923096
1773048316150135300,2.14913525390625,1.2285852432250977,-0.14884965121746063,0.30198514461517334
1773048316160315100,2.159315185546875,0.4270782470703125,-0.25336822867393494,0.13549911975860596
1773048316170348500,2.1693486328125,-1.775169849395752,0.6194185018539429,-1.190075397491455
1773048316180228600,2.179228515625,-0.004504203796386719,0.11042869091033936,0.13010144233703613
1773048316190044700,2.189044677734375,1.6624526977539062,-0.43756985664367676,-0.18270421028137207
1773048316200224500,2.199224609375,-1.9698901176452637,0.5591958165168762,-0.021241307258605957
1773048316210258700,2.2092587890625,-0.36490535736083984,0.1564374566078186,-0.0069506168365478516
1773048316220218000,2.219218017578125,1.1851072311401367,-0.24918897449970245,-0.6609492301940918
1773048316230211000,2.229211181640625,-0.23054218292236328,0.17611083388328552,-0.5071090459823608
1773048316240174300,2.23917431640625,-1.0342483520507812,0.241673082113266,0.45978808403015137
1773048316250164500,2.24916455078125,0.8282957077026367,-0.2262135148048401,-0.1231762170791626
1773048316260044300,2.259044189453125,0.938939094543457,-0.21113812923431396,-0.24475312232971191
1773048316269905000,2.26890478515625,-0.8183612823486328,0.3894769549369812,0.6419849395751953
1773048316279892500,2.278892578125,-0.12378311157226562,0.1589512825012207,-0.31588172912597656
1773048316289863000,2.28886279296875,0.23429012298583984,0.01041114330291748,-0.7666529417037964
1773048316299848700,2.2988486328125,-0.23380279541015625,-0.08499717712402344,0.9575359225273132
1773048316309820400,2.3088203125,-0.4566612243652344,0.0012592971324920654,0.6336829662322998
1773048316319998700,2.318998779296875,0.1696004867553711,-0.1312224119901657,-1.6434290409088135
1773048316329991400,2.328991455078125,0.10660839080810547,-0.0634438544511795,0.33624267578125
1773048316339955000,2.338954833984375,-0.8992805480957031,0.009081065654754639,-0.3076040744781494
1773048316349944800,2.34894482421875,0.5195236206054688,-0.22807103395462036,-0.634598970413208
1773048316359825000,2.358824951171875,1.06005859375,-0.41673189401626587,-0.05665469169616699
1773048316369685200,2.368685302734375,-0.8410968780517578,-0.07965320348739624,-0.11462020874023438
1773048316379867400,2.378867431640625,-1.3949785232543945,0.46498510241508484,-0.6674805879592896
1773048316389857000,2.38885693359375,1.0792198181152344,-0.460235059261322,-0.4747718572616577
1773048316399737000,2.398737060546875,0.6311044692993164,-0.20384761691093445,-0.028509140014648438
1773048316409597700,2.40859765625,-2.511744976043701,0.41241562366485596,-0.18442785739898682
1773048316419779600,2.418779541015625,1.2298316955566406,-0.48786574602127075,0.24461078643798828
1773048316429769500,2.42876953125,1.081512451171875,-0.27943962812423706,-0.860954999923706
1773048316439735800,2.43873583984375,-1.0487966537475586,0.3475781977176666,-1.0256330966949463
1773048316449723400,2.448723388671875,0.15596771240234375,-0.034980520606040955,1.2134058475494385
1773048316459692000,2.458692138671875,1.3607282638549805,-0.10477930307388306,-1.3690330982208252
1773048316469677600,2.468677490234375,-1.3043947219848633,0.0675363838672638,-0.5380408763885498
1773048316479648000,2.47864794921875,-0.48475170135498047,0.6205483675003052,1.1500810384750366
1773048316489632300,2.48863232421875,0.45636940002441406,0.32726794481277466,-1.353898525238037
1773048316499604200,2.498604248046875,0.4207773208618164,-0.45002591609954834,-0.08077013492584229
1773048316509587200,2.508587158203125,-2.2306466102600098,0.5531443357467651,1.3317365646362305
1773048316519560400,2.518560546875,0.06138038635253906,0.9232704639434814,-1.4888585805892944
1773048316529542400,2.52854248046875,2.1726770401000977,-0.4004848897457123,0.7272936105728149
1773048316539516700,2.5385166015625,-1.658647060394287,0.5545432567596436,-0.14888012409210205
1773048316549497900,2.548497802734375,0.18337726593017578,0.30519795417785645,-0.6761854887008667
1773048316559378000,2.5583779296875,1.6646413803100586,0.2939913868904114,1.887862205505371
1773048316569240000,2.568239990234375,-1.220534324645996,0.5313546061515808,-1.138749361038208
1773048316579428900,2.578428955078125,0.38082313537597656,0.48124679923057556,-0.17173004150390625
1773048316589413000,2.5884130859375,0.6605501174926758,0.534887969493866,0.9016712307929993
1773048316599385000,2.598385009765625,-0.5909490585327148,0.25566890835762024,-0.3390699625015259
1773048316609368000,2.6083681640625,-0.0832223892211914,0.20638048648834229,0.548210620880127
1773048316619380000,2.6183798828125,0.8035669326782227,0.7913021445274353,-0.8347384929656982
1773048316629366000,2.628365966796875,-0.43396854400634766,0.4188477694988251,-0.0833897590637207
1773048316639297300,2.63829736328125,0.6304941177368164,-0.04599122703075409,0.8144419193267822
1773048316649278000,2.64827783203125,0.3520212173461914,0.5968908071517944,-0.8068541288375854
1773048316659253500,2.65825341796875,-0.2359762191772461,0.5871338248252869,0.10692477226257324
1773048316669233400,2.6682333984375,0.8522243499755859,-0.18873795866966248,-0.6188304424285889
1773048316679209700,2.678209716796875,-0.6908082962036133,0.33447369933128357,-0.02604663372039795
1773048316689189400,2.688189453125,-0.6452112197875977,0.42195603251457214,0.760063648223877
1773048316699165700,2.698165771484375,-0.027204513549804688,-0.019120514392852783,-1.125915288925171
1773048316709145000,2.70814501953125,0.6404504776000977,-0.11963418126106262,0.3324390649795532
1773048316719122000,2.718121826171875,-1.759915828704834,0.6757352352142334,-0.18809080123901367
1773048316729101000,2.72810107421875,0.5163421630859375,-0.15163853764533997,-0.0823584794998169
1773048316739078100,2.738078125,1.1486968994140625,-0.34135866165161133,0.7816770076751709
1773048316749057000,2.74805712890625,-2.164254665374756,0.537114143371582,-1.1975294351577759
1773048316758937000,2.75793701171875,0.7952861785888672,-0.08387534320354462,-0.002133488655090332
1773048316768799700,2.7677998046875,1.154881477355957,-0.20266085863113403,-0.07729816436767578
1773048316778796300,2.77779638671875,-1.1856212615966797,0.25628936290740967,0.11010432243347168
1773048316788759300,2.78775927734375,-0.10333633422851562,0.14158841967582703,-0.2207927703857422
1773048316798946300,2.7979462890625,0.9461755752563477,-0.4451310634613037,-0.4548470973968506
1773048316808932000,2.80793212890625,-0.9166316986083984,0.31551170349121094,0.4445157051086426
1773048316818902500,2.817902587890625,-1.0705318450927734,0.5149203538894653,-0.46352601051330566
1773048316828886800,2.82788671875,2.0331010818481445,-0.7396719455718994,0.001001119613647461
1773048316838858800,2.837858642578125,-1.450510025024414,0.3931843638420105,0.003984332084655762
1773048316848841700,2.847841796875,-0.09113597869873047,0.6210818290710449,-0.3771775960922241
1773048316858814700,2.857814697265625,1.7214012145996094,-0.5871962904930115,-0.08237981796264648
1773048316868797000,2.867796875,-1.5274477005004883,0.43055081367492676,-0.23701131343841553
1773048316878676700,2.8776767578125,-0.1107015609741211,0.20995107293128967,0.025951862335205078
1773048316888539000,2.887538818359375,1.1151180267333984,0.009144306182861328,-0.12976157665252686
1773048316898727000,2.897726806640625,-1.049234390258789,0.17143142223358154,-0.897802472114563
1773048316908712000,2.9077119140625,0.45629310607910156,-0.11006718873977661,0.726871132850647
1773048316918683100,2.91768310546875,-0.3134326934814453,0.37656331062316895,-0.35384929180145264
1773048316928666600,2.92766650390625,-1.4140396118164062,0.5993559956550598,-0.980915904045105
1773048316938639400,2.937639404296875,1.7334403991699219,-0.0792710930109024,0.22152376174926758
1773048316948621800,2.947621826171875,-0.4951028823852539,0.5116935968399048,-0.2513847351074219
1773048316958595600,2.957595703125,-0.6415567398071289,0.18552252650260925,-0.20454394817352295
1773048316968577000,2.967576904296875,1.3064861297607422,-0.03443610668182373,0.044835448265075684
1773048316978457000,2.97745703125,-0.7203426361083984,0.4224851131439209,-0.3855471611022949
1773048316988319200,2.9873193359375,0.026093482971191406,0.301820307970047,0.2004261016845703
1773048316998507800,2.9975078125,1.3089799880981445,0.014443546533584595,-0.25111961364746094
1773048317008492300,3.0074921875,-0.6414995193481445,0.05146566033363342,0.002080202102661133
1773048317018464000,3.017464111328125,-0.6824455261230469,0.9666804075241089,-0.3859891891479492
1773048317028447200,3.027447265625,1.1037492752075195,-0.07287608087062836,0.44187378883361816
1773048317038420000,3.037419921875,0.6039438247680664,-0.2779090702533722,0.19862794876098633
1773048317048402200,3.047402099609375,-1.9021477699279785,0.9045329093933105,-0.9183444976806641
1773048317058376200,3.057376220703125,1.2040033340454102,-0.18658553063869476,0.5109119415283203
1773048317068357600,3.067357666015625,-0.006412506103515625,-0.04342976212501526,0.2278306484222412
1773048317078332400,3.07733251953125,0.059746742248535156,0.4287523925304413,-1.217403531074524
1773048317088313000,3.08731298828125,-0.3505229949951172,-0.37493762373924255,0.7685387134552002
1773048317098288600,3.09728857421875,0.007967948913574219,0.5995235443115234,-0.4969748258590698
1773048317108268800,3.107268798828125,1.8920316696166992,-0.07068565487861633,-0.9334204196929932
1773048317118244600,3.11724462890625,-1.258127212524414,0.008794784545898438,0.7973337173461914
1773048317128224500,3.127224609375,-0.6146831512451172,0.5767083168029785,-0.4715580940246582
1773048317138200800,3.137200927734375,1.361954689025879,-0.21849144995212555,-0.12238109111785889
1773048317148180200,3.14718017578125,-0.6173982620239258,0.19643241167068481,0.0018112659454345703
1773048317158158300,3.157158447265625,-0.7920322418212891,-0.16189926862716675,-0.0657881498336792
1773048317168135200,3.16713525390625,0.3936443328857422,0.5401200652122498,0.036884307861328125
1773048317178114300,3.1771142578125,-0.07057857513427734,0.7372308373451233,-0.4358872175216675
1773048317188091400,3.18709130859375,1.7997493743896484,-0.2806274890899658,0.20681285858154297
1773048317198070300,3.1970703125,-2.7333273887634277,0.557974100112915,0.3536641597747803
1773048317208047400,3.20704736328125,0.6382913589477539,1.271054983139038,-0.8701502084732056
1773048317218026200,3.217026123046875,2.2538700103759766,-0.5334604978561401,1.098048448562622
1773048317228003600,3.227003662109375,-2.4814209938049316,0.6643242835998535,-0.9684802293777466
1773048317237982200,3.236982177734375,-0.45561790466308594,0.4660862684249878,-1.0381561517715454
1773048317247959800,3.246959716796875,-0.06770706176757812,0.4807609021663666,1.9610711336135864
1773048317257938200,3.256938232421875,0.50958251953125,0.8750309348106384,-1.211828589439392
1773048317267915800,3.266915771484375,0.22174549102783203,-0.029528826475143433,-1.4549890756607056
1773048317277894400,3.276894287109375,-2.1077933311462402,0.5878214836120605,2.2542717456817627
1773048317287872000,3.2868720703125,2.3932809829711914,0.9164726734161377,-1.8138543367385864
1773048317297850400,3.296850341796875,-0.2622995376586914,0.061987847089767456,-0.3994717597961426
1773048317307828200,3.306828125,-0.7583189010620117,0.8960753679275513,-0.1048884391784668
1773048317317806300,3.316806396484375,-0.6363506317138672,0.786014199256897,-0.11828958988189697
1773048317327784200,3.3267841796875,0.8395929336547852,0.18124184012413025,-0.00833892822265625
1773048317337762600,3.336762451171875,-0.9901294708251953,0.9995223879814148,-0.5046343803405762
1773048317347642600,3.346642578125,-1.1827707290649414,0.7503335475921631,0.08302462100982666
1773048317357463000,3.356463134765625,1.211745262145996,0.2069859802722931,0.14626026153564453
1773048317367643000,3.366642822265625,-0.6860971450805664,0.3416738510131836,0.6034616231918335
1773048317377680000,3.376679931640625,-0.6978321075439453,0.519675076007843,-0.9767894744873047
1773048317387652600,3.386652587890625,0.9839487075805664,0.396274209022522,0.44035470485687256
1773048317397634800,3.396634765625,-0.19763660430908203,0.23438823223114014,0.8275811672210693
1773048317407608800,3.40660888671875,0.5472736358642578,0.3231571614742279,-0.8620643615722656
1773048317417590300,3.41659033203125,-0.38019752502441406,0.31892648339271545,0.33951127529144287
1773048317427565000,3.42656494140625,0.1598367691040039,0.3780277967453003,0.4784592390060425
1773048317437545700,3.436545654296875,0.9418087005615234,0.2423105537891388,-0.54194176197052
1773048317447425800,3.44642578125,-1.5952038764953613,0.630129337310791,0.13555908203125
1773048317457245700,3.45624560546875,0.8762454986572266,-0.06338465213775635,-0.0199354887008667
1773048317467425500,3.466425537109375,-0.43383026123046875,0.30734631419181824,-0.72850501537323
1773048317477462000,3.4764619140625,-0.5620746612548828,0.5538703203201294,0.16757118701934814
1773048317487433500,3.48643359375,1.2433738708496094,0.07572415471076965,-0.5812275409698486
1773048317497417000,3.4964169921875,-1.0557870864868164,-0.1260918378829956,-0.398895263671875
1773048317507389400,3.506389404296875,0.598210334777832,0.04729413986206055,-0.07765161991119385
1773048317517372000,3.516371826171875,-1.0020074844360352,0.2846587896347046,-0.15933823585510254
1773048317527345700,3.526345703125,1.8973894119262695,-0.5494210124015808,-0.246618390083313
1773048317537327400,3.536327392578125,-0.4460325241088867,-0.7095027565956116,-0.018373727798461914
1773048317547302000,3.546302001953125,-1.1419677734375,-0.14303717017173767,0.1667402982711792
1773048317557282800,3.55628271484375,1.6961965560913086,-1.0368781089782715,-0.09135639667510986
1773048317567258000,3.566258056640625,-0.6089677810668945,-0.7313617467880249,0.4729654788970947
1773048317577238500,3.576238525390625,-0.10635852813720703,-0.5154830813407898,-0.09347975254058838
1773048317587214000,3.586214111328125,0.01818561553955078,-0.9882817268371582,-0.35941028594970703
1773048317597194000,3.596194091796875,0.16103649139404297,-0.9340570569038391,0.20889902114868164
1773048317607074000,3.606073974609375,-0.3356962203979492,-0.3888680934906006,0.3200322389602661
1773048317616894200,3.615894287109375,0.7961149215698242,-0.8657704591751099,-0.910542368888855
1773048317627074300,3.62607421875,-0.37499237060546875,-1.1079928874969482,-0.31996607780456543
1773048317637110800,3.63611083984375,-0.584193229675293,-1.0488221645355225,0.5112496614456177
1773048317646990800,3.645990966796875,0.8207712173461914,-1.227844476699829,-0.6374540328979492
1773048317656810000,3.65581005859375,0.007237434387207031,-1.158408761024475,-0.3219839334487915
1773048317666989800,3.66598974609375,-0.5417032241821289,-0.9598233699798584,0.20566332340240479
1773048317677025800,3.67602587890625,-0.5690841674804688,-0.6001375913619995,-0.12523949146270752
1773048317686994700,3.68599462890625,1.1073455810546875,-0.398835152387619,0.41938161849975586
1773048317696980200,3.695980224609375,0.3550682067871094,-0.8471722602844238,0.39285898208618164
1773048317706951000,3.705950927734375,-1.3262271881103516,-0.8187178373336792,-0.8138488531112671
1773048317716935000,3.715934814453125,0.8299446105957031,-0.8184298276901245,-0.46759819984436035
1773048317726907100,3.7259072265625,0.5605888366699219,-0.7623346447944641,0.0420379638671875
1773048317736890000,3.73589013671875,-0.2380352020263672,-0.8489990234375,-1.3120179176330566
1773048317746770000,3.74577001953125,-0.6383447647094727,-0.4637434482574463,0.09137201309204102
1773048317756589600,3.755589599609375,-0.21183395385742188,-0.5715570449829102,-0.5594322681427002
1773048317766769400,3.765769287109375,0.0084381103515625,-0.5215572118759155,0.19205248355865479
1773048317776805600,3.7758056640625,-0.044051170349121094,-0.36692726612091064,0.4735889434814453
1773048317786775600,3.785775634765625,0.5529603958129883,-0.6423827409744263,-0.4539353847503662
1773048317796760300,3.79576025390625,-0.37900638580322266,-0.8698724508285522,-0.22950482368469238
1773048317806640000,3.80564013671875,-0.5164327621459961,-0.7529921531677246,0.4539179801940918
1773048317816459300,3.815459228515625,0.3107919692993164,-0.8460254669189453,-0.8046374320983887
1773048317826455000,3.825455078125,-0.07199668884277344,-0.4620198905467987,-0.6253702640533447
1773048317836418800,3.835418701171875,0.10457801818847656,-0.675347089767456,1.3470253944396973
1773048317846411000,3.845410888671875,-0.17735958099365234,-0.8975565433502197,-1.4592407941818237
1773048317856377900,3.8553779296875,-0.6879405975341797,-0.2849982976913452,-0.00430905818939209
1773048317866557700,3.8655576171875,0.9365959167480469,-0.47456902265548706,0.4160994291305542
1773048317876592600,3.875592529296875,-0.5500736236572266,-0.812790036201477,-0.5589935779571533
1773048317886556200,3.88555615234375,-0.40569114685058594,-0.5245435833930969,0.3144744634628296
1773048317896546000,3.895546142578125,0.5979595184326172,-0.8385598659515381,-0.07463932037353516
1773048317906512600,3.9055126953125,-0.4392881393432617,-0.7560998797416687,-0.6492260694503784
1773048317916500000,3.9155,0.6069278717041016,-0.582996129989624,0.3847144842147827
1773048317926468600,3.925468505859375,0.4002704620361328,-0.7875630259513855,-0.19742894172668457
1773048317936454100,3.9354541015625,-1.0141973495483398,-0.625334620475769,-0.048357367515563965
1773048317946424800,3.9454248046875,0.9548263549804688,-0.5192257165908813,0.8003902435302734
1773048317956408800,3.955408935546875,-0.6944694519042969,-0.3720879554748535,-1.1320066452026367
1773048317966381000,3.965381103515625,0.2947206497192383,-0.7253448963165283,0.6700023412704468
1773048317976364000,3.975364013671875,-0.6033143997192383,-0.7011196613311768,0.21239745616912842
1773048317986337300,3.985337158203125,0.14217758178710938,-0.3431698679924011,-0.4196794033050537
1773048317996319200,3.9953193359375,1.0632247924804688,-0.8537082672119141,-0.31026148796081543
1773048318006293500,4.00529345703125,-1.3173103332519531,-0.4862557053565979,-0.1826246976852417
1773048318016274700,4.015274658203125,0.41369152069091797,-0.6295459270477295,0.5036293268203735
1773048318026249700,4.025249755859375,0.3604307174682617,-0.8392831087112427,-1.2058130502700806
1773048318036230100,4.035230224609375,-1.0348310470581055,-0.19093552231788635,0.04453253746032715
1773048318046110200,4.045110107421875,1.8894157409667969,-0.6872255802154541,1.6186715364456177
1773048318055972600,4.05497265625,-1.63338041305542,-0.7974056601524353,-2.115412712097168
1773048318066162000,4.065161865234375,-0.488800048828125,-0.5015437602996826,0.3294409513473511
1773048318076145700,4.075145751953125,1.5613288879394531,-0.734749436378479,1.570082187652588
1773048318086118100,4.0851181640625,-0.8728408813476562,-0.7349583506584167,-1.7779420614242554
1773048318096100900,4.095100830078125,-0.4603433609008789,-0.7335689067840576,0.5500372648239136
1773048318106074400,4.105074462890625,-0.5307912826538086,-0.7469815015792847,0.1903308629989624
1773048318116056000,4.11505615234375,1.7142791748046875,-0.9307002425193787,-0.6130495071411133
1773048318126030300,4.1250302734375,-1.4933815002441406,-0.7301115989685059,0.4513583183288574
1773048318136011500,4.135011474609375,0.44805908203125,-0.4414709210395813,-0.4743213653564453
1773048318145891600,4.1448916015625,0.8191919326782227,-0.6801168322563171,0.060317277908325195
1773048318155711200,4.154711181640625,-0.7015867233276367,-0.7452929615974426,0.08477914333343506
1773048318165891300,4.164891357421875,-1.325521469116211,-0.2951548397541046,0.11302828788757324
1773048318175927800,4.174927734375,1.3365201950073242,-0.9006860256195068,0.10416686534881592
1773048318185898800,4.184898681640625,-0.647770881652832,-0.7847907543182373,-0.004525184631347656
1773048318195882500,4.194882568359375,-0.6660146713256836,-0.4871046543121338,-0.6389163732528687
1773048318205855000,4.20485498046875,0.8348903656005859,-0.8914824724197388,0.20059049129486084
1773048318215837700,4.214837646484375,-0.637934684753418,-0.6851796507835388,-0.8249858617782593
1773048318225717800,4.2247177734375,1.0057449340820312,-0.7411156892776489,0.7147338390350342
1773048318235597600,4.23459765625,0.2059955596923828,-0.6502902507781982,0.012740850448608398
1773048318245534500,4.244534423828125,0.32960033416748047,-0.6832019686698914,-1.1006884574890137
1773048318255497700,4.254497802734375,-0.9554347991943359,-0.703123927116394,0.28060436248779297
1773048318265677800,4.264677734375,0.6891450881958008,-0.7260464429855347,0.10807228088378906
1773048318275713300,4.27471337890625,0.3534364700317383,-0.658942461013794,-0.23924851417541504
1773048318285679600,4.2846796875,-1.0273189544677734,-0.7587472200393677,-0.4606971740722656
1773048318295667200,4.294667236328125,-0.012569427490234375,-0.5427954792976379,0.21646428108215332
1773048318305635800,4.3046357421875,0.3358926773071289,-0.6429905891418457,0.05210256576538086
1773048318315621600,4.31462158203125,0.779266357421875,-0.7561497092247009,-0.3635650873184204
1773048318325592000,4.324592041015625,-1.0845708847045898,-0.4362785518169403,0.162339448928833
1773048318335576000,4.334576171875,0.9423828125,-0.8317642211914062,-0.07221245765686035
1773048318345548300,4.34454833984375,-0.25801753997802734,-0.5109732151031494,-0.28768348693847656
1773048318355531300,4.35453125,-1.0453901290893555,-0.458365797996521,-0.48726487159729004
1773048318365504500,4.36450439453125,0.5470418930053711,-0.9919678568840027,0.8381394147872925
1773048318375486500,4.374486572265625,-0.9008121490478516,-0.6417341232299805,-0.5214637517929077
1773048318385460700,4.384460693359375,0.2279033660888672,-0.654064953327179,-0.19443833827972412
1773048318395442000,4.39444189453125,-0.006505012512207031,-0.6708967685699463,0.5905090570449829
1773048318405416700,4.404416748046875,-0.565363883972168,-0.3875032663345337,-0.5622683763504028
1773048318415397400,4.4143974609375,0.8540678024291992,-0.9110798835754395,-0.5350328683853149
1773048318425373000,4.424373046875,-1.1771364212036133,-0.31755104660987854,0.6887669563293457
1773048318435353000,4.43435302734375,0.635014533996582,-0.7124218940734863,0.15161335468292236
1773048318445329200,4.4443291015625,0.4714956283569336,-0.8633566498756409,-1.1073700189590454
1773048318455308800,4.454308837890625,-1.6258587837219238,-0.14191967248916626,-0.5043812990188599
1773048318465285400,4.464285400390625,0.5362377166748047,-0.7620272636413574,0.46194779872894287
1773048318475264800,4.4742646484375,-0.25299549102783203,-0.637226402759552,0.8486241102218628
1773048318485241600,4.48424169921875,-0.6532068252563477,-0.4733711779117584,-1.7977558374404907
1773048318495220700,4.494220703125,0.03565692901611328,-0.5831547379493713,0.8689543008804321
1773048318505197800,4.50419775390625,0.0019893646240234375,-0.7159159183502197,1.052278757095337
1773048318515176700,4.5141767578125,-0.2463207244873047,-0.5093839764595032,-1.6821966171264648
1773048318525153800,4.52415380859375,0.5557003021240234,-0.5855395793914795,0.4039567708969116
1773048318535132700,4.534132568359375,0.25801658630371094,-0.8952850699424744,0.5023719072341919
1773048318545110000,4.544110107421875,-0.8745956420898438,-0.45512956380844116,-0.7789163589477539
1773048318555088600,4.554088623046875,1.0893230438232422,-0.5884709358215332,-0.40671348571777344
1773048318565066200,4.564066162109375,-0.20725059509277344,-0.6124321222305298,-0.8472435474395752
1773048318575044600,4.574044677734375,-1.1383295059204102,-0.5840174555778503,0.8302023410797119
1773048318585061000,4.58406103515625,0.8218812942504883,-0.6736226081848145,0.09714233875274658
1773048318595043600,4.594043701171875,-0.4596881866455078,-0.6116791367530823,-1.0563315153121948
1773048318604978700,4.603978759765625,0.34335899353027344,-0.7300722002983093,0.6439011096954346
1773048318614956000,4.6139560546875,-1.1661405563354492,-0.5773365497589111,0.3017629384994507
1773048318624934700,4.6239345703125,1.5676326751708984,-0.699702799320221,-1.3388886451721191
1773048318634912500,4.63391259765625,0.27957630157470703,-0.747488260269165,0.2823519706726074
1773048318644891000,4.643890869140625,-0.9005441665649414,-0.05920107662677765,0.5173341035842896
1773048318654868700,4.65386865234375,0.8345317840576172,0.8564341068267822,-0.40640687942504883
1773048318664847000,4.66384716796875,0.8181695938110352,-0.10318827629089355,-0.6585376262664795
1773048318674824700,4.67382470703125,-0.6495676040649414,-0.982024610042572,0.4546242952346802
1773048318684803300,4.68380322265625,-2.4050803184509277,-0.518091082572937,0.05503284931182861
1773048318694781200,4.69378125,0.7896499633789062,0.3555638790130615,-0.9868712425231934
1773048318704759300,4.70375927734375,1.899989128112793,0.7349040508270264,0.8369218111038208
1773048318714737200,4.713737060546875,0.41510677337646484,-0.6423889398574829,-0.743283748626709
1773048318724715500,4.723715576171875,-2.2690749168395996,-0.9619266986846924,-0.7831761837005615
1773048318734693600,4.733693603515625,-0.9701147079467773,0.1931852549314499,1.4146060943603516
1773048318744671700,4.743671630859375,2.5133056640625,1.1950470209121704,-0.11314070224761963
1773048318754649600,4.753649658203125,-0.09507560729980469,0.722602367401123,-0.7763391733169556
1773048318764628000,4.7636279296875,-0.2814464569091797,-0.7258000373840332,1.1871289014816284
1773048318774605800,4.773605712890625,-2.4239964485168457,-0.5394570231437683,-1.3549455404281616
1773048318784584000,4.783583984375,0.3313016891479492,0.43906939029693604,-0.11049747467041016
1773048318794562000,4.79356201171875,1.9923982620239258,-0.7117477059364319,-0.2738347053527832
1773048318804540200,4.8035400390625,-1.961327075958252,-0.7624973058700562,1.1332952976226807
1773048318814518300,4.813518310546875,-0.9394626617431641,-0.39173662662506104,-0.06087028980255127
1773048318824496400,4.823496337890625,0.8293342590332031,-0.5913909673690796,-0.42319297790527344
1773048318834474500,4.833474609375,0.5885438919067383,-0.21569068729877472,0.26640784740448
1773048318844452600,4.84345263671875,-2.17289400100708,-0.48597508668899536,0.9387543797492981
1773048318854430500,4.853430419921875,0.41064453125,-0.8300183415412903,-0.11993992328643799
1773048318864408600,4.86340869140625,0.13754749298095703,-0.8452494144439697,-0.43372106552124023
1773048318874386700,4.87338671875,0.4282703399658203,-0.5537148118019104,0.5166943073272705
1773048318884364800,4.88336474609375,-0.6518917083740234,-0.5644984841346741,-0.06034660339355469
1773048318894343000,4.893343017578125,0.3428783416748047,-0.888451337814331,-0.7063628435134888
1773048318904321000,4.903321044921875,-1.3382577896118164,-0.7505905032157898,-0.5510977506637573
1773048318914299100,4.913299072265625,0.6987190246582031,-0.4258189797401428,0.5099856853485107
1773048318924277200,4.92327734375,1.146073341369629,-0.7078566551208496,-0.622339129447937
1773048318934255400,4.93325537109375,-1.2914791107177734,-0.31164926290512085,-1.0055897235870361
1773048318944233200,4.943233154296875,0.02921772003173828,-0.4752325415611267,1.2140454053878784
1773048318954211300,4.95321142578125,1.1516714096069336,-0.8252955675125122,-0.13538682460784912
1773048318964189400,4.963189453125,0.6000528335571289,-0.6587523221969604,-0.05562543869018555
1773048318974167600,4.97316748046875,-0.7237052917480469,-0.32652756571769714,0.364285945892334
1773048318984145700,4.983145751953125,0.5340175628662109,-0.8297717571258545,-0.6457048654556274
1773048318994123800,4.993123779296875,-0.5604238510131836,-0.7503913044929504,-0.0625382661819458
1773048319004102000,5.003101806640625,-0.3012857437133789,-0.5418822765350342,-0.6507360935211182
1773048319014080000,5.013080078125,1.1318655014038086,-0.5538105368614197,0.337017297744751
1773048319024057900,5.023057861328125,-0.10742568969726562,-0.5369907021522522,0.2726095914840698
1773048319034036000,5.033035888671875,-0.7515459060668945,-0.2762115001678467,-0.8577862977981567
1773048319044014000,5.04301416015625,0.03336906433105469,-0.5760413408279419,0.18414902687072754
1773048319053992200,5.0529921875,0.5681524276733398,-0.6973585486412048,0.3170762062072754
1773048319063970300,5.06297021484375,-1.218907356262207,-0.24117711186408997,-0.7307095527648926
1773048319073948400,5.072948486328125,0.5262947082519531,-0.6018299460411072,0.7170214653015137
1773048319083926500,5.082926513671875,-0.2675971984863281,-0.7995057106018066,-0.23836958408355713
1773048319093904600,5.092904541015625,-0.8640460968017578,-0.31873953342437744,-0.05173194408416748
1773048319103882500,5.102882568359375,1.4008817672729492,-0.631189227104187,0.9308931231498718
1773048319113860600,5.112860595703125,-0.6695117950439453,-0.21801882982254028,-1.6679115295410156
1773048319123800000,5.122800048828125,-1.0070810317993164,-0.44600728154182434,0.4564551115036011
1773048319133774000,5.132774169921875,0.5617341995239258,-0.6867382526397705,-0.3870924711227417
1773048319143795000,5.142794921875,-0.29880809783935547,-0.35086551308631897,-0.6170518398284912
1773048319153773800,5.15277392578125,1.0340032577514648,-0.7585426568984985,0.7335498332977295
1773048319163712300,5.162712158203125,-1.1118488311767578,-0.3835938572883606,-0.4794214963912964
1773048319173687000,5.17268701171875,0.00782012939453125,-0.3393365740776062,-0.22427964210510254
1773048319183707100,5.18270703125,1.0441598892211914,-0.4612625241279602,0.16263139247894287
1773048319193686500,5.1926865234375,-1.0592155456542969,0.34209370613098145,-0.35884547233581543
1773048319203624400,5.20262451171875,0.6618261337280273,-0.03510315716266632,0.11888539791107178
1773048319213599700,5.212599853515625,0.03475475311279297,-0.5555782318115234,-0.35755884647369385
1773048319223580700,5.22258056640625,-0.6388492584228516,0.13787338137626648,0.23059630393981934
1773048319243537000,5.242536865234375,1.0416574478149414,-0.030779734253883362,-1.6463844776153564
1773048319253513200,5.25251318359375,-1.119344711303711,-0.4327458143234253,-0.2639486789703369
1773048319263531800,5.26253173828125,-0.42481136322021484,0.1601133793592453,0.764106035232544
1773048319273512400,5.272512451171875,0.5404090881347656,0.7117215394973755,-0.6743230819702148
1773048319283488000,5.282488037109375,1.8090057373046875,-0.4031161069869995,0.012192249298095703
1773048319293468000,5.292468017578125,-1.6857199668884277,-0.6417741775512695,0.43459439277648926
1773048319303405300,5.3024052734375,-1.2999839782714844,-0.10117199271917343,-0.03763937950134277
1773048319313381000,5.312381103515625,1.190455436706543,0.24176180362701416,0.11323761940002441
1773048319323284000,5.322283935546875,0.8008203506469727,-0.2842981815338135,-0.6596468687057495
1773048319333252400,5.33225244140625,-1.1542768478393555,-0.1443314552307129,0.6627074480056763
1773048319343240000,5.342239990234375,-1.0036687850952148,-1.1563804149627686,0.5207830667495728
1773048319353210400,5.35221044921875,1.0225715637207031,-1.0724772214889526,-0.443340539932251
1773048319363157200,5.3621572265625,-0.25937652587890625,0.945570170879364,0.4114769697189331
1773048319373125400,5.37212548828125,1.8176803588867188,-1.0082145929336548,0.4897186756134033
1773048319383074600,5.382074462890625,-0.6549596786499023,-1.2759791612625122,-0.9662166833877563
1773048319393041000,5.392041015625,-3.184368133544922,0.5033657550811768,0.07976663112640381
1773048319402953200,5.401953125,2.7672853469848633,-0.5708994269371033,0.5947054624557495
1773048319412914000,5.411913818359375,0.4118309020996094,-0.2866964340209961,-0.2923926115036011
1773048319422909200,5.4219091796875,-1.556717872619629,-0.23586884140968323,0.2357715368270874
1773048319432873500,5.43187353515625,-0.5119838714599609,-1.2222450971603394,0.3812079429626465
1773048319442826500,5.441826416015625,-0.014043807983398438,-0.3111090660095215,-0.8429306745529175
1773048319452789500,5.45178955078125,0.9030866622924805,0.6510431170463562,0.8693175911903381
1773048319462743800,5.461743896484375,-0.40677833557128906,0.043891191482543945,-0.19213712215423584
1773048319472706000,5.4717060546875,0.4635581970214844,-1.3863059282302856,-0.5258044004440308
1773048319482661000,5.4816611328125,-1.9052777290344238,0.049735695123672485,1.207069754600525
1773048319492622600,5.49162255859375,1.159738540649414,0.7568390369415283,0.19846999645233154
1773048319502578400,5.501578369140625,2.1554441452026367,-0.2668159008026123,-0.5311055183410645
1773048319512539400,5.511539306640625,-1.3303728103637695,-0.5810244083404541,0.7679651975631714
1773048319522457000,5.52145703125,-2.6447043418884277,0.48995259404182434,-0.5729148387908936
1773048319532413700,5.53141357421875,0.3741035461425781,1.1738977432250977,0.15515434741973877
1773048319542413000,5.5414130859375,3.496129035949707,-0.42416733503341675,0.7189723253250122
1773048319552373800,5.551373779296875,-2.2369847297668457,0.23400214314460754,0.17129182815551758
1773048319562291700,5.561291748046875,-1.2962770462036133,-0.33539628982543945,0.24184191226959229
1773048319572248300,5.571248291015625,1.1468439102172852,-0.24121958017349243,-0.09291589260101318
1773048319582170400,5.58117041015625,0.20814228057861328,1.2323676347732544,-0.43976807594299316
1773048319592123600,5.59112353515625,1.7640256881713867,0.29277315735816956,0.264585018157959
1773048319602087400,5.60108740234375,-1.6063103675842285,-0.6944283843040466,0.5721261501312256
1773048319612041700,5.611041748046875,-1.3067922592163086,-0.19285814464092255,-1.0470885038375854
1773048319622043100,5.621043212890625,0.41522216796875,1.0081912279129028,0.6327306032180786
1773048319632002300,5.631002197265625,2.1091136932373047,0.7372904419898987,1.1242384910583496
1773048319642182100,5.64118212890625,-0.12537765502929688,-0.4775192141532898,-1.3074921369552612
1773048319652362200,5.6513623046875,-3.0281734466552734,-0.07721062004566193,-0.3202998638153076
1773048319662542300,5.661542236328125,0.38802623748779297,1.2198277711868286,0.35449743270874023
1773048319672653000,5.671653076171875,3.10858154296875,1.1670528650283813,0.44367551803588867
1773048319682610700,5.681610595703125,0.8000736236572266,-0.34997135400772095,0.5601322650909424
1773048319692605200,5.691605224609375,-2.6109976768493652,-0.2680613696575165,-0.5188901424407959
1773048319702567200,5.701567138671875,-1.2010078430175781,1.3290789127349854,0.1323990821838379
1773048319712558300,5.711558349609375,4.192318916320801,1.0664607286453247,1.175959587097168
1773048319722523400,5.7215234375,0.5636110305786133,0.4372308850288391,-0.6541314125061035
1773048319732512000,5.731511962890625,-3.3966598510742188,-0.14287087321281433,-0.0036852359771728516
1773048319742479600,5.741479736328125,-0.09868144989013672,0.05217379331588745,1.0586296319961548
1773048319752466000,5.7514658203125,1.1954708099365234,0.865534245967865,0.7522091865539551
1773048319762435800,5.761435791015625,2.094806671142578,0.39129090309143066,-0.40767109394073486
1773048319772420600,5.771420654296875,-2.0736031532287598,-0.26940834522247314,0.17132091522216797
1773048319782392000,5.78139208984375,-1.3670663833618164,-0.030337199568748474,-0.09585773944854736
1773048319792375600,5.79137548828125,1.2526330947875977,0.8229644894599915,0.28974008560180664
1773048319802348000,5.80134814453125,2.41896915435791,0.26158204674720764,0.7818130254745483
1773048319812330500,5.81133056640625,-0.07415771484375,-0.5210118889808655,-0.2586296796798706
1773048319822304300,5.82130419921875,-2.7719693183898926,-0.44865331053733826,-0.4885580539703369
1773048319832286000,5.831285888671875,0.7437925338745117,0.5784577131271362,0.6685551404953003
1773048319842165800,5.841165771484375,2.1458587646484375,0.8536311388015747,-0.10871434211730957
1773048319852045800,5.8510458984375,-0.23699283599853516,-0.01675090193748474,-0.2599087953567505
1773048319862216700,5.861216796875,-2.012307643890381,-0.5645108819007874,0.38089144229888916
1773048319872203000,5.871203125,-0.5369396209716797,0.5587815642356873,0.17992949485778809
1773048319882083000,5.8810830078125,2.5299148559570312,0.9297752380371094,0.8050329685211182
1773048319891901700,5.890901611328125,1.9415569305419922,0.03609044849872589,-0.15331566333770752
1773048319902081500,5.90108154296875,-2.9328136444091797,-0.16935031116008759,-0.39351511001586914
1773048319912117500,5.911117431640625,-1.2831106185913086,0.5956516265869141,-0.7592086791992188
1773048319922085000,5.921085205078125,2.578044891357422,1.1756854057312012,1.1363797187805176
1773048319932071400,5.931071533203125,1.5124454498291016,0.08451223373413086,0.4233907461166382
1773048319942080300,5.941080322265625,-2.081416606903076,-0.14852803945541382,-0.28005099296569824
1773048319952068900,5.95106884765625,-2.6345744132995605,0.6052219271659851,-0.042966246604919434
1773048319961997600,5.96099755859375,2.213174819946289,1.376491904258728,0.5383948087692261
1773048319971980300,5.970980224609375,2.0845346450805664,0.18918603658676147,-0.4030832052230835
1773048319981860000,5.980860107421875,-2.5472588539123535,0.18855063617229462,0.9826050400733948
1773048319991679700,5.9906796875,-1.303910255432129,0.5081601142883301,-0.9453359842300415
1773048320001859600,6.000859619140625,2.2418737411499023,0.7625709176063538,0.40045464038848877
1773048320021866000,6.020865966796875,-1.9977059364318848,0.23381513357162476,-0.9748635292053223
1773048320031850500,6.0308505859375,-2.3319268226623535,0.9469171762466431,-0.04651284217834473
1773048320041822200,6.040822265625,2.6344966888427734,0.42337602376937866,0.6305631399154663
1773048320051805400,6.050805419921875,0.8761253356933594,0.29171115159988403,0.7732983827590942
1773048320061778200,6.060778076171875,-2.2965149879455566,0.07142247259616852,-0.20695483684539795
1773048320071760400,6.070760498046875,-0.8250026702880859,0.4055735468864441,-0.2237926721572876
1773048320081640400,6.080640380859375,1.7787513732910156,0.7659258842468262,0.5524657964706421
1773048320091460000,6.090460205078125,0.7149429321289062,0.4542779326438904,-1.263508915901184
1773048320101640200,6.10064013671875,-1.7222743034362793,-0.09587975591421127,0.6960313320159912
1773048320111676400,6.110676513671875,-0.6435365676879883,0.12917958199977875,0.17234647274017334
1773048320121646600,6.120646484375,1.167245864868164,1.297080636024475,0.1374727487564087
1773048320131631000,6.130631103515625,1.6469593048095703,0.2387537658214569,-0.37758827209472656
1773048320141603000,6.14060302734375,-2.191201686859131,-0.0012560933828353882,0.3088423013687134
1773048320151586000,6.1505859375,-1.034977912902832,1.0494414567947388,-0.6395825147628784
1773048320161466000,6.160466064453125,1.6173667907714844,0.5241057872772217,0.3493692874908447
1773048320171285500,6.170285400390625,1.6519403457641602,0.1696992665529251,0.7948166131973267
1773048320181465300,6.18046533203125,-2.7017226219177246,0.39750537276268005,-0.22983932495117188
1773048320191501600,6.19050146484375,0.11683273315429688,0.5349275469779968,-0.4041815996170044
1773048320201471200,6.20047119140625,2.0646209716796875,0.9667311906814575,0.34774327278137207
1773048320211456300,6.210456298828125,0.1734619140625,0.3666703402996063,-0.23715078830718994
1773048320221427700,6.220427734375,-1.307337760925293,0.1123596578836441,0.486322283744812
1773048320231411000,6.230410888671875,-0.3733539581298828,0.6506803631782532,-0.16813409328460693
1773048320241383700,6.2403837890625,1.3698844909667969,0.5423538684844971,0.36624205112457275
1773048320251366100,6.2503662109375,0.5454444885253906,-0.09378306567668915,-0.25761377811431885
1773048320261340000,6.26033984375,-2.3876967430114746,0.7646462917327881,-0.5723069906234741
1773048320271321300,6.2703212890625,0.8167448043823242,0.5282480120658875,0.33726251125335693
1773048320281296100,6.280296142578125,1.5165824890136719,0.32625967264175415,-0.2285149097442627
1773048320291277000,6.290277099609375,-1.4665288925170898,-0.0805535763502121,0.6712603569030762
1773048320301252400,6.30025244140625,-0.3504657745361328,0.44594699144363403,-0.07328081130981445
1773048320311232500,6.310232421875,0.8965091705322266,1.0026835203170776,-0.43427205085754395
1773048320321112600,6.320112548828125,1.1809749603271484,0.0551682710647583,0.24578213691711426
1773048320330932500,6.329932373046875,-1.366541862487793,0.1369277983903885,0.6052379608154297
1773048320340931800,6.339931884765625,-1.2294139862060547,0.7093120217323303,0.28350603580474854
1773048320350892800,6.349892822265625,2.540785789489746,0.5029047131538391,0.16544878482818604
1773048320361072600,6.36007275390625,0.05242919921875,-0.028641030192375183,0.45099616050720215
1773048320371108600,6.370108642578125,-1.6998896598815918,0.39744800329208374,-0.601706862449646
1773048320381076700,6.38007666015625,0.20956802368164062,0.8689612150192261,-0.04441022872924805
1773048320391062800,6.390062744140625,2.142681121826172,0.22693446278572083,1.164745807647705
1773048320401033000,6.400032958984375,-0.4114999771118164,-0.026057496666908264,-0.3095923662185669
1773048320411017500,6.410017578125,-2.1723828315734863,0.3843338191509247,0.16701018810272217
1773048320420989200,6.4199892578125,1.389876365661621,0.6940473914146423,0.2777900695800781
1773048320430972400,6.429972412109375,0.9528388977050781,0.3293447494506836,-0.940071702003479
1773048320440945400,6.4399453125,-0.15729522705078125,-0.11007732152938843,0.49724841117858887
1773048320450927600,6.449927734375,-1.154191017150879,0.5394093990325928,1.04549241065979
1773048320460901600,6.459901611328125,1.3695907592773438,0.9006433486938477,-1.4606496095657349
1773048320470882800,6.4698828125,1.347879409790039,-0.31008321046829224,0.6296919584274292
1773048320480857900,6.47985791015625,-2.269596576690674,0.5978271961212158,0.6937808990478516
1773048320490838500,6.489838623046875,-0.03405189514160156,0.9969851970672607,-0.6873046159744263
1773048320500813800,6.499813720703125,2.826371192932129,-0.5337386131286621,0.6098493337631226
1773048320510794000,6.5097939453125,-1.4679231643676758,0.43141868710517883,0.9002091288566589
1773048320520770000,6.51977001953125,-1.1922073364257812,0.7025133371353149,-0.21125078201293945
1773048320530750000,6.52975,1.9189214706420898,0.06520898640155792,-0.31293535232543945
1773048320540726300,6.539726318359375,-0.630279541015625,0.39892810583114624,-0.48642420768737793
1773048320550705700,6.54970556640625,-2.0085062980651855,0.35963916778564453,0.26287007331848145
1773048320560682500,6.5596826171875,0.8847818374633789,0.0010777413845062256,1.1193485260009766
1773048320570661600,6.56966162109375,1.1170415878295898,0.1307864487171173,-1.0019111633300781
1773048320580638700,6.579638671875,-0.8480253219604492,0.569383442401886,-0.3217470645904541
1773048320590617600,6.58961767578125,0.2903413772583008,0.46785926818847656,0.06321847438812256
1773048320600595000,6.599594970703125,0.43291282653808594,0.046343713998794556,-0.14708209037780762
1773048320610573600,6.609573486328125,-0.5756139755249023,0.30899280309677124,0.6672244071960449
1773048320620551000,6.619551025390625,-0.9034042358398438,0.962631106376648,-0.9041359424591064
1773048320630529800,6.62952978515625,0.8985404968261719,0.2766707241535187,0.4971137046813965
1773048320640409600,6.63940966796875,0.9871435165405273,-0.33901771903038025,0.45830631256103516
1773048320650230000,6.64922998046875,-2.028078556060791,1.0269485712051392,-0.9651684761047363
1773048320660230400,6.65923046875,0.32563114166259766,0.9041600227355957,-0.13867473602294922
1773048320670190300,6.6691904296875,3.0560693740844727,-0.4256010055541992,1.1230729818344116
1773048320680370400,6.679370361328125,-0.9522418975830078,-0.20523947477340698,0.23706793785095215
1773048320690406400,6.689406494140625,-2.4781413078308105,1.3504701852798462,-1.472847580909729
1773048320700375600,6.69937548828125,2.440784454345703,0.12809714674949646,-0.2959926128387451
1773048320710360800,6.70936083984375,1.8623895645141602,-0.5171176791191101,1.6436550617218018
1773048320720331800,6.719331787109375,-2.93111515045166,0.6432822942733765,-0.5576823949813843
1773048320730315800,6.729315673828125,0.28419017791748047,0.39259201288223267,-0.6896164417266846
1773048320740195600,6.739195556640625,2.4895153045654297,-0.18235835433006287,1.1092722415924072
1773048320750015000,6.749014892578125,-1.2118759155273438,0.19965139031410217,-0.22187912464141846
1773048320760011300,6.75901123046875,-1.0850610733032227,0.4086062014102936,0.6267400979995728
1773048320769974500,6.768974609375,1.4336986541748047,0.3111671805381775,-0.19747483730316162
1773048320779967200,6.77896728515625,0.8336763381958008,-0.19160279631614685,0.02102351188659668
1773048320789933600,6.78893359375,-1.4793758392333984,0.3383496105670929,0.5647881031036377
1773048320800113400,6.799113525390625,-0.4490814208984375,0.9860436916351318,-1.2869586944580078
1773048320810148600,6.809148681640625,1.662252426147461,0.09859701991081238,0.56916344165802
1773048320820112400,6.8191123046875,-0.5182943344116211,-0.30762630701065063,0.9439674019813538
1773048320830102000,6.82910205078125,-2.140526294708252,1.0191607475280762,-0.29343080520629883
1773048320840068600,6.839068603515625,1.6465330123901367,0.6476148366928101,-0.9725632667541504
1773048320850056000,6.849055908203125,1.2373161315917969,-0.12896180152893066,0.7824099063873291
1773048320860024800,6.85902490234375,-1.3867607116699219,0.36231860518455505,0.25658321380615234
1773048320870010400,6.86901025390625,-0.3946075439453125,0.6123923063278198,-0.0072661638259887695
1773048320879981000,6.87898095703125,1.5592966079711914,0.5761308670043945,0.43828630447387695
1773048320889965000,6.888965087890625,-1.0556325912475586,0.14267921447753906,0.5408693552017212
1773048320899937500,6.8989375,-0.3797569274902344,0.6528936624526978,-0.35496795177459717
1773048320909920300,6.908920166015625,-0.10202503204345703,0.5718974471092224,0.5708147287368774
1773048320919893500,6.9188935546875,0.6528701782226562,-0.4516880512237549,0.50234055519104
1773048320929875500,6.92887548828125,-1.5449647903442383,0.7748719453811646,-0.16312038898468018
1773048320939849700,6.938849609375,1.2372417449951172,0.28990721702575684,-0.3616527318954468
1773048320949831000,6.948830810546875,0.31301307678222656,-0.09392546117305756,-0.16622769832611084
1773048320959806000,6.958805908203125,-1.0249204635620117,0.024949967861175537,0.8622519969940186
1773048320969786600,6.96878662109375,0.25721263885498047,0.8217008113861084,-0.3510768413543701
1773048320979762200,6.97876220703125,0.7865676879882812,-0.040415048599243164,-1.0628753900527954
1773048320989742300,6.988742431640625,-1.0244255065917969,-0.2269793450832367,0.565194845199585
1773048320999718400,6.998718505859375,-0.9071111679077148,0.8811737298965454,0.6263854503631592
1773048321009698000,7.008697998046875,1.8551559448242188,0.23405274748802185,-1.2562633752822876
1773048321019713500,7.018713623046875,0.28530025482177734,-0.6220815181732178,1.4384605884552002
1773048321029696800,7.02869677734375,-1.2382831573486328,0.6740071773529053,-0.5862349271774292
1773048321039630800,7.038630859375,1.0855436325073242,0.5186498761177063,-0.592771053314209
1773048321049609200,7.048609130859375,2.138530731201172,-0.6866494417190552,1.2003648281097412
1773048321059587000,7.058587158203125,-2.000988483428955,0.5268592834472656,-0.5685640573501587
1773048321069565400,7.0685654296875,-0.2773933410644531,0.9258912801742554,0.32605743408203125
1773048321079543300,7.078543212890625,1.6812639236450195,-0.642056941986084,0.42862915992736816
1773048321089521700,7.088521728515625,-1.2492341995239258,0.2570309042930603,-0.4526253938674927
1773048321099499500,7.09849951171875,-0.3298072814941406,0.9574087858200073,-0.6274936199188232
1773048321109478000,7.108477783203125,2.4738969802856445,-0.2434811294078827,0.9793586134910583
1773048321119455700,7.118455810546875,-1.2656126022338867,0.18528154492378235,-0.5760234594345093
1773048321129433900,7.128433837890625,-0.7469711303710938,0.6670156717300415,-0.11319160461425781
1773048321139412000,7.138411865234375,1.1358776092529297,0.1871386170387268,0.39340031147003174
1773048321149390000,7.14839013671875,0.035742759704589844,0.04260781407356262,-0.7858299016952515
1773048321159270100,7.158270263671875,-0.27027416229248047,0.42266783118247986,1.373558521270752
1773048321169090600,7.168090576171875,0.8815183639526367,0.03981691598892212,-0.32546019554138184
1773048321179091500,7.178091552734375,-0.6577301025390625,0.1816483736038208,-1.222794532775879
1773048321189051100,7.188051025390625,-0.33624744415283203,0.18469569087028503,0.7326890230178833
1773048321199231200,7.198231201171875,0.4000692367553711,0.15057247877120972,0.6300407648086548
1773048321209267200,7.20826708984375,-0.5695943832397461,0.1500747799873352,-1.0003371238708496
1773048321219236600,7.218236572265625,-0.22934532165527344,-0.17098897695541382,0.7869253158569336
1773048321229222000,7.228221923828125,-0.3808736801147461,0.2883830666542053,-0.0041463375091552734
1773048321239192800,7.23819287109375,-0.40381526947021484,0.1872166097164154,-0.27169716358184814
1773048321249176600,7.248176513671875,0.4140958786010742,0.0061789751052856445,-0.6523077487945557
1773048321259056600,7.258056640625,0.15990447998046875,-0.11792246997356415,1.34108567237854
1773048321268876000,7.2678759765625,-0.7379856109619141,0.1172773540019989,1.3975825309753418
1773048321279056000,7.278055908203125,-0.2012767791748047,0.6718176007270813,-2.5324788093566895
1773048321289092000,7.288092041015625,1.2025518417358398,-0.08941580355167389,1.0705621242523193
1773048321299061500,7.2980615234375,-0.2897148132324219,-0.22610606253147125,1.8755178451538086
1773048321309046800,7.308046875,-1.9314208030700684,0.7963743209838867,-1.8372015953063965
1773048321319056600,7.318056640625,1.7203969955444336,0.37934359908103943,0.16737854480743408
1773048321329044200,7.328044189453125,0.5613622665405273,-0.9481714963912964,1.118720531463623
1773048321338974000,7.337973876953125,-1.7987589836120605,0.5260273218154907,-1.420838713645935
1773048321348956000,7.347955810546875,0.3344306945800781,1.148741602897644,0.7095431089401245
1773048321358930200,7.35793017578125,3.84298038482666,-0.4991183578968048,0.00924074649810791
1773048321368911400,7.367911376953125,-3.155590057373047,0.2748565375804901,-0.7318031787872314
1773048321378791400,7.37779150390625,0.1264514923095703,1.132642388343811,0.1602158546447754
1773048321388611300,7.387611328125,2.304492950439453,-0.0644950270652771,0.6437232494354248
1773048321398791200,7.397791259765625,-0.8953971862792969,0.3068835735321045,0.4859732389450073
1773048321408828000,7.407827880859375,-0.21475791931152344,0.31101733446121216,-0.5796213150024414
1773048321418798800,7.417798828125,0.7933635711669922,0.21774524450302124,-0.1784670352935791
1773048321428782800,7.427782958984375,0.4813833236694336,0.5110665559768677,0.38275206089019775
1773048321438755000,7.437755126953125,0.8575429916381836,-0.07892751693725586,0.907110333442688
1773048321448737800,7.44773779296875,-1.5552310943603516,0.26277899742126465,-0.7839335203170776
1773048321458617900,7.457617919921875,-1.3318262100219727,0.6419875621795654,0.9170308113098145
1773048321468437500,7.4674375,1.8561124801635742,-0.05203896760940552,0.20154154300689697
1773048321478434800,7.477434814453125,-1.3468551635742188,-0.35788270831108093,-0.5013494491577148
1773048321488397300,7.487397216796875,-2.07926607131958,0.9130974411964417,0.5018417835235596
1773048321498577400,7.497577392578125,1.9838428497314453,-0.13896436989307404,-0.19246375560760498
1773048321508613000,7.507613037109375,0.7285566329956055,-0.9062947034835815,0.18630051612854004
1773048321518580000,7.517580078125,-1.660830020904541,0.8152036666870117,-0.6803028583526611
1773048321528567000,7.527567138671875,2.32000732421875,0.01592850685119629,0.7249462604522705
1773048321538458600,7.537458740234375,0.6343154907226562,-0.6520856618881226,0.009065628051757812
1773048321548436000,7.54743603515625,-3.2581920623779297,0.6626395583152771,-1.5723155736923218
1773048321558492400,7.557492431640625,0.8792753219604492,0.503665566444397,1.7160650491714478
1773048321568478000,7.56747802734375,1.1745290756225586,-0.37424206733703613,0.30967187881469727
1773048321578449000,7.577448974609375,-2.304042339324951,0.39102739095687866,-0.7434995174407959
1773048321588433000,7.587432861328125,0.4184074401855469,0.26677653193473816,0.24659240245819092
1773048321598405000,7.597405029296875,1.630415916442871,0.2527945935726166,-0.26570045948028564
1773048321608387800,7.607387939453125,-0.0633687973022461,0.5330405235290527,-0.4267082214355469
1773048321618361300,7.617361328125,1.5313072204589844,-0.32654714584350586,0.7790690660476685
1773048321628343300,7.62734326171875,-1.4653940200805664,0.7188066244125366,-0.15926241874694824
1773048321638317600,7.637317626953125,0.7962732315063477,0.262033611536026,-0.3180863857269287
1773048321648298800,7.647298828125,1.0479440689086914,-0.020979195833206177,1.5574862957000732
1773048321658274000,7.657274169921875,-1.7239489555358887,0.7227413654327393,-0.9443104267120361
1773048321668254500,7.66725439453125,-0.08189868927001953,-0.0056092143058776855,0.2922097444534302
1773048321678230300,7.677230224609375,0.4335908889770508,0.3186153769493103,1.4635539054870605
1773048321688210200,7.687210205078125,-0.9084405899047852,-0.11581645905971527,-1.4522294998168945
1773048321698186500,7.6971865234375,-0.39586830139160156,0.5620778799057007,-0.46860599517822266
1773048321708166100,7.707166259765625,1.0710601806640625,-0.40386196970939636,1.383781909942627
1773048321718181600,7.717181640625,0.07081222534179688,0.4673382639884949,-2.1983580589294434
1773048321728164900,7.727164794921875,-0.4500141143798828,-0.16604381799697876,0.8684128522872925
1773048321738045000,7.737044921875,1.5755271911621094,-0.5610469579696655,0.8147759437561035
1773048321747925000,7.746925048828125,-1.8604607582092285,0.7805883884429932,-1.3500325679779053
1773048321758055200,7.75705517578125,1.800771713256836,-0.0007447600364685059,1.0785036087036133
1773048321768038700,7.76703857421875,0.5752773284912109,-0.7455614805221558,1.7819846868515015
1773048321778011400,7.777011474609375,-3.709395408630371,0.8309136629104614,-3.55202054977417
1773048321787993900,7.786993896484375,1.2695245742797852,0.6177570223808289,1.7504453659057617
1773048321797967600,7.796967529296875,2.313662528991699,-0.837703287601471,2.9708919525146484
1773048321807949300,7.80694921875,-3.6369762420654297,-0.03788486123085022,-4.669928073883057
1773048321817924000,7.816924072265625,2.176938056945801,1.0026084184646606,1.8499047756195068
1773048321827904800,7.82690478515625,2.769418716430664,-0.1355278044939041,0.7607734203338623
1773048321837880300,7.83688037109375,-1.8595232963562012,-0.11087381839752197,-2.06097412109375
1773048321847860700,7.84686083984375,-1.1155529022216797,1.0290813446044922,-0.13631892204284668
1773048321857740800,7.85674072265625,2.806857109069824,0.3807026147842407,2.854417562484741
1773048321867560700,7.866560791015625,0.6812553405761719,-0.3689449727535248,-2.381588935852051
1773048321877740800,7.87674072265625,-2.6064648628234863,0.5220228433609009,0.4569958448410034
1773048321887777500,7.886777587890625,0.2791776657104492,0.5806465744972229,0.9230743646621704
1773048321897749000,7.8967490234375,1.0377483367919922,-0.04692041873931885,-0.22178399562835693
1773048321907732500,7.906732421875,-0.4160938262939453,0.16811800003051758,-0.22212350368499756
1773048321917705500,7.91670556640625,-1.3507251739501953,0.4630674719810486,-0.18578433990478516
1773048321927687700,7.926687744140625,0.9823808670043945,0.16499903798103333,0.6589773893356323
1773048321937567700,7.936567626953125,0.19722747802734375,-0.7046195268630981,-0.22792303562164307
1773048321947387400,7.946387451171875,-1.5362253189086914,0.5043224692344666,-1.10688316822052
1773048321957567500,7.9565673828125,-0.2197284698486328,0.3372667133808136,0.6057113409042358
1773048321967603700,7.966603759765625,2.5982799530029297,-1.0234712362289429,2.239657402038574
1773048321977574100,7.97657421875,-3.4905529022216797,0.14634063839912415,-1.8268331289291382
1773048321987558400,7.986558349609375,0.6132011413574219,0.7032148838043213,0.12024128437042236
1773048321997530400,7.9965302734375,1.1478300094604492,-0.9113551378250122,2.5669660568237305
1773048322007513600,8.006513671875,-3.13339900970459,0.4227876663208008,-1.3497527837753296
1773048322017486800,8.01648681640625,2.2349157333374023,0.4129910469055176,-0.8474072217941284
1773048322027469000,8.026468994140625,1.0802106857299805,-0.8996084928512573,1.1758872270584106
1773048322037443000,8.036443115234375,-2.704601764678955,0.7638921737670898,-0.9630390405654907
1773048322047424500,8.046424560546875,1.9421510696411133,0.19553670287132263,-0.12814605236053467
1773048322057304300,8.05630419921875,0.4011421203613281,-0.4435655176639557,0.5981100797653198
1773048322067124200,8.066124267578125,-1.730696201324463,1.0361857414245605,-1.5511181354522705
1773048322077122800,8.076122802734375,2.7136898040771484,0.1233692467212677,1.514431357383728
1773048322087084500,8.08608447265625,-1.7850594520568848,0.1940421760082245,0.22447800636291504
1773048322097264400,8.096264404296875,0.4094352722167969,1.014155387878418,-0.848278284072876
1773048322107300400,8.10630029296875,0.5142841339111328,0.15155711770057678,0.9631968140602112
1773048322117268000,8.11626806640625,-1.100961685180664,0.41801416873931885,-0.8090547323226929
1773048322127254500,8.126254638671876,1.9908103942871094,-0.6614673137664795,0.31382524967193604
1773048322137134600,8.136134521484376,-1.3084039688110352,0.43633517622947693,1.022111415863037
1773048322146953500,8.145953369140624,2.7193050384521484,0.5703644752502441,-1.7322267293930054
1773048322156931600,8.155931640625,0.3593626022338867,-0.4362022578716278,0.26678693294525146
1773048322167111400,8.166111328125,-1.1841468811035156,0.2557731866836548,0.9210091829299927
1773048322177147400,8.1761474609375,1.2587194442749023,-0.0938711166381836,-0.44685661792755127
1773048322187115000,8.186114990234374,-1.3700761795043945,0.1809636354446411,-0.8596903085708618
1773048322197101600,8.1961015625,-0.8700418472290039,-0.6073154807090759,1.6112470626831055
1773048322206981600,8.205981689453125,0.2686471939086914,-0.37514084577560425,0.6842890977859497
1773048322216800300,8.21580029296875,-1.4411869049072266,0.3564533293247223,-1.095094919204712
1773048322226794800,8.225794677734376,1.6222572326660156,0.02326422929763794,0.26495909690856934
1773048322236759800,8.235759765625,0.639984130859375,-0.5057401657104492,1.2866536378860474
1773048322246939600,8.245939697265625,-1.481893539428711,0.359978586435318,-1.4368762969970703
1773048322256975000,8.25597509765625,1.0664339065551758,-0.08894616365432739,-0.06349015235900879
1773048322266940200,8.265940185546874,0.2948007583618164,0.06900084018707275,0.2569011449813843
1773048322276928800,8.2759287109375,-1.7825579643249512,0.5653151273727417,-0.7699270248413086
1773048322286808800,8.285808837890626,0.7515630722045898,-0.38566291332244873,1.2004990577697754
1773048322296627200,8.295627197265626,-1.3364410400390625,0.15122154355049133,0.4058647155761719
1773048322306619600,8.30561962890625,0.26534366607666016,1.1261717081069946,-0.05220329761505127
1773048322316586200,8.315586181640626,2.7140626907348633,-0.22165027260780334,0.9037686586380005
1773048322326766000,8.32576611328125,-0.80712890625,-0.07269436120986938,-0.7792731523513794
1773048322336801300,8.33580126953125,-0.21408557891845703,1.2308213710784912,-0.3108412027359009
1773048322346765300,8.345765380859374,0.48284339904785156,0.12353867292404175,-0.7115112543106079
1773048322356755000,8.3557548828125,-1.733452320098877,-0.39118075370788574,-0.5220550298690796
1773048322366721500,8.365721435546876,-1.7538342475891113,0.8555750250816345,0.9317209124565125
1773048322376708900,8.375708984375,1.879368782043457,0.05729570984840393,-1.0779712200164795
1773048322386589000,8.3855888671875,-0.02561187744140625,0.371534138917923,0.007709383964538574
1773048322396407600,8.395407470703125,-1.004770278930664,0.2944833040237427,1.9514853954315186
1773048322406401300,8.4054013671875,0.13925457000732422,-0.3299144208431244,0.2559117078781128
1773048322416366800,8.415366943359375,0.8497858047485352,0.17747581005096436,-0.45564937591552734
1773048322426547000,8.425546875,-1.1095914840698242,-0.05715683102607727,-0.1864018440246582
1773048322436582100,8.43558203125,-1.0308780670166016,0.2450035810470581,0.4901198148727417
1773048322446462200,8.445462158203124,0.6764383316040039,-0.7128793001174927,0.7738195657730103
1773048322456279800,8.45527978515625,-1.2015857696533203,-0.485068142414093,-0.7522234916687012
1773048322466460000,8.4654599609375,0.1140289306640625,1.165482997894287,-0.1814199686050415
1773048322476495000,8.4754951171875,2.2477827072143555,-0.1868334710597992,0.03883934020996094
1773048322486459400,8.48545947265625,-0.9371871948242188,-0.7769807577133179,0.8694242238998413
1773048322496448500,8.495448486328126,-1.6800265312194824,0.6830320954322815,-0.47019314765930176
1773048322506415600,8.50541552734375,1.3463640213012695,0.19012433290481567,0.7378765344619751
1773048322516402700,8.515402587890625,1.8734941482543945,0.06789901852607727,-0.41302764415740967
1773048322526372000,8.5253720703125,-1.8169798851013184,0.14441633224487305,0.44636106491088867
1773048322536357400,8.535357421875,-1.2733955383300781,0.12149351835250854,1.3256661891937256
1773048322546328300,8.545328369140625,0.6403160095214844,0.7487460374832153,-1.9111356735229492
1773048322556312300,8.555312255859375,1.9325437545776367,-0.7046313881874084,-0.29475271701812744
1773048322566284800,8.565284912109375,0.23346519470214844,-0.8876086473464966,1.1796001195907593
1773048322576267500,8.575267578125,-0.2646312713623047,1.1197775602340698,-1.8030794858932495
1773048322586241000,8.585240966796874,2.442671775817871,1.4451347589492798,-0.7512668371200562
1773048322596223000,8.595222900390626,1.1752252578735352,0.2951197922229767,1.3790674209594727
1773048322606102800,8.605102783203124,-5.927547931671143,-0.6178362369537354,2.277696371078491
1773048322615982800,8.61498291015625,-3.4115400314331055,-0.27919232845306396,0.7596323490142822
1773048322626153700,8.62515380859375,4.427792549133301,0.2590256333351135,-0.7830514907836914
1773048322636134700,8.635134765625,4.555092811584473,0.30559930205345154,2.437368869781494
1773048322646110000,8.64510986328125,-0.3643798828125,0.7827413082122803,-3.390101909637451
1773048322656090400,8.65509033203125,0.011722564697265625,-0.9051378965377808,-0.8609484434127808
1773048322666066400,8.66506640625,-2.6667819023132324,-0.5095354318618774,1.7110990285873413
1773048322676046300,8.67504638671875,-0.2646675109863281,1.119520664215088,-1.7441906929016113
1773048322685926400,8.684926513671876,-0.058594703674316406,-0.10476258397102356,-1.2952353954315186
1773048322695746600,8.69474658203125,-2.1307148933410645,-0.17004568874835968,3.072711944580078
1773048322705926700,8.7049267578125,-0.06728267669677734,0.24460798501968384,0.359539270401001
1773048322715963400,8.71496337890625,-1.3799428939819336,0.7934406399726868,-2.551452159881592
1773048322725935000,8.72493505859375,5.499016761779785,-0.4121555984020233,3.475578546524048
1773048322735918300,8.73491845703125,-0.17607498168945312,-0.9781492948532104,0.35167551040649414
1773048322745891600,8.7448916015625,0.6106405258178711,0.1281064748764038,-4.563842296600342
1773048322755873800,8.754873779296876,4.070171356201172,0.4793474078178406,1.5563756227493286
1773048322765919700,8.764919677734374,-0.5236568450927734,-0.8167797327041626,0.48645663261413574
1773048322775908000,8.774908203125,-6.902464866638184,0.3435268700122833,-2.585188865661621
1773048322785804000,8.784803955078125,-8.765362739562988,0.2662063241004944,-0.14822041988372803
1773048322795783700,8.79478369140625,2.0621814727783203,0.6895147562026978,2.916393756866455
1773048322805760500,8.804760498046875,1.700648307800293,0.11826875805854797,2.575317859649658
1773048322815739600,8.81473974609375,-0.279388427734375,-0.1374625712633133,0.5916717052459717
1773048322825716700,8.824716796875,5.563514709472656,1.300225019454956,-3.6667046546936035
1773048322835695900,8.83469580078125,3.592592239379883,-0.3639878034591675,3.2982096672058105
1773048322845673200,8.844673095703126,-2.3130249977111816,-0.6789935231208801,2.594381332397461
1773048322855651800,8.85465185546875,-3.223756790161133,0.3191073536872864,-4.148249626159668
1773048322865629400,8.86462939453125,0.13945770263671875,0.4347161650657654,1.789888620376587
1773048322875608000,8.874608154296874,-1.91746187210083,0.22508645057678223,-0.80214524269104
1773048322885585700,8.884585693359375,-1.2695598602294922,-0.0821559727191925,1.059510350227356
1773048322895564300,8.894564208984375,-0.23942089080810547,0.9370949268341064,0.25968360900878906
1773048322905542000,8.9045419921875,3.6706905364990234,0.49641501903533936,-1.5297317504882812
1773048322915520500,8.9145205078125,3.342662811279297,-0.8406389951705933,1.9432766437530518
1773048322925498400,8.924498291015626,-0.3998394012451172,-0.12265308201313019,-0.31095123291015625
1773048322935476700,8.934476806640625,0.4223003387451172,0.02370622754096985,-1.860186219215393
1773048322945454600,8.94445458984375,2.736508369445801,-0.6804138422012329,1.5191600322723389
1773048322955433000,8.954432861328126,-2.831592559814453,-0.7575628161430359,-1.2816911935806274
1773048322965410800,8.964410888671875,-2.1757445335388184,-0.7709770202636719,-0.27025747299194336
1773048322975389200,8.97438916015625,-0.1694793701171875,-0.21466253697872162,0.42531001567840576
1773048322985367300,8.9843671875,-1.0574331283569336,1.3580411672592163,-2.1164844036102295
1773048322995345400,8.994345458984375,1.914259910583496,0.9667108058929443,0.8842971920967102
1773048323005323500,9.004323486328126,1.741811752319336,-0.5296000242233276,2.882040023803711
1773048323015301600,9.014301513671874,-3.9342212677001953,-0.34745579957962036,-0.5934282541275024
1773048323025279700,9.02427978515625,3.0934219360351562,0.1677578091621399,-3.108372926712036
1773048323035258000,9.034258056640626,5.502559661865234,-0.8697584867477417,1.8858643770217896
1773048323045236200,9.044236328125,-2.7764859199523926,-0.6771349906921387,2.5253734588623047
1773048323055214300,9.05421435546875,-2.260124683380127,-0.310115784406662,-1.797332525253296
1773048323065192400,9.0641923828125,0.63323974609375,0.8362684845924377,-2.8159611225128174
1773048323075170600,9.074170654296875,0.7406024932861328,0.2194303274154663,1.1463204622268677
1773048323085148700,9.084148681640626,-2.8319902420043945,-0.9075034856796265,2.334677219390869
1773048323095126800,9.094126708984374,-4.004119873046875,0.19996508955955505,-2.4347939491271973
1773048323105105200,9.104105224609375,2.9386281967163086,1.2138952016830444,-2.8057408332824707
1773048323115083300,9.114083251953126,4.0642852783203125,-0.7363999485969543,3.239243984222412
1773048323125061400,9.124061279296875,-3.946706771850586,-2.268845558166504,2.533334732055664
1773048323135039500,9.13403955078125,-1.79494047164917,-2.340667247772217,-1.9100090265274048
1773048323145017600,9.144017578125,6.098541259765625,1.3039172887802124,-4.143673896789551
1773048323154995700,9.15399560546875,2.7306861877441406,-5.357769012451172,5.651889324188232
1773048323164973800,9.163973876953126,-7.022955894470215,0.07251092791557312,-1.2680436372756958
1773048323174952200,9.1739521484375,0.007136344909667969,1.9744906425476074,-5.3071160316467285
1773048323184930300,9.183930419921875,0.8019418716430664,0.3728186786174774,4.0053815841674805
1773048323194908400,9.193908447265626,-5.43489408493042,-0.2832333445549011,2.265066623687744
1773048323204886500,9.203886474609375,-0.03281688690185547,0.8994544744491577,-1.8404970169067383
1773048323214864600,9.21386474609375,6.374378204345703,0.4977496862411499,0.0210951566696167
1773048323224842800,9.2238427734375,-3.00051212310791,-0.7858361005783081,3.059007167816162
1773048323234821000,9.233821044921875,-3.412440299987793,-0.19242636859416962,-0.3489171266555786
1773048323244799200,9.24379931640625,5.250831604003906,0.3346410095691681,-2.1504437923431396
1773048323254777300,9.25377734375,0.11600208282470703,-1.2224030494689941,1.3405959606170654
1773048323264755500,9.26375537109375,-3.2989501953125,-0.4758605360984802,-0.737474799156189
1773048323274733600,9.273733642578126,0.24818897247314453,0.32474613189697266,-1.7940099239349365
1773048323284711700,9.283711669921875,4.3341169357299805,-0.8035139441490173,1.6911976337432861
1773048323294689800,9.293689697265625,-3.9296607971191406,-0.7174853682518005,1.2192975282669067
1773048323304668200,9.303668212890624,-2.279247760772705,-0.2251589000225067,-1.720118522644043
1773048323314646300,9.313646240234375,4.683991432189941,-0.5973464846611023,1.0694499015808105
1773048323324624400,9.323624267578126,0.32387351989746094,-2.643357276916504,0.41828763484954834
1773048323334602500,9.3336025390625,-2.9194631576538086,0.2163505256175995,0.0006165504455566406
1773048323344580600,9.34358056640625,1.470900535583496,1.0271708965301514,0.06815290451049805
1773048323354558700,9.353558837890626,4.093471527099609,-2.198660373687744,-1.1778608560562134
1773048323364537000,9.363537109375,-2.5051283836364746,-0.5940136909484863,0.6417474746704102
1773048323374515200,9.37351513671875,-0.8144464492797852,0.9876946210861206,0.5836749076843262
1773048323384493300,9.383493408203124,3.017200469970703,-0.6067065000534058,-1.2147953510284424
1773048323394471400,9.393471435546875,-0.3845634460449219,-1.570971965789795,0.01553046703338623
1773048323404449500,9.403449462890626,-2.9046249389648438,0.4382999539375305,1.0232486724853516
1773048323414427600,9.413427734375,1.7385873794555664,-0.0021829307079315186,0.20332157611846924
1773048323424405800,9.42340576171875,2.5749149322509766,-1.832063913345337,-0.13149750232696533
1773048323434384000,9.4333837890625,-2.4870543479919434,0.3306165933609009,-1.7030549049377441
1773048323444362200,9.4433623046875,-0.08491992950439453,0.00819447636604309,1.7352285385131836
1773048323454340400,9.45334033203125,2.722832679748535,-1.0233533382415771,0.7704453468322754
1773048323464318500,9.463318359375,-1.599703311920166,-0.34831705689430237,-2.1435739994049072
1773048323474296600,9.473296630859375,-0.4791259765625,-0.02382400631904602,0.22977828979492188
1773048323484274700,9.483274658203126,0.5580654144287109,-0.5179007053375244,2.7530643939971924
1773048323494252800,9.493252685546874,1.1911516189575195,-1.041184425354004,-2.1392898559570312
1773048323504231000,9.50323095703125,-1.838646411895752,-0.13708581030368805,-1.3719983100891113
1773048323514209000,9.513208984375,0.022130966186523438,-0.4682382345199585,2.160890579223633
1773048323524187400,9.5231875,1.1443214416503906,-0.7014286518096924,0.3058445453643799
1773048323534165500,9.53316552734375,-1.3414497375488281,-0.42798948287963867,-1.777961254119873
1773048323544143600,9.5431435546875,-1.3047676086425781,-0.39840763807296753,0.031397223472595215
1773048323554121700,9.553121826171875,0.3499021530151367,-0.7662733197212219,1.5245305299758911
1773048323564099800,9.563099853515626,0.4972267150878906,-0.08612072467803955,-0.3031998872756958
1773048323574078000,9.573077880859374,-0.4779205322265625,-0.8407413959503174,-1.4223884344100952
1773048323584056000,9.58305615234375,-0.36213111877441406,-0.5430113077163696,0.5822105407714844
1773048323594034400,9.593034423828126,-0.013052940368652344,-0.10350221395492554,1.6239641904830933
1773048323604012500,9.603012451171875,1.4432296752929688,-0.8144444227218628,-1.2822527885437012
1773048323613990700,9.61299072265625,-1.3247661590576172,-0.38355302810668945,0.13593125343322754
1773048323623968800,9.62296875,-1.5031766891479492,-0.5604613423347473,1.1707769632339478
1773048323633947000,9.63294677734375,1.784749984741211,-0.8311598300933838,-0.44755876064300537
1773048323643886300,9.64288623046875,-0.4775238037109375,-0.552924394607544,0.23445379734039307
1773048323653860400,9.6528603515625,-0.7393894195556641,-0.1697934865951538,-0.04507923126220703
1773048323663881200,9.662881103515625,-0.19287586212158203,-0.6905081272125244,0.18980228900909424
1773048323673860400,9.6728603515625,0.9671897888183594,-0.9703475832939148,0.7233915328979492
1773048323683837700,9.682837646484375,-1.249751091003418,-0.23676840960979462,-1.7720919847488403
1773048323693816300,9.69281640625,0.2758197784423828,-0.43811142444610596,2.180586099624634
1773048323703755000,9.702755126953125,1.5171937942504883,-0.8985217213630676,-0.8518567085266113
1773048323713729800,9.712729736328125,-1.4132652282714844,-0.8061789274215698,0.25070810317993164
1773048323723711200,9.722711181640625,-0.9565095901489258,0.14221948385238647,-0.3162649869918823
1773048323733686800,9.732686767578125,0.3304710388183594,-1.1285868883132935,0.5142238140106201
1773048323743706400,9.742706298828125,0.9838962554931641,-1.6388964653015137,0.7610629796981812
1773048323753686300,9.752686279296874,-3.615612030029297,0.7387865781784058,-0.3399367332458496
1773048323763624000,9.7626240234375,1.777435302734375,-0.9937872886657715,1.2702133655548096
1773048323773599500,9.772599609375,0.20348834991455078,-1.2406244277954102,-0.9815189838409424
1773048323783580200,9.782580078125,-1.0007123947143555,-0.3380143344402313,-0.08584821224212646
1773048323793556200,9.79255615234375,1.9763431549072266,-1.160705327987671,0.49613678455352783
1773048323803536400,9.802536376953125,-0.9546747207641602,-0.11582386493682861,-0.9902257919311523
1773048323813513000,9.812512939453125,1.4491138458251953,-0.6757518649101257,-0.9837392568588257
1773048323823531500,9.822531494140625,-0.9121799468994141,-1.1119563579559326,2.625369071960449
1773048323833512400,9.832512451171874,-1.5733723640441895,0.055132508277893066,-1.5864627361297607
1773048323843392300,9.842392333984375,0.3636894226074219,-1.052230954170227,1.2956867218017578
1773048323853272300,9.852272216796875,1.7762136459350586,-1.3279697895050049,-0.9684545993804932
1773048323863405300,9.8624052734375,-1.297943115234375,-0.10567150264978409,-0.21285104751586914
1773048323873383700,9.8723837890625,2.5286645889282227,-0.7908028960227966,0.739453911781311
1773048323883322600,9.882322509765626,0.5986719131469727,-0.663783073425293,-1.343171238899231
1773048323893297200,9.892297119140625,-0.8257045745849609,0.12198163568973541,-1.0601240396499634
1773048323903240200,9.902240234375,0.6706705093383789,-1.8355052471160889,3.2663941383361816
1773048323913211400,9.91221142578125,0.11590003967285156,-0.3903435468673706,-2.9696478843688965
1773048323923157500,9.922157470703125,-0.04712200164794922,-0.05181117355823517,-1.196832537651062
1773048323933126400,9.93212646484375,2.101101875305176,-1.1640809774398804,4.335402488708496
1773048323943006200,9.942006103515626,-2.0319247245788574,0.3493081331253052,-2.361429214477539
1773048323952886300,9.95188623046875,0.6641035079956055,-2.046488046646118,-1.7023543119430542
1773048323962992000,9.9619921875,0.6205978393554688,-1.014596939086914,3.6956276893615723
1773048323972962600,9.971962646484375,-0.6600818634033203,1.1211543083190918,-2.9767215251922607
1773048323982909700,9.98190966796875,3.785858154296875,-1.535154938697815,0.5660332441329956
1773048323992877600,9.991877685546875,-0.6866941452026367,-1.137547254562378,1.4342752695083618
1773048324002827300,10.0018271484375,-3.0244436264038086,0.29995185136795044,-1.5163404941558838
1773048324012793300,10.01179345703125,2.305877685546875,-1.198549509048462,1.4427950382232666
1773048324022744600,10.02174462890625,1.3461275100708008,-1.497941255569458,-1.2289772033691406
1773048324032709400,10.03170947265625,-3.0781307220458984,0.7607589364051819,-0.7761293649673462
1773048324042589200,10.041589111328125,2.439075469970703,-1.6686902046203613,2.9623289108276367
1773048324052469200,10.05146923828125,0.1617898941040039,-0.8828238844871521,-2.1483652591705322
1773048324062579000,10.061578857421875,-1.4575738906860352,-1.1662858724594116,-0.32704949378967285
1773048324072547600,10.071547607421875,0.7475566864013672,-0.7004860639572144,3.0770134925842285
1773048324082496500,10.08149658203125,-0.06046295166015625,-1.035530686378479,-2.2845559120178223
1773048324092463000,10.091463134765625,0.31641674041748047,-1.298343300819397,-0.959179162979126
1773048324102414300,10.101414306640624,-0.7057199478149414,-0.5902538299560547,2.3190417289733887
1773048324112379400,10.11137939453125,-0.9279880523681641,-0.524940550327301,-0.7129414081573486
1773048324122293200,10.121293212890626,0.5307111740112305,-2.011190176010132,0.4805185794830322
1773048324132253200,10.131253173828124,-1.4702949523925781,-0.8619559407234192,-1.136415719985962
1773048324142133200,10.14113330078125,-1.1086139678955078,0.692681610584259,1.1145061254501343
1773048324152013300,10.151013427734375,3.329615592956543,-3.0160577297210693,0.9923120141029358
1773048324162089200,10.161089111328126,-2.110625743865967,-0.5458292961120605,-2.1487374305725098
1773048324172047000,10.171047119140624,-2.608241558074951,1.0595521926879883,1.732326626777649
1773048324182045200,10.181045166015625,4.251082420349121,-0.7803765535354614,-0.8963799476623535
1773048324192007200,10.191007080078125,-1.8508515357971191,-2.165931463241577,-0.9437183141708374
1773048324202187000,10.20118701171875,-2.5724034309387207,0.306867778301239,1.675102710723877
1773048324212367000,10.2113671875,1.2734508514404297,0.7574033737182617,0.7875933647155762
1773048324222547000,10.221546875,1.9302263259887695,-1.7767685651779175,-2.5394716262817383
1773048324232657700,10.23165771484375,-2.156503200531006,-1.2629408836364746,1.0875743627548218
1773048324242613500,10.241613525390624,-2.122596263885498,0.3004675507545471,1.5281798839569092
1773048324252609500,10.251609619140625,4.270777702331543,-0.9236752986907959,-1.0023701190948486
1773048324262569700,10.26156982421875,-0.4319734573364258,-0.9756304025650024,-2.0634055137634277
1773048324272562400,10.2715625,-3.114954948425293,-0.1530483365058899,1.4633245468139648
1773048324282526200,10.281526123046875,0.6559906005859375,-0.5721428394317627,2.91794490814209
1773048324292515800,10.291515869140625,1.2466411590576172,-1.2545686960220337,-3.5041074752807617
1773048324302482700,10.301482666015625,-0.11272335052490234,-0.9171978235244751,0.2458937168121338
1773048324312470000,10.311469970703126,-2.98636531829834,0.7365236878395081,1.8432438373565674
1773048324322439000,10.32143896484375,2.611220359802246,-0.8061018586158752,-1.1382116079330444
1773048324332424400,10.331424560546875,0.5571660995483398,-1.878645896911621,0.2625371217727661
1773048324342395100,10.34139501953125,-2.948971748352051,0.49471086263656616,-2.12052059173584
1773048324352379400,10.35137939453125,0.009278297424316406,0.30169227719306946,1.3189115524291992
1773048324362351400,10.361351318359375,3.556759834289551,-1.9947636127471924,2.478980541229248
1773048324372334300,10.371334228515625,-1.3971099853515625,-0.9086319208145142,-3.1889419555664062
1773048324382307800,10.381307861328125,-2.9076290130615234,0.0288286954164505,-0.9259939193725586
1773048324392289800,10.391289794921875,2.8384389877319336,-0.14148549735546112,3.405790090560913
1773048324402264000,10.40126416015625,1.3326683044433594,-0.9230530858039856,-0.28429412841796875
1773048324412245200,10.411245361328126,-3.216486930847168,-1.1961663961410522,-2.383085250854492
1773048324422220300,10.42122021484375,-2.2297892570495605,0.45619621872901917,0.6486722230911255
1773048324432201000,10.431200927734375,2.5023422241210938,-1.0386254787445068,1.8592708110809326
1773048324442176800,10.4411767578125,2.7117109298706055,-1.1513711214065552,-1.1937130689620972
1773048324452156700,10.45115673828125,-3.3388328552246094,-0.367948055267334,-1.269983172416687
1773048324462133000,10.461133056640625,0.8648767471313477,-0.0014832615852355957,0.10762155055999756
1773048324472112600,10.471112548828126,2.415233612060547,-1.7527446746826172,1.9520831108093262
1773048324482089200,10.481089111328124,1.0144357681274414,-0.903762936592102,-1.3675800561904907
1773048324492068600,10.491068603515625,-3.9290943145751953,1.152710199356079,-1.00230073928833
1773048324502045400,10.50104541015625,1.512587547302246,-0.7500123977661133,1.460519552230835
1773048324512024600,10.511024658203125,1.0710182189941406,-2.678624391555786,0.510168194770813
1773048324522001700,10.521001708984375,-4.216841697692871,1.064335584640503,-2.440711498260498
1773048324531980800,10.530980712890624,1.9895458221435547,-0.4218631684780121,1.2329916954040527
1773048324541958100,10.540958251953125,2.4826793670654297,-2.5991597175598145,-0.05258750915527344
1773048324551936800,10.550936767578126,-2.2022604942321777,0.03553106635808945,-1.5556080341339111
1773048324561914400,10.560914306640624,2.257052421569824,-0.3356550931930542,0.43183064460754395
1773048324571893000,10.57089306640625,1.1970415115356445,-0.811848521232605,0.20290637016296387
1773048324581870600,10.58087060546875,-1.7130351066589355,-0.9988659024238586,-0.42392122745513916
1773048324591849200,10.59084912109375,-1.5321712493896484,-1.052630066871643,1.4440345764160156
1773048324601826800,10.600826904296875,0.3194084167480469,0.35915204882621765,-2.704392910003662
1773048324611805400,10.610805419921874,1.2643070220947266,-1.7441431283950806,1.2092727422714233
1773048324621783000,10.620782958984375,-0.12265968322753906,-0.8767194747924805,1.3087284564971924
1773048324631761400,10.630761474609375,-4.618222236633301,0.6386464834213257,-1.8390002250671387
1773048324641739500,10.640739501953124,2.9920778274536133,-1.9705411195755005,0.565546989440918
1773048324651718000,10.6507177734375,0.3325939178466797,-1.544090986251831,1.4662659168243408
1773048324661695700,10.66069580078125,-1.7546658515930176,0.7485308051109314,-2.153566360473633
1773048324671673900,10.670673828125,2.2790403366088867,-0.7051793336868286,0.20628595352172852
1773048324681554000,10.680553955078125,-0.2755556106567383,-1.7682571411132812,-1.0371109247207642
1773048324691417000,10.6904169921875,-3.0105457305908203,-0.015464309602975845,0.853410005569458
1773048324701608000,10.70060791015625,0.12409400939941406,0.36747121810913086,0.4715726375579834
1773048324711590700,10.710590576171874,0.8263263702392578,-0.7891001105308533,-1.8728010654449463
1773048324721564400,10.720564453125,-0.6840734481811523,-1.5211786031723022,1.5712038278579712
1773048324731545900,10.7305458984375,-2.8829879760742188,0.31799131631851196,-0.3367980718612671
1773048324741520600,10.740520751953126,1.0675926208496094,-0.33143487572669983,-1.501471757888794
1773048324751501600,10.75050146484375,1.8867712020874023,-1.5759801864624023,1.288462519645691
1773048324761381600,10.760381591796875,-1.0153923034667969,-0.06622131168842316,-1.8962786197662354
1773048324771244000,10.770244140625,-0.921849250793457,0.6534913778305054,-0.20904159545898438
1773048324781433000,10.78043310546875,3.1578807830810547,-1.955396056175232,1.4647231101989746
1773048324791417000,10.7904169921875,-2.7157998085021973,0.06461570411920547,-1.2635895013809204
1773048324801389300,10.800389404296874,-2.299229145050049,0.8608262538909912,-0.228806734085083
1773048324811372300,10.810372314453126,2.2856321334838867,-1.690211296081543,0.7819540500640869
1773048324821345800,10.820345703125,-1.806220531463623,-0.9981052279472351,-1.013348937034607
1773048324831327700,10.83032763671875,-0.7426300048828125,0.3092319965362549,-0.20509767532348633
1773048324841302000,10.840302001953125,1.9040641784667969,-0.819159746170044,0.30011630058288574
1773048324851283200,10.850283203125,1.4596834182739258,-0.7593992352485657,-0.44666826725006104
1773048324861163300,10.860163330078125,-1.6707205772399902,0.006740182638168335,-0.0020726919174194336
1773048324871025700,10.870025634765625,0.4619865417480469,-0.5245718359947205,-1.0184954404830933
1773048324881020400,10.8800205078125,1.7592573165893555,-0.8964215517044067,0.7762354612350464
1773048324890985000,10.88998486328125,-2.36033296585083,0.175534188747406,-1.2980082035064697
1773048324901170700,10.900170654296875,-0.45973682403564453,-0.27363112568855286,-0.32313382625579834
1773048324911157500,10.910157470703124,1.0692062377929688,-0.8792992234230042,0.38134658336639404
1773048324921127000,10.920126953125,-0.7425107955932617,-0.4520620107650757,-0.13426315784454346
1773048324931112200,10.9301123046875,-0.10565853118896484,-0.04941203445196152,-1.009323239326477
1773048324941083100,10.940083251953125,0.28619384765625,-0.7856352925300598,0.4113994836807251
1773048324951067000,10.95006689453125,0.8536434173583984,-0.8256918787956238,1.1161754131317139
1773048324960947000,10.959947021484375,-1.0627679824829102,-0.0930539071559906,-1.723368525505066
1773048324970808800,10.969808837890625,1.0212430953979492,-0.2601032257080078,0.3959798812866211
1773048324980801500,10.979801513671875,0.7992048263549805,-0.29295405745506287,0.9931656718254089
1773048324990767900,10.989767822265625,-1.2508010864257812,-0.0869145542383194,-1.2250876426696777
1773048325000951800,10.999951904296875,-0.1692209243774414,-0.24333341419696808,1.151686191558838
1773048325010940200,11.009940185546874,-0.073455810546875,-0.22311416268348694,-1.0492526292800903
1773048325020908000,11.019907958984374,0.01247406005859375,0.556925892829895,-0.08289563655853271
1773048325030894600,11.02989453125,0.5895414352416992,-0.045835092663764954,1.2410134077072144
1773048325040864500,11.039864501953126,0.9795913696289062,-0.5514965653419495,-0.787993311882019
1773048325050849000,11.04984912109375,-0.054355621337890625,-0.4411563575267792,-0.45065248012542725
1773048325060820700,11.05982080078125,-0.24580860137939453,1.2252709865570068,-0.7005269527435303
1773048325070804200,11.06980419921875,1.0242671966552734,0.4226870536804199,2.0806140899658203
1773048325080777000,11.07977685546875,0.4054222106933594,-2.671952486038208,-0.9964244365692139
1773048325090759400,11.089759521484375,-3.9635581970214844,1.043474555015564,-1.340099573135376
1773048325100733400,11.0997333984375,2.4234209060668945,0.569098174571991,-0.19691681861877441
1773048325110715000,11.10971484375,2.7680606842041016,-1.9736127853393555,1.4948101043701172
1773048325120689700,11.119689697265626,-2.3199400901794434,-0.12181111425161362,0.020239591598510742
1773048325130670300,11.12967041015625,-1.5832171440124512,0.06759019196033478,-2.654006004333496
1773048325140646000,11.13964599609375,2.068100929260254,-1.0384023189544678,1.9289888143539429
1773048325150626000,11.1496259765625,1.3378639221191406,-0.6110256910324097,1.1168458461761475
1773048325160506000,11.159506103515625,-2.216865062713623,-0.23443540930747986,-2.863126754760742
1773048325170368800,11.16936865234375,0.829564094543457,-0.5169764161109924,1.0715012550354004
1773048325180558300,11.179558349609374,0.18883132934570312,-0.3792884945869446,0.6361144781112671
1773048325190542000,11.1895419921875,-0.29814624786376953,-0.5462908148765564,0.11724328994750977
1773048325200514600,11.1995146484375,-0.8935985565185547,0.06537652015686035,-0.5667022466659546
1773048325210497300,11.209497314453126,-0.4517383575439453,-0.7153630256652832,0.11865711212158203
1773048325220470800,11.219470703125,1.0579948425292969,-0.9572009444236755,1.4998879432678223
1773048325240427300,11.23942724609375,1.537276268005371,-0.47971606254577637,0.2119309902191162
1773048325250408200,11.249408203125,-0.5764331817626953,-0.3982953429222107,-0.28851473331451416
1773048325260383500,11.259383544921874,-0.8758630752563477,-1.0947197675704956,0.5100822448730469
1773048325270364000,11.269364013671876,0.3768587112426758,-0.37099364399909973,-0.4173903465270996
1773048325280339700,11.279339599609376,-0.5930709838867188,-0.06974748522043228,-1.616966962814331
1773048325290319600,11.289319580078125,1.4416675567626953,-0.8516414165496826,1.8283759355545044
1773048325300296000,11.2992958984375,-2.079958438873291,-0.238128200173378,-0.7924926280975342
1773048325310275600,11.309275634765624,-0.44263553619384766,-0.15664833784103394,-0.7687275409698486
1773048325320252200,11.319252197265625,1.3012638092041016,-1.0009453296661377,0.2858579158782959
1773048325330231600,11.3292314453125,-0.587742805480957,-0.5291582345962524,1.5697911977767944
1773048325340208400,11.33920849609375,-0.33329010009765625,0.8777869939804077,-2.877012252807617
1773048325350187500,11.3491875,0.9231853485107422,-1.1268166303634644,0.08406376838684082
1773048325360164900,11.359164794921876,1.3124809265136719,-1.6469807624816895,1.6263529062271118
1773048325370143500,11.3691435546875,-3.2969436645507812,0.9116630554199219,-2.403481960296631
1773048325380121000,11.37912109375,2.061229705810547,-0.31872794032096863,0.9197100400924683
1773048325390099700,11.389099609375,1.4320058822631836,-1.2141413688659668,-0.3069026470184326
1773048325400077300,11.399077392578125,-2.9543495178222656,-0.322748601436615,-0.6642938852310181
1773048325410056000,11.409055908203126,0.5853185653686523,0.38942331075668335,0.558667778968811
1773048325420033500,11.419033447265624,1.161849021911621,-1.2707403898239136,-0.32138049602508545
1773048325430012000,11.429011962890625,1.0677356719970703,-0.7504013776779175,-0.5759451389312744
1773048325439989800,11.43898974609375,-2.801581382751465,0.8164108991622925,0.2723114490509033
1773048325449968000,11.448968017578125,3.687502861022949,-1.0099161863327026,-0.45143747329711914
1773048325459848200,11.45884814453125,0.18929195404052734,-0.3497779071331024,-0.8389856815338135
1773048325469711000,11.468711181640625,-2.256603717803955,0.6365232467651367,0.7111842632293701
1773048325479902200,11.478902099609375,1.6788482666015625,-0.9696646332740784,-0.5143619775772095
1773048325489884700,11.488884765625,-1.0513486862182617,-0.07220253348350525,-0.5925611257553101
1773048325499858400,11.4988583984375,-0.30906009674072266,0.17042991518974304,0.4850623607635498
1773048325509840100,11.508840087890626,0.579716682434082,0.005607789382338524,0.5009373426437378
1773048325519814700,11.518814697265626,0.41097068786621094,-0.40615710616111755,-1.2013221979141235
1773048325529795600,11.528795654296875,-0.8933067321777344,0.0853804275393486,0.59629225730896
1773048325539771000,11.53877099609375,1.0465784072875977,-0.31737950444221497,0.8116096258163452
1773048325549751300,11.548751220703124,0.48566436767578125,0.09814882278442383,-2.454854965209961
1773048325559727000,11.55872705078125,-0.9341611862182617,-0.249092698097229,1.510845422744751
1773048325569707300,11.568707275390626,0.6913089752197266,-0.8458527326583862,-0.7276676893234253
1773048325579587000,11.578587158203124,-1.5921854972839355,0.3001880943775177,-0.8434118032455444
1773048325589449700,11.58844970703125,1.671915054321289,-0.8043697476387024,0.5571428537368774
1773048325599639600,11.5986396484375,-0.4560279846191406,-0.16857002675533295,0.13435900211334229
1773048325609623000,11.608623046875,-0.3503837585449219,-0.35124292969703674,0.18850994110107422
1773048325619595800,11.618595703125,1.4313545227050781,-0.833460807800293,-0.3648875951766968
1773048325629578200,11.628578125,-0.6108589172363281,0.20359891653060913,0.7198610305786133
1773048325639552300,11.63855224609375,0.6841278076171875,-0.4521782100200653,-0.8341511487960815
1773048325649533700,11.64853369140625,0.9881324768066406,-0.953434407711029,-0.8797236680984497
1773048325659508500,11.658508544921874,-1.1727333068847656,0.49302810430526733,1.5563130378723145
1773048325669489400,11.668489501953125,1.6900138854980469,-1.2656670808792114,-1.128548264503479
1773048325679369200,11.678369140625,-1.5747952461242676,-0.003824932500720024,0.05283057689666748
1773048325689232000,11.68823193359375,-0.3731842041015625,-0.2389746904373169,-1.5055440664291382
1773048325699420700,11.698420654296875,0.3248767852783203,-0.7172985076904297,1.3199536800384521
1773048325709405000,11.708405029296875,-0.9845676422119141,0.009065400809049606,-0.029785990715026855
1773048325719377200,11.718377197265625,-0.18462753295898438,-0.273404061794281,-1.0957615375518799
1773048325729360100,11.728360107421874,0.025461196899414062,-0.5654122233390808,0.28473496437072754
1773048325739333400,11.73833349609375,-0.9055023193359375,0.2658317983150482,0.7545453310012817
1773048325749315300,11.7483154296875,0.6001348495483398,-0.4897591471672058,-0.49985814094543457
1773048325759289600,11.75828955078125,-0.8237638473510742,-0.020998554304242134,-1.3631551265716553
1773048325769270800,11.768270751953125,-0.7983388900756836,-0.6284171938896179,1.8236013650894165
1773048325779245800,11.778245849609375,0.07714176177978516,-0.2248019129037857,-1.1022837162017822
1773048325789226500,11.7882265625,-1.169011116027832,0.4391477704048157,-1.2920153141021729
1773048325799202000,11.7982021484375,1.1488571166992188,-0.8549581170082092,1.148857831954956
1773048325809182200,11.80818212890625,-2.076111316680908,0.3124792277812958,-0.47782647609710693
1773048325819062300,11.818062255859376,-0.7250785827636719,-0.2893996238708496,0.1532294750213623
1773048325828925000,11.827925048828124,1.2485361099243164,-0.7359281778335571,0.24895799160003662
1773048325839114500,11.838114501953125,-2.5303215980529785,1.042445182800293,-1.0820542573928833
1773048325849098200,11.84809814453125,1.4136838912963867,-1.1064279079437256,1.3283438682556152
1773048325859070700,11.85807080078125,-0.9093952178955078,-0.2319054901599884,-0.829892635345459
1773048325869053400,11.868053466796875,-1.4374914169311523,0.28534871339797974,-1.0914239883422852
1773048325879027000,11.87802685546875,2.1511669158935547,-0.3813093900680542,1.0508005619049072
1773048325889008600,11.888008544921876,-0.4608573913574219,-0.20233657956123352,0.07528984546661377
1773048325898983200,11.897983154296876,-0.41221046447753906,-0.43764346837997437,-1.3639076948165894
1773048325908964400,11.90796435546875,-1.2323074340820312,-0.029574275016784668,0.6858468055725098
1773048325918939600,11.917939697265625,1.2526750564575195,-0.4282435476779938,0.11630368232727051
1773048325928920000,11.927920166015625,-0.2444009780883789,0.033685747534036636,0.25980138778686523
1773048325938896000,11.937895751953125,-0.9415998458862305,-0.17936286330223083,-0.26846837997436523
1773048325948875800,11.947875732421876,0.36873531341552734,-0.6580246686935425,-0.7539466619491577
1773048325958852000,11.95785205078125,-0.8023042678833008,0.257041335105896,1.283216118812561
1773048325968831700,11.967831787109375,2.163996696472168,-0.4705356955528259,-0.6397545337677002
1773048325978808300,11.977808349609376,-1.1065073013305664,-0.596687912940979,-2.677517890930176
1773048325988787500,11.987787353515625,0.07976436614990234,-0.2683115005493164,1.861642599105835
1773048325998764500,11.9977646484375,1.0537796020507812,-0.3419050872325897,0.6524333953857422
1773048326008743700,12.00774365234375,-0.2808723449707031,0.4775752127170563,-2.665865659713745
1773048326018720800,12.017720703125,-0.2946949005126953,-0.7672218680381775,1.4570868015289307
1773048326028699600,12.02769970703125,-0.6519079208374023,-0.3704458773136139,0.829063892364502
1773048326038677000,12.037677001953124,0.8102703094482422,-0.2381356656551361,-1.7287615537643433
1773048326048655600,12.047655517578125,0.7940530776977539,0.1039043515920639,-0.2813297510147095
1773048326058633200,12.05763330078125,0.19540119171142578,-0.4479402005672455,0.52843177318573
1773048326068611800,12.06761181640625,0.27590179443359375,-0.33891043066978455,0.26331210136413574
1773048326078589400,12.07758935546875,-1.4483203887939453,0.20375201106071472,-0.05848062038421631
1773048326088568000,12.087568115234374,0.36438846588134766,-0.3619224429130554,-1.4493451118469238
1773048326098546000,12.0975458984375,0.014943122863769531,-0.5110790133476257,1.4064369201660156
1773048326108524300,12.107524169921875,-0.052520751953125,0.290732204914093,0.5976666212081909
1773048326118404400,12.117404296875,0.2293567657470703,-0.1948084831237793,-2.088563919067383
1773048326128267300,12.127267333984374,0.08961105346679688,-0.2784845530986786,1.4049532413482666
1773048326138458000,12.1374580078125,-0.9851226806640625,-0.14200428128242493,-0.40797972679138184
1773048326148440600,12.147440673828125,0.25295162200927734,-0.17806276679039001,-0.9827218055725098
1773048326158414300,12.157414306640625,0.34743690490722656,-0.36185771226882935,0.6893823146820068
1773048326168396000,12.16739599609375,-0.3319368362426758,-0.19250524044036865,-1.6349776983261108
1773048326178276000,12.177276123046875,0.07463836669921875,-0.08118852972984314,-0.05116760730743408
1773048326188138200,12.18713818359375,1.3626232147216797,-0.12317758798599243,2.167503833770752
1773048326198326800,12.197326904296874,-0.6693954467773438,-0.35517653822898865,-3.3622870445251465
1773048326208311300,12.207311279296874,-0.9690055847167969,-0.24520732462406158,0.3556147813796997
1773048326218283000,12.217282958984375,1.4538698196411133,0.21434053778648376,2.5459556579589844
1773048326238239200,12.2372392578125,-0.06099891662597656,0.014043554663658142,-0.4395143985748291
1773048326248221400,12.247221435546875,-1.450453758239746,0.025455065071582794,0.7956627607345581
1773048326258195500,12.257195556640625,1.980325698852539,-0.6584705114364624,-0.001166224479675293
1773048326268177000,12.267177001953126,-0.6791706085205078,-0.07622841000556946,-0.7500355243682861
1773048326278151700,12.277151611328126,-0.5588455200195312,-0.08774016797542572,-0.5083746910095215
1773048326288132600,12.287132568359375,0.7073583602905273,-0.5865609645843506,0.9737415909767151
1773048326298012700,12.2970126953125,-0.20212173461914062,0.19135724008083344,-0.9353611469268799
1773048326307875000,12.306875,-0.21611785888671875,-0.31794625520706177,-0.7331807613372803
1773048326317870000,12.3168701171875,0.32831573486328125,-0.30035990476608276,1.6060932874679565
1773048326327834600,12.326834716796874,-0.43188953399658203,0.31365829706192017,-0.55643630027771
1773048326337826300,12.336826416015626,0.3758888244628906,-0.745292067527771,-0.5050119161605835
1773048326347793400,12.34679345703125,-0.3128623962402344,-0.563744843006134,0.7954663038253784
1773048326357782300,12.3567822265625,-1.7492127418518066,1.1439969539642334,0.39045464992523193
1773048326367751700,12.366751708984374,2.2362546920776367,-1.4351571798324585,-0.8693900108337402
1773048326377932500,12.3769326171875,-0.36582374572753906,-0.6119850277900696,-0.5472134351730347
1773048326387923500,12.38692333984375,-2.862346649169922,0.6802852749824524,0.3506242036819458
1773048326397889000,12.396888916015625,2.7209959030151367,-0.5443618297576904,0.5655921697616577
1773048326407877000,12.406877197265626,-0.05406379699707031,-0.049250997602939606,0.16865122318267822
1773048326417757200,12.416757080078124,-0.94256591796875,-0.5515744090080261,-1.1033872365951538
1773048326427618000,12.4266181640625,-1.2171297073364258,-0.3710121810436249,2.57784104347229
1773048326437801500,12.436801513671876,1.2635173797607422,0.24477499723434448,-0.802788257598877
1773048326447790000,12.4467900390625,2.362565040588379,-1.5866031646728516,-0.9259474277496338
1773048326457757700,12.4567578125,-3.028599739074707,0.8989226818084717,-1.2451037168502808
1773048326467744300,12.466744140625,0.13353443145751953,0.898696780204773,1.7252471446990967
1773048326477714000,12.4767138671875,2.7029647827148438,-1.8694177865982056,2.733767032623291
1773048326487699000,12.486698974609375,-3.5682249069213867,0.2404564917087555,-5.109392166137695
1773048326497670100,12.496670166015624,0.555293083190918,-0.3679013252258301,1.3142509460449219
1773048326507654000,12.50665380859375,1.3380012512207031,0.5003073811531067,3.1967530250549316
1773048326517626400,12.51662646484375,2.1219911575317383,-0.10188306868076324,-2.3367326259613037
1773048326527609000,12.526609130859375,-2.1470398902893066,-1.3070926666259766,-1.911892056465149
1773048326537582800,12.536582763671875,-2.7013487815856934,0.31247153878211975,3.314176082611084
1773048326547564300,12.546564208984375,1.8317575454711914,0.8272851705551147,0.9711762070655823
1773048326557539000,12.5565390625,2.2226638793945312,-1.6209027767181396,-4.782148361206055
1773048326567520000,12.56652001953125,-2.495706081390381,-1.418528437614441,2.6983115673065186
1773048326577495300,12.576495361328124,-1.4821195602416992,0.8212055563926697,0.27702462673187256
1773048326587475700,12.586475830078125,3.4727678298950195,0.1591498851776123,-1.7540957927703857
1773048326597451500,12.596451416015626,2.1645612716674805,-2.4075236320495605,0.30246925354003906
1773048326607431400,12.606431396484375,-4.381009101867676,0.2879291772842407,-0.7741279602050781
1773048326617311200,12.616311279296875,-1.378575325012207,1.2213505506515503,2.0004148483276367
1773048326627174000,12.626173828125,4.565879821777344,-1.5341342687606812,0.5579935312271118
1773048326637363700,12.63636376953125,-1.9297900199890137,-1.2815889120101929,-1.7491071224212646
1773048326647347500,12.646347412109375,-2.966404914855957,1.214432954788208,-0.5419613122940063
1773048326657320000,12.65631982421875,3.5956125259399414,-1.0039212703704834,3.0242323875427246
1773048326667302400,12.666302490234376,1.367081642150879,-1.4857233762741089,-1.231527328491211
1773048326677276400,12.6762763671875,-3.501981735229492,0.6676855683326721,-2.171147584915161
1773048326687257900,12.6862578125,1.4806299209594727,-0.7474311590194702,1.500715970993042
1773048326697232400,12.696232421875,0.933079719543457,-1.6895980834960938,1.667486548423767
1773048326707213300,12.70621337890625,-1.475820541381836,-0.9180490374565125,-1.6334425210952759
1773048326717093400,12.71609326171875,-1.3862600326538086,-1.0147076845169067,-0.41672778129577637
