time,seconds_elapsed,z,y,x
1773048314164530000,0.163530029296875,-0.0516652874648571,0.0011984215816482902,0.03608580678701401
1773048314184600300,0.183600341796875,-0.04953476041555405,-0.061652131378650665,0.041412122547626495
1773048314204651800,0.20365185546875,-0.033555805683135986,-0.020106852054595947,0.04354264959692955
1773048314234588400,0.23358837890625,-0.018642114475369453,-0.0786963477730751,0.041412122547626495
1773048314244586500,0.24358642578125,-0.021837905049324036,0.005459476262331009,0.03395527973771095
1773048314254545000,0.253544921875,-0.026098959147930145,0.020373167470097542,0.04034686088562012
1773048314264527000,0.263527099609375,-0.01970737800002098,-0.07230477035045624,0.02756369672715664
1773048314284479200,0.283479248046875,-0.01970737800002098,-0.003062632866203785,0.01904158666729927
1773048314294458000,0.2934580078125,-0.034621067345142365,0.02996053919196129,0.02649843320250511
1773048314304435200,0.303435302734375,-0.020772641524672508,-0.07230477035045624,0.03075948730111122
1773048314314413300,0.313413330078125,-0.013315795920789242,-0.048868969082832336,0.020106852054595947
1773048314324391200,0.32339111328125,-0.030360013246536255,0.035286858677864075,0.017976323142647743
1773048314334369300,0.333369384765625,-0.03675159439444542,-0.016911059617996216,0.007323687430471182
1773048314344347400,0.343347412109375,-0.02396843209862709,-0.0456731803715229,0.017976323142647743
1773048314354325200,0.3533251953125,-0.03249054029583931,-0.022237379103899002,0.011584741994738579
1773048314364303400,0.363303466796875,-0.03994738683104515,-0.004127896390855312,0.008388951420783997
1773048314374281500,0.373281494140625,-0.04527370631694794,0.005459476262331009,0.0062584239058196545
1773048314384259300,0.38325927734375,-0.046338967978954315,-0.003062632866203785,0.008388951420783997
1773048314394237400,0.393237548828125,-0.042077913880348206,-0.02756369672715664,0.013715269044041634
1773048314404215300,0.40321533203125,-0.0516652874648571,-0.03395527973771095,0.005193160381168127
1773048314414193400,0.413193359375,-0.062317922711372375,0.0576573945581913,0.005193160381168127
1773048314424133000,0.423133056640625,-0.061252661049366,0.012916321866214275,0.016911059617996216
1773048314434095600,0.433095703125,-0.05592634156346321,-0.05632581561803818,0.003062632866203785
1773048314444127200,0.443127197265625,-0.05592634156346321,0.027830012142658234,0.013715269044041634
1773048314454117600,0.45311767578125,-0.06657897680997849,0.0342215932905674,-0.0011984215816482902
1773048314464083500,0.46308349609375,-0.06338318437337875,0.026764748618006706,0.008388951420783997
1773048314474064100,0.473064208984375,-0.059122130274772644,-0.017976323142647743,0.004127896390855312
1773048314484039700,0.483039794921875,-0.05273054912686348,0.03848264738917351,0.017976323142647743
1773048314494018000,0.49301806640625,-0.059122130274772644,-0.003062632866203785,0.0019973693415522575
1773048314503995600,0.50299560546875,-0.062317922711372375,0.055526867508888245,0.004127896390855312
1773048314513973800,0.512973876953125,-0.04953476041555405,0.02996053919196129,0.016911059617996216
1773048314523951600,0.52295166015625,-0.042077913880348206,-0.03821633383631706,0.005193160381168127
1773048314533929700,0.5329296875,-0.046338967978954315,0.02889527566730976,0.008388951420783997
1773048314543907800,0.542907958984375,-0.04740423336625099,0.0672447681427002,0.008388951420783997
1773048314553885700,0.5528857421875,-0.04740423336625099,0.01078579481691122,0.0009321057004854083
1773048314563825000,0.562824951171875,-0.03568633273243904,0.008655266836285591,0.01584579609334469
1773048314573799200,0.572799072265625,-0.037816859781742096,-0.005193160381168127,0.0062584239058196545
1773048314583819800,0.58281982421875,-0.03675159439444542,0.06617950648069382,0.012650005519390106
1773048314593798700,0.592798583984375,-0.03568633273243904,0.035286858677864075,0.008388951420783997
1773048314603737000,0.602737060546875,-0.030360013246536255,-0.010519478470087051,0.0062584239058196545
1773048314613712000,0.6127119140625,-0.03142527863383293,0.019307903945446014,0.013715269044041634
1773048314623693000,0.622693115234375,-0.037816859781742096,0.02143843099474907,0.0009321057004854083
1773048314633668400,0.63266845703125,-0.03249054029583931,0.05659212917089462,0.009454214945435524
1773048314643688000,0.64268798828125,-0.03249054029583931,0.01078579481691122,0.013715269044041634
1773048314653667800,0.652667724609375,-0.03249054029583931,-0.009454214945435524,0.0019973693415522575
1773048314663644000,0.662643798828125,-0.03142527863383293,0.043808966875076294,0.016911059617996216
1773048314673623300,0.672623291015625,-0.037816859781742096,-0.014780532568693161,-0.0043942127376794815
1773048314683561200,0.682561279296875,-0.038882121443748474,0.04487423226237297,0.013715269044041634
1773048314693536500,0.69253662109375,-0.037816859781742096,-0.012650005519390106,0.008388951420783997
1773048314703517200,0.70251708984375,-0.03249054029583931,0.005459476262331009,0.014780532568693161
1773048314713493000,0.712492919921875,-0.03568633273243904,-0.004127896390855312,0.007323687430471182
1773048314723512000,0.722511962890625,-0.038882121443748474,0.02569948509335518,0.011584741994738579
1773048314733492200,0.7324921875,-0.042077913880348206,-0.020106852054595947,0.0062584239058196545
1773048314743468000,0.742468017578125,-0.033555805683135986,-0.011584741994738579,0.014780532568693161
1773048314753448000,0.752447998046875,-0.038882121443748474,-0.010519478470087051,0.008388951420783997
1773048314763385300,0.76238525390625,-0.04314317926764488,0.0342215932905674,0.011584741994738579
1773048314773361000,0.77236083984375,-0.03994738683104515,-0.016911059617996216,0.014780532568693161
1773048314783302400,0.782302490234375,-0.03675159439444542,-0.03821633383631706,0.0062584239058196545
1773048314793274600,0.792274658203125,-0.033555805683135986,0.022503694519400597,0.01904158666729927
1773048314803181000,0.80218115234375,-0.04101264849305153,-0.02649843320250511,-0.0011984215816482902
1773048314813146400,0.812146484375,-0.038882121443748474,0.03315633162856102,0.012650005519390106
1773048314823098000,0.82209814453125,-0.03568633273243904,-0.024367906153202057,0.007323687430471182
1773048314833062400,0.8320625,-0.03568633273243904,-0.014780532568693161,0.009454214945435524
1773048314843054000,0.84205419921875,-0.037816859781742096,0.008655266836285591,0.007323687430471182
1773048314853021000,0.85202099609375,-0.033555805683135986,0.031025802716612816,0.005193160381168127
1773048314862971400,0.861971435546875,-0.020772641524672508,0.00013315795513335615,0.022237379103899002
1773048314872936700,0.871936767578125,-0.033555805683135986,-0.0691089779138565,-0.0022636852227151394
1773048314882888400,0.881888427734375,-0.037816859781742096,0.055526867508888245,0.010519478470087051
1773048314892852500,0.8918525390625,-0.037816859781742096,0.043808966875076294,0.007323687430471182
1773048314902805800,0.9018056640625,-0.02396843209862709,-0.03928159549832344,0.011584741994738579
1773048314912768500,0.9117685546875,-0.026098959147930145,-0.0552605502307415,0.010519478470087051
1773048314922722800,0.921722900390625,-0.034621067345142365,0.06085318699479103,0.005193160381168127
1773048314932684800,0.931684814453125,-0.030360013246536255,0.04061317816376686,0.011584741994738579
1773048314942562800,0.941562744140625,-0.018642114475369453,-0.0691089779138565,0.0062584239058196545
1773048314952516400,0.951516357421875,-0.0282294861972332,-0.011584741994738579,0.004127896390855312
1773048314962479900,0.96147998046875,-0.034621067345142365,0.04593949392437935,0.005193160381168127
1773048314972434400,0.971434326171875,-0.026098959147930145,0.005459476262331009,0.008388951420783997
1773048314982435600,0.981435546875,-0.0282294861972332,-0.022237379103899002,-0.0011984215816482902
1773048314992394800,0.991394775390625,-0.027164222672581673,0.0576573945581913,0.011584741994738579
1773048315002352600,1.0013525390625,-0.018642114475369453,-0.021172115579247475,0.008388951420783997
1773048315012311800,1.011311767578125,-0.02396843209862709,-0.024367906153202057,-0.007590003311634064
1773048315022231600,1.0212314453125,-0.03142527863383293,0.0715058222413063,0.008388951420783997
1773048315032186600,1.0311865234375,-0.03142527863383293,0.009720530360937119,-0.0043942127376794815
1773048315042148600,1.041148681640625,-0.015446322970092297,-0.013715269044041634,0.009454214945435524
1773048315052104400,1.0511044921875,-0.02396843209862709,0.006524739786982536,0.007323687430471182
1773048315062065700,1.061065673828125,-0.03249054029583931,0.05659212917089462,-0.00013315795513335615
1773048315072022000,1.07102197265625,-0.022903168573975563,0.016112113371491432,0.004127896390855312
1773048315082059800,1.081059814453125,-0.015446322970092297,-0.022237379103899002,0.0019973693415522575
1773048315092024300,1.0910244140625,-0.020772641524672508,0.011851058341562748,0.010519478470087051
1773048315102204400,1.101204345703125,-0.030360013246536255,0.027830012142658234,0.0009321057004854083
1773048315112384500,1.111384521484375,-0.02396843209862709,0.035286858677864075,0.010519478470087051
1773048315122564400,1.121564453125,-0.01651158556342125,0.0043942127376794815,0.007323687430471182
1773048315132633600,1.131633544921875,-0.01438105944544077,-0.0009321057004854083,0.012650005519390106
1773048315142588700,1.141588623046875,-0.02396843209862709,-0.014780532568693161,0.003062632866203785
1773048315152585000,1.1515849609375,-0.026098959147930145,0.04913528636097908,0.005193160381168127
1773048315162545000,1.161544921875,-0.021837905049324036,0.02889527566730976,0.010519478470087051
1773048315172537600,1.17153759765625,-0.01438105944544077,-0.04354264959692955,0.009454214945435524
1773048315182501000,1.181501220703125,-0.01651158556342125,0.01078579481691122,0.012650005519390106
1773048315192490800,1.19149072265625,-0.021837905049324036,0.04167843982577324,0.008388951420783997
1773048315202457000,1.20145703125,-0.026098959147930145,0.0043942127376794815,-0.0022636852227151394
1773048315212444700,1.211444580078125,-0.01225053146481514,-0.013715269044041634,0.01584579609334469
1773048315222413300,1.221413330078125,-0.01651158556342125,-0.028628960251808167,0.0009321057004854083
1773048315232398800,1.23139892578125,-0.025033695623278618,0.05233107507228851,0.003062632866203785
1773048315242369500,1.24136962890625,-0.021837905049324036,0.00013315795513335615,0.004127896390855312
1773048315252353500,1.251353515625,-0.013315795920789242,-0.025433169677853584,0.005193160381168127
1773048315262325500,1.261325439453125,-0.01438105944544077,-0.009454214945435524,0.0019973693415522575
1773048315272308500,1.27130859375,-0.017576850950717926,0.011851058341562748,-0.00013315795513335615
1773048315282281700,1.28128173828125,-0.020772641524672508,-0.007323687430471182,-0.005459476262331009
1773048315292263400,1.291263427734375,-0.01651158556342125,0.01717737689614296,0.0019973693415522575
1773048315302237700,1.30123779296875,-0.011185267940163612,-0.020106852054595947,-0.006524739786982536
1773048315312219000,1.311218994140625,-0.01651158556342125,0.0033289489801973104,-0.0011984215816482902
1773048315322194000,1.32119384765625,-0.020772641524672508,-0.005193160381168127,-0.011851058341562748
1773048315332174300,1.33117431640625,-0.01438105944544077,0.020373167470097542,-0.007590003311634064
1773048315342150000,1.34114990234375,-0.013315795920789242,-0.005193160381168127,-0.005459476262331009
1773048315352130000,1.351130126953125,-0.017576850950717926,-0.032890014350414276,-0.01078579481691122
1773048315362009900,1.361009765625,-0.01651158556342125,0.03635212033987045,-0.005459476262331009
1773048315371829800,1.370829833984375,-0.018642114475369453,0.00013315795513335615,-0.012916321866214275
1773048315382009900,1.381009765625,-0.011185267940163612,0.008655266836285591,0.0019973693415522575
1773048315392046300,1.39104638671875,-0.011185267940163612,-0.03502054139971733,-0.0033289489801973104
1773048315402018000,1.40101806640625,-0.011185267940163612,0.026764748618006706,-0.0011984215816482902
1773048315412001300,1.411001220703125,-0.017576850950717926,0.01078579481691122,-0.008655266836285591
1773048315421974300,1.420974365234375,-0.013315795920789242,0.011851058341562748,0.0009321057004854083
1773048315431956500,1.43095654296875,-0.009054740890860558,-0.037151068449020386,-0.0011984215816482902
1773048315441930200,1.44093017578125,-0.010120004415512085,0.011851058341562748,0.0009321057004854083
1773048315451911700,1.45091162109375,-0.015446322970092297,0.026764748618006706,-0.0022636852227151394
1773048315461886500,1.460886474609375,-0.00798947736620903,-0.005193160381168127,0.004127896390855312
1773048315471867100,1.4708671875,-0.00798947736620903,-0.03928159549832344,0.004127896390855312
1773048315481842400,1.480842529296875,-0.011185267940163612,0.011851058341562748,0.005193160381168127
1773048315491822600,1.490822509765625,-0.018642114475369453,0.051265813410282135,0.009454214945435524
1773048315501798700,1.500798583984375,-0.01225053146481514,-0.022237379103899002,0.005193160381168127
1773048315511778300,1.5107783203125,-0.009054740890860558,0.005459476262331009,0.011584741994738579
1773048315521754600,1.520754638671875,-0.00798947736620903,0.009720530360937119,0.013715269044041634
1773048315531734000,1.530734130859375,-0.01438105944544077,-0.010519478470087051,-0.0011984215816482902
1773048315541710800,1.5407109375,-0.013315795920789242,0.07789740711450577,0.016911059617996216
1773048315551690000,1.55068994140625,-0.010120004415512085,-0.057391077280044556,0.003062632866203785
1773048315561666800,1.560666748046875,-0.009054740890860558,0.019307903945446014,0.013715269044041634
1773048315571645700,1.570645751953125,-0.013315795920789242,0.04487423226237297,0.010519478470087051
1773048315581525800,1.58052587890625,-0.009054740890860558,0.0043942127376794815,0.004127896390855312
1773048315591346000,1.590345947265625,-0.004793686326593161,-0.005193160381168127,0.016911059617996216
1773048315601346300,1.60034619140625,-0.004793686326593161,-0.012650005519390106,0.0062584239058196545
1773048315611306200,1.61030615234375,-0.00798947736620903,0.05339634045958519,0.014780532568693161
1773048315621486300,1.620486328125,-0.009054740890860558,0.009720530360937119,0.007323687430471182
1773048315631522300,1.630522216796875,0.0015978955198079348,-0.0318247526884079,0.011584741994738579
1773048315641491000,1.640490966796875,0.004793686326593161,0.005459476262331009,0.012650005519390106
1773048315651476500,1.6504765625,-0.005858949851244688,0.042743705213069916,0.003062632866203785
1773048315661447200,1.660447265625,-0.0015978955198079348,-0.004127896390855312,0.008388951420783997
1773048315671431200,1.67043115234375,0.004793686326593161,-0.037151068449020386,0.004127896390855312
1773048315681442300,1.6804423828125,0.006924213841557503,0.03209106624126434,0.008388951420783997
1773048315691429000,1.69042919921875,0.004793686326593161,0.01504684891551733,0.004127896390855312
1773048315701359600,1.700359619140625,0.009054740890860558,-0.01904158666729927,0.005193160381168127
1773048315711340500,1.710340576171875,0.011185267940163612,-0.010519478470087051,0.007323687430471182
1773048315721315600,1.720315673828125,0.005858949851244688,0.019307903945446014,0.003062632866203785
1773048315731296300,1.730296142578125,0.009054740890860558,0.023568958044052124,0.0062584239058196545
1773048315741271800,1.740271728515625,0.011185267940163612,-0.025433169677853584,-0.0043942127376794815
1773048315751251700,1.750251708984375,0.017576850950717926,0.011851058341562748,0.003062632866203785
1773048315761227800,1.760227783203125,0.01225053146481514,-0.011584741994738579,-0.01078579481691122
1773048315771207400,1.77020751953125,0.005858949851244688,0.03315633162856102,-0.006524739786982536
1773048315781184000,1.78018408203125,0.01225053146481514,-0.02756369672715664,-0.008655266836285591
1773048315791163400,1.790163330078125,0.013315795920789242,-0.005193160381168127,-0.009720530360937119
1773048315801140200,1.80014013671875,0.002663159044459462,0.04061317816376686,-0.01504684891551733
1773048315811119000,1.810119140625,0.009054740890860558,0.008655266836285591,-0.012916321866214275
1773048315821096200,1.82009619140625,0.011185267940163612,-0.04993423447012901,-0.018242640420794487
1773048315831075000,1.830074951171875,0.004793686326593161,0.05446160212159157,-0.01078579481691122
1773048315841052400,1.840052490234375,0.0015978955198079348,0.009720530360937119,-0.026764748618006706
1773048315851031000,1.850031005859375,0.005858949851244688,0.018242640420794487,-0.01504684891551733
1773048315861008400,1.86000830078125,0.009054740890860558,-0.02330264262855053,-0.022503694519400597
1773048315870987000,1.869987060546875,0.010120004415512085,0.019307903945446014,-0.02143843099474907
1773048315880867000,1.8798671875,-0.002663159044459462,0.04487423226237297,-0.026764748618006706
1773048315890687500,1.8896875,0.005858949851244688,-0.004127896390855312,-0.018242640420794487
1773048315900867300,1.899867431640625,0.011185267940163612,-0.05419528856873512,-0.02996053919196129
1773048315910904000,1.909904052734375,0.0015978955198079348,0.09920267760753632,-0.016112113371491432
1773048315920838000,1.919837890625,0.0015978955198079348,-0.0062584239058196545,-0.02143843099474907
1773048315930816500,1.92981640625,0.01651158556342125,-0.06378266215324402,-0.022503694519400597
1773048315940696300,1.9396962890625,0.00798947736620903,0.043808966875076294,-0.020373167470097542
1773048315950559200,1.949559326171875,0.0037284228019416332,0.05020054802298546,-0.019307903945446014
1773048315960556000,1.95955615234375,0.01438105944544077,-0.057391077280044556,-0.019307903945446014
1773048315970519000,1.96951904296875,0.01438105944544077,0.0033289489801973104,-0.013981585390865803
1773048315980512000,1.979511962890625,0.011185267940163612,0.03741738572716713,-0.020373167470097542
1773048315990477800,1.989477783203125,0.017576850950717926,0.01717737689614296,-0.009720530360937119
1773048316000468000,1.999468017578125,0.017576850950717926,-0.04354264959692955,-0.01504684891551733
1773048316010436400,2.009436279296875,0.013315795920789242,0.020373167470097542,-0.013981585390865803
1773048316020616400,2.019616455078125,0.01970737800002098,0.04487423226237297,0.004127896390855312
1773048316030651000,2.02965087890625,0.018642114475369453,-0.014780532568693161,-0.016112113371491432
1773048316040531000,2.039531005859375,0.026098959147930145,-0.022237379103899002,0.0019973693415522575
1773048316050347800,2.04934765625,0.020772641524672508,0.011851058341562748,-0.01078579481691122
1773048316060336400,2.05933642578125,0.021837905049324036,0.058722659945487976,0.007323687430471182
1773048316070306000,2.06930615234375,0.030360013246536255,-0.04993423447012901,0.003062632866203785
1773048316080292400,2.079292236328125,0.0282294861972332,-0.041412122547626495,-0.0043942127376794815
1773048316090263800,2.089263916015625,0.020772641524672508,0.08322372287511826,0.0062584239058196545
1773048316100248300,2.099248291015625,0.0282294861972332,-0.012650005519390106,0.003062632866203785
1773048316110221000,2.109220947265625,0.03249054029583931,-0.057391077280044556,0.0009321057004854083
1773048316120204300,2.119204345703125,0.027164222672581673,0.016112113371491432,0.004127896390855312
1773048316130178000,2.129177978515625,0.02396843209862709,0.01717737689614296,-0.005459476262331009
1773048316140160500,2.139160400390625,0.029294749721884727,0.012916321866214275,0.0062584239058196545
1773048316150135300,2.14913525390625,0.03568633273243904,-0.08082687854766846,-0.0043942127376794815
1773048316160315100,2.159315185546875,0.026098959147930145,0.019307903945446014,-0.00013315795513335615
1773048316170348500,2.1693486328125,0.021837905049324036,0.04487423226237297,-0.0011984215816482902
1773048316180228600,2.179228515625,0.04101264849305153,-0.057391077280044556,0.0009321057004854083
1773048316190044700,2.189044677734375,0.03675159439444542,-0.025433169677853584,-0.011851058341562748
1773048316200224500,2.199224609375,0.034621067345142365,0.08428898453712463,0.005193160381168127
1773048316210258700,2.2092587890625,0.03568633273243904,-0.04993423447012901,-0.009720530360937119
1773048316220218000,2.219218017578125,0.03675159439444542,-0.012650005519390106,-0.008655266836285591
1773048316230211000,2.229211181640625,0.037816859781742096,0.031025802716612816,-0.007590003311634064
1773048316240174300,2.23917431640625,0.042077913880348206,0.02143843099474907,-0.005459476262331009
1773048316250164500,2.24916455078125,0.04101264849305153,-0.04247738793492317,-0.01078579481691122
1773048316260044300,2.259044189453125,0.03994738683104515,0.019307903945446014,-0.0043942127376794815
1773048316269905000,2.26890478515625,0.038882121443748474,0.043808966875076294,0.0009321057004854083
1773048316279892500,2.278892578125,0.038882121443748474,-0.016911059617996216,-0.008655266836285591
1773048316289863000,2.28886279296875,0.04101264849305153,0.005459476262331009,-0.007590003311634064
1773048316299848700,2.2988486328125,0.04101264849305153,0.0033289489801973104,-0.007590003311634064
1773048316309820400,2.3088203125,0.034621067345142365,0.0011984215816482902,-0.007590003311634064
1773048316319998700,2.318998779296875,0.03142527863383293,-0.008388951420783997,-0.016112113371491432
1773048316329991400,2.328991455078125,0.042077913880348206,-0.010519478470087051,-0.012916321866214275
1773048316339955000,2.338954833984375,0.03675159439444542,0.012916321866214275,-0.01504684891551733
1773048316349944800,2.34894482421875,0.03994738683104515,-0.04460791498422623,-0.020373167470097542
1773048316359825000,2.358824951171875,0.04314317926764488,-0.016911059617996216,-0.018242640420794487
1773048316369685200,2.368685302734375,0.03249054029583931,0.04061317816376686,-0.022503694519400597
1773048316379867400,2.378867431640625,0.038882121443748474,-0.004127896390855312,-0.01717737689614296
1773048316389857000,2.38885693359375,0.04527370631694794,-0.05952160432934761,-0.02569948509335518
1773048316399737000,2.398737060546875,0.04101264849305153,0.009720530360937119,-0.02569948509335518
1773048316409597700,2.40859765625,0.04101264849305153,0.06511423736810684,-0.012916321866214275
1773048316419779600,2.418779541015625,0.04314317926764488,-0.10532794147729874,-0.0342215932905674
1773048316429769500,2.42876953125,0.042077913880348206,0.016112113371491432,-0.02143843099474907
1773048316439735800,2.43873583984375,0.038882121443748474,0.03315633162856102,-0.02143843099474907
1773048316449723400,2.448723388671875,0.05699160322546959,-0.061652131378650665,-0.01504684891551733
1773048316459692000,2.458692138671875,0.042077913880348206,-0.028628960251808167,-0.02463422156870365
1773048316469677600,2.468677490234375,0.04740423336625099,0.05339634045958519,-0.011851058341562748
1773048316479648000,2.47864794921875,0.059122130274772644,-0.06804371625185013,-0.01504684891551733
1773048316489632300,2.48863232421875,0.05699160322546959,-0.007323687430471182,-0.013981585390865803
1773048316499604200,2.498604248046875,0.053795814514160156,-0.008388951420783997,-0.023568958044052124
1773048316509587200,2.508587158203125,0.058056868612766266,0.06191844865679741,-0.011851058341562748
1773048316519560400,2.518560546875,0.0516652874648571,-0.0691089779138565,-0.01717737689614296
1773048316529542400,2.52854248046875,0.06657897680997849,-0.024367906153202057,-0.022503694519400597
1773048316539516700,2.5385166015625,0.0516652874648571,0.09600688517093658,-0.007590003311634064
1773048316549497900,2.548497802734375,0.05699160322546959,-0.03502054139971733,-0.02143843099474907
1773048316559378000,2.5583779296875,0.0739026665687561,-0.04034686088562012,-0.01078579481691122
1773048316569240000,2.568239990234375,0.04314317926764488,0.09813741594552994,-0.01078579481691122
1773048316579428900,2.578428955078125,0.058056868612766266,-0.057391077280044556,-0.009720530360937119
1773048316589413000,2.5884130859375,0.06657897680997849,0.00013315795513335615,0.003062632866203785
1773048316599385000,2.598385009765625,0.054861076176166534,0.031025802716612816,-0.006524739786982536
1773048316609368000,2.6083681640625,0.05592634156346321,-0.009454214945435524,-0.005459476262331009
1773048316619380000,2.6183798828125,0.05592634156346321,-0.025433169677853584,-0.0033289489801973104
1773048316629366000,2.628365966796875,0.06338318437337875,0.043808966875076294,0.008388951420783997
1773048316639297300,2.63829736328125,0.05699160322546959,-0.03821633383631706,-0.005459476262331009
1773048316649278000,2.64827783203125,0.05273054912686348,0.03741738572716713,0.0009321057004854083
1773048316659253500,2.65825341796875,0.06018739566206932,-0.0019973693415522575,0.014780532568693161
1773048316669233400,2.6682333984375,0.054861076176166534,-0.003062632866203785,-0.0011984215816482902
1773048316679209700,2.678209716796875,0.06018739566206932,0.04061317816376686,0.010519478470087051
1773048316689189400,2.688189453125,0.062317922711372375,-0.007323687430471182,0.0062584239058196545
1773048316699165700,2.698165771484375,0.04953476041555405,0.01078579481691122,-0.0033289489801973104
1773048316709145000,2.70814501953125,0.05592634156346321,-0.0062584239058196545,-0.006524739786982536
1773048316719122000,2.718121826171875,0.05699160322546959,0.058722659945487976,0.005193160381168127
1773048316729101000,2.72810107421875,0.053795814514160156,-0.04780370742082596,-0.01504684891551733
1773048316739078100,2.738078125,0.05699160322546959,0.006524739786982536,-0.016112113371491432
1773048316749057000,2.74805712890625,0.046338967978954315,0.08535424619913101,-0.0043942127376794815
1773048316758937000,2.75793701171875,0.05592634156346321,-0.06697845458984375,-0.023568958044052124
1773048316768799700,2.7677998046875,0.058056868612766266,0.013981585390865803,-0.012916321866214275
1773048316778796300,2.77779638671875,0.050600022077560425,0.06298371404409409,-0.012916321866214275
1773048316788759300,2.78775927734375,0.050600022077560425,-0.012650005519390106,-0.018242640420794487
1773048316798946300,2.7979462890625,0.053795814514160156,-0.010519478470087051,-0.016112113371491432
1773048316808932000,2.80793212890625,0.053795814514160156,0.06085318699479103,-0.016112113371491432
1773048316818902500,2.817902587890625,0.04953476041555405,0.0011984215816482902,-0.012916321866214275
1773048316828886800,2.82788671875,0.054861076176166534,-0.04780370742082596,-0.031025802716612816
1773048316838858800,2.837858642578125,0.05273054912686348,0.08322372287511826,-0.005459476262331009
1773048316848841700,2.847841796875,0.05273054912686348,-0.04354264959692955,-0.01504684891551733
1773048316858814700,2.857814697265625,0.05699160322546959,-0.02330264262855053,-0.02143843099474907
1773048316868797000,2.867796875,0.05592634156346321,0.07789740711450577,-0.005459476262331009
1773048316878676700,2.8776767578125,0.05592634156346321,-0.05206476151943207,-0.016112113371491432
1773048316888539000,2.887538818359375,0.05699160322546959,-0.029694223776459694,-0.01504684891551733
1773048316898727000,2.897726806640625,0.05273054912686348,0.04593949392437935,-0.011851058341562748
1773048316908712000,2.9077119140625,0.059122130274772644,-0.0552605502307415,-0.018242640420794487
1773048316918683100,2.91768310546875,0.058056868612766266,0.0033289489801973104,-0.007590003311634064
1773048316928666600,2.92766650390625,0.05592634156346321,0.016112113371491432,-0.01078579481691122
1773048316938639400,2.937639404296875,0.06338318437337875,-0.08402267098426819,-0.023568958044052124
1773048316948621800,2.947621826171875,0.06444845348596573,0.05446160212159157,-0.0033289489801973104
1773048316958595600,2.957595703125,0.058056868612766266,-0.016911059617996216,-0.012916321866214275
1773048316968577000,2.967576904296875,0.06018739566206932,-0.04247738793492317,-0.013981585390865803
1773048316978457000,2.97745703125,0.06018739566206932,0.043808966875076294,0.0009321057004854083
1773048316988319200,2.9873193359375,0.05699160322546959,-0.022237379103899002,-0.012916321866214275
1773048316998507800,2.9975078125,0.054861076176166534,-0.022237379103899002,-0.01078579481691122
1773048317008492300,3.0074921875,0.058056868612766266,0.04593949392437935,-0.00013315795513335615
1773048317018464000,3.017464111328125,0.058056868612766266,-0.014780532568693161,-0.0043942127376794815
1773048317028447200,3.027447265625,0.06018739566206932,-0.037151068449020386,-0.0043942127376794815
1773048317038420000,3.037419921875,0.054861076176166534,0.019307903945446014,-0.009720530360937119
1773048317048402200,3.047402099609375,0.050600022077560425,0.05446160212159157,0.009454214945435524
1773048317058376200,3.057376220703125,0.06018739566206932,-0.10532794147729874,-0.011851058341562748
1773048317068357600,3.067357666015625,0.05592634156346321,0.05446160212159157,-0.0043942127376794815
1773048317078332400,3.07733251953125,0.0516652874648571,-0.03395527973771095,-0.006524739786982536
1773048317088313000,3.08731298828125,0.061252661049366,0.01717737689614296,-0.006524739786982536
1773048317098288600,3.09728857421875,0.05273054912686348,-0.03075948730111122,-0.007590003311634064
1773048317108268800,3.107268798828125,0.058056868612766266,-0.03928159549832344,-0.01078579481691122
1773048317118244600,3.11724462890625,0.062317922711372375,0.05339634045958519,0.007323687430471182
1773048317128224500,3.127224609375,0.054861076176166534,-0.014780532568693161,-0.011851058341562748
1773048317138200800,3.137200927734375,0.062317922711372375,-0.05632581561803818,-0.0011984215816482902
1773048317148180200,3.14718017578125,0.06338318437337875,0.04913528636097908,-0.0022636852227151394
1773048317158158300,3.157158447265625,0.05699160322546959,-0.0062584239058196545,-0.013981585390865803
1773048317168135200,3.16713525390625,0.06657897680997849,-0.024367906153202057,-0.012916321866214275
1773048317178114300,3.1771142578125,0.06338318437337875,0.00013315795513335615,0.003062632866203785
1773048317188091400,3.18709130859375,0.059122130274772644,-0.029694223776459694,-0.023568958044052124
1773048317198070300,3.1970703125,0.061252661049366,0.09813741594552994,0.011584741994738579
1773048317208047400,3.20704736328125,0.06444845348596573,-0.10745847225189209,-0.0033289489801973104
1773048317218026200,3.217026123046875,0.07283740490674973,-0.007323687430471182,-0.0033289489801973104
1773048317228003600,3.227003662109375,0.046338967978954315,0.08961530029773712,0.010519478470087051
1773048317237982200,3.236982177734375,0.05699160322546959,-0.061652131378650665,-0.007590003311634064
1773048317247959800,3.246959716796875,0.08242477476596832,-0.011584741994738579,0.013715269044041634
1773048317257938200,3.256938232421875,0.04740423336625099,-0.021172115579247475,-0.006524739786982536
1773048317267915800,3.266915771484375,0.0516652874648571,0.012916321866214275,-0.013981585390865803
1773048317277894400,3.276894287109375,0.07816372066736221,0.011851058341562748,0.017976323142647743
1773048317287872000,3.2868720703125,0.04740423336625099,-0.08934898674488068,-0.022503694519400597
1773048317297850400,3.296850341796875,0.06018739566206932,0.0576573945581913,0.008388951420783997
1773048317307828200,3.306828125,0.05699160322546959,-0.025433169677853584,-0.0011984215816482902
1773048317317806300,3.316806396484375,0.06657897680997849,0.008655266836285591,0.009454214945435524
1773048317327784200,3.3267841796875,0.061252661049366,-0.04993423447012901,-0.0033289489801973104
1773048317337762600,3.336762451171875,0.06338318437337875,0.05339634045958519,0.009454214945435524
1773048317347642600,3.346642578125,0.06764423847198486,-0.008388951420783997,0.013715269044041634
1773048317357463000,3.356463134765625,0.06444845348596573,-0.032890014350414276,0.004127896390855312
1773048317367643000,3.366642822265625,0.06338318437337875,0.04593949392437935,0.01904158666729927
1773048317377680000,3.376679931640625,0.062317922711372375,0.019307903945446014,0.011584741994738579
1773048317387652600,3.386652587890625,0.06964161247015,-0.03502054139971733,0.011584741994738579
1773048317397634800,3.396634765625,0.06857634335756302,0.023568958044052124,0.01904158666729927
1773048317407608800,3.40660888671875,0.058056868612766266,-0.01904158666729927,0.0009321057004854083
1773048317417590300,3.41659033203125,0.06857634335756302,0.01078579481691122,0.020106852054595947
1773048317427565000,3.42656494140625,0.06657897680997849,-0.03075948730111122,0.007323687430471182
1773048317437545700,3.436545654296875,0.058056868612766266,-0.020106852054595947,-0.0022636852227151394
1773048317447425800,3.44642578125,0.06764423847198486,0.03209106624126434,0.016911059617996216
1773048317457245700,3.45624560546875,0.053795814514160156,-0.07337003201246262,-0.01717737689614296
1773048317467425500,3.466425537109375,0.062317922711372375,0.02996053919196129,0.0062584239058196545
1773048317477462000,3.4764619140625,0.062317922711372375,-0.03502054139971733,-0.0043942127376794815
1773048317487433500,3.48643359375,0.059122130274772644,-0.03502054139971733,-0.02143843099474907
1773048317497417000,3.4964169921875,0.058056868612766266,0.043808966875076294,-0.00013315795513335615
1773048317507389400,3.506389404296875,0.058056868612766266,-0.0456731803715229,-0.023568958044052124
1773048317517372000,3.516371826171875,0.06338318437337875,0.04487423226237297,-0.00013315795513335615
1773048317527345700,3.526345703125,0.054861076176166534,-0.06697845458984375,-0.0342215932905674
1773048317537327400,3.536327392578125,0.05592634156346321,0.08535424619913101,-0.01717737689614296
1773048317547302000,3.546302001953125,0.054861076176166534,-0.009454214945435524,-0.02143843099474907
1773048317557282800,3.55628271484375,0.053795814514160156,-0.0456731803715229,-0.04487423226237297
1773048317567258000,3.566258056640625,0.05273054912686348,0.059787921607494354,-0.027830012142658234
1773048317577238500,3.576238525390625,0.04420844092965126,-0.01584579609334469,-0.047004759311676025
1773048317587214000,3.586214111328125,0.046338967978954315,0.013981585390865803,-0.04167843982577324
1773048317597194000,3.596194091796875,0.04846949502825737,-0.007323687430471182,-0.047004759311676025
1773048317607074000,3.606073974609375,0.04740423336625099,0.022503694519400597,-0.04061317816376686
1773048317616894200,3.615894287109375,0.03994738683104515,-0.02649843320250511,-0.05233107507228851
1773048317627074300,3.62607421875,0.04420844092965126,0.0576573945581913,-0.04487423226237297
1773048317637110800,3.63611083984375,0.046338967978954315,-0.003062632866203785,-0.04487423226237297
1773048317646990800,3.645990966796875,0.04314317926764488,-0.012650005519390106,-0.05233107507228851
1773048317656810000,3.65581005859375,0.037816859781742096,0.03635212033987045,-0.048070020973682404
1773048317666989800,3.66598974609375,0.04314317926764488,0.01717737689614296,-0.05233107507228851
1773048317677025800,3.67602587890625,0.04740423336625099,-0.007323687430471182,-0.047004759311676025
1773048317686994700,3.68599462890625,0.050600022077560425,-0.048868969082832336,-0.05020054802298546
1773048317696980200,3.695980224609375,0.04101264849305153,0.03635212033987045,-0.051265813410282135
1773048317706951000,3.705950927734375,0.042077913880348206,0.026764748618006706,-0.031025802716612816
1773048317716935000,3.715934814453125,0.054861076176166534,-0.04673844203352928,-0.039547912776470184
1773048317726907100,3.7259072265625,0.05273054912686348,0.02463422156870365,-0.023568958044052124
1773048317736890000,3.73589013671875,0.04527370631694794,0.023568958044052124,-0.02889527566730976
1773048317746770000,3.74577001953125,0.05592634156346321,0.008655266836285591,-0.020373167470097542
1773048317756589600,3.755589599609375,0.059122130274772644,-0.010519478470087051,-0.019307903945446014
1773048317766769400,3.765769287109375,0.058056868612766266,0.0043942127376794815,-0.018242640420794487
1773048317776805600,3.7758056640625,0.05592634156346321,0.005459476262331009,-0.01504684891551733
1773048317786775600,3.785775634765625,0.05592634156346321,0.0033289489801973104,-0.016112113371491432
1773048317796760300,3.79576025390625,0.05273054912686348,0.03848264738917351,-0.009720530360937119
1773048317806640000,3.80564013671875,0.05592634156346321,0.0011984215816482902,-0.009720530360937119
1773048317816459300,3.815459228515625,0.054861076176166534,-0.013715269044041634,-0.01504684891551733
1773048317826455000,3.825455078125,0.05592634156346321,0.005459476262331009,-0.007590003311634064
1773048317836418800,3.835418701171875,0.06018739566206932,-0.013715269044041634,-0.01504684891551733
1773048317846411000,3.845410888671875,0.04527370631694794,0.006524739786982536,-0.012916321866214275
1773048317856377900,3.8553779296875,0.054861076176166534,-0.0062584239058196545,0.0009321057004854083
1773048317866557700,3.8655576171875,0.05699160322546959,-0.0456731803715229,-0.018242640420794487
1773048317876592600,3.875592529296875,0.046338967978954315,0.05339634045958519,-0.0043942127376794815
1773048317886556200,3.88555615234375,0.04740423336625099,-0.01904158666729927,-0.0043942127376794815
1773048317896546000,3.895546142578125,0.0516652874648571,-0.013715269044041634,-0.007590003311634064
1773048317906512600,3.9055126953125,0.042077913880348206,0.03315633162856102,0.0019973693415522575
1773048317916500000,3.9155,0.050600022077560425,-0.041412122547626495,-0.0011984215816482902
1773048317926468600,3.925468505859375,0.04740423336625099,0.01717737689614296,-0.0011984215816482902
1773048317936454100,3.9354541015625,0.04420844092965126,0.006524739786982536,0.014780532568693161
1773048317946424800,3.9454248046875,0.04953476041555405,-0.06378266215324402,-0.0033289489801973104
1773048317956408800,3.955408935546875,0.04101264849305153,0.04167843982577324,0.01584579609334469
1773048317966381000,3.965381103515625,0.04527370631694794,-0.06378266215324402,-0.00013315795513335615
1773048317976364000,3.975364013671875,0.04101264849305153,0.02889527566730976,0.008388951420783997
1773048317986337300,3.985337158203125,0.046338967978954315,-0.06058686971664429,0.012650005519390106
1773048317996319200,3.9953193359375,0.04527370631694794,-0.014780532568693161,-0.0043942127376794815
1773048318006293500,4.00529345703125,0.037816859781742096,0.02889527566730976,0.01904158666729927
1773048318016274700,4.015274658203125,0.04740423336625099,-0.0691089779138565,0.004127896390855312
1773048318026249700,4.025249755859375,0.03994738683104515,0.018242640420794487,0.005193160381168127
1773048318036230100,4.035230224609375,0.04953476041555405,0.008655266836285591,0.025433169677853584
1773048318046110200,4.045110107421875,0.053795814514160156,-0.06804371625185013,-0.009720530360937119
1773048318055972600,4.05497265625,0.022903168573975563,0.10346373170614243,0.017976323142647743
1773048318066162000,4.065161865234375,0.050600022077560425,-0.05952160432934761,0.013715269044041634
1773048318076145700,4.075145751953125,0.06338318437337875,-0.0009321057004854083,-0.007590003311634064
1773048318086118100,4.0851181640625,0.015446322970092297,0.042743705213069916,0.01904158666729927
1773048318096100900,4.095100830078125,0.04314317926764488,-0.025433169677853584,-0.0033289489801973104
1773048318106074400,4.105074462890625,0.03568633273243904,0.00013315795513335615,0.003062632866203785
1773048318116056000,4.11505615234375,0.042077913880348206,-0.05419528856873512,-0.01504684891551733
1773048318126030300,4.1250302734375,0.04101264849305153,0.07789740711450577,0.016911059617996216
1773048318136011500,4.135011474609375,0.037816859781742096,-0.07763108611106873,-0.009720530360937119
1773048318145891600,4.1448916015625,0.04101264849305153,-0.014780532568693161,0.0019973693415522575
1773048318155711200,4.154711181640625,0.029294749721884727,0.008655266836285591,-0.005459476262331009
1773048318165891300,4.164891357421875,0.037816859781742096,-0.0009321057004854083,-0.00013315795513335615
1773048318175927800,4.174927734375,0.04314317926764488,-0.0882837250828743,-0.011851058341562748
1773048318185898800,4.184898681640625,0.037816859781742096,0.06617950648069382,0.003062632866203785
1773048318195882500,4.194882568359375,0.0282294861972332,-0.04034686088562012,-0.0011984215816482902
1773048318205855000,4.20485498046875,0.04420844092965126,-0.02756369672715664,-0.012916321866214275
1773048318215837700,4.214837646484375,0.03249054029583931,0.020373167470097542,0.007323687430471182
1773048318225717800,4.2247177734375,0.04527370631694794,-0.053130023181438446,-0.005459476262331009
1773048318245534500,4.244534423828125,0.037816859781742096,-0.004127896390855312,0.004127896390855312
1773048318255497700,4.254497802734375,0.04846949502825737,0.03209106624126434,0.016911059617996216
1773048318265677800,4.264677734375,0.042077913880348206,-0.04673844203352928,-0.00013315795513335615
1773048318275713300,4.27471337890625,0.046338967978954315,0.018242640420794487,0.007323687430471182
1773048318285679600,4.2846796875,0.03994738683104515,0.026764748618006706,0.004127896390855312
1773048318295667200,4.294667236328125,0.04740423336625099,-0.022237379103899002,-0.00013315795513335615
1773048318305635800,4.3046357421875,0.04527370631694794,-0.013715269044041634,0.004127896390855312
1773048318315621600,4.31462158203125,0.03994738683104515,0.0011984215816482902,-0.006524739786982536
1773048318325592000,4.324592041015625,0.04420844092965126,0.047004759311676025,0.012650005519390106
1773048318335576000,4.334576171875,0.04527370631694794,-0.04993423447012901,-0.007590003311634064
1773048318345548300,4.34454833984375,0.04314317926764488,0.043808966875076294,0.005193160381168127
1773048318355531300,4.35453125,0.04314317926764488,0.0043942127376794815,0.004127896390855312
1773048318365504500,4.36450439453125,0.04846949502825737,-0.037151068449020386,-0.011851058341562748
1773048318375486500,4.374486572265625,0.038882121443748474,0.04061317816376686,0.0019973693415522575
1773048318385460700,4.384460693359375,0.04420844092965126,-0.03928159549832344,-0.012916321866214275
1773048318395442000,4.39444189453125,0.042077913880348206,0.012916321866214275,-0.01504684891551733
1773048318405416700,4.404416748046875,0.037816859781742096,-0.0009321057004854083,-0.006524739786982536
1773048318415397400,4.4143974609375,0.04101264849305153,-0.028628960251808167,-0.01717737689614296
1773048318425373000,4.424373046875,0.04420844092965126,0.048070020973682404,0.0019973693415522575
1773048318435353000,4.43435302734375,0.034621067345142365,-0.05419528856873512,-0.01504684891551733
1773048318445329200,4.4443291015625,0.03142527863383293,0.02569948509335518,-0.007590003311634064
1773048318455308800,4.454308837890625,0.03994738683104515,0.0342215932905674,0.012650005519390106
1773048318465285400,4.464285400390625,0.03994738683104515,-0.04673844203352928,-0.012916321866214275
1773048318475264800,4.4742646484375,0.03675159439444542,0.01078579481691122,0.0062584239058196545
1773048318485241600,4.48424169921875,0.02396843209862709,0.020373167470097542,-0.0033289489801973104
1773048318495220700,4.494220703125,0.04314317926764488,-0.03075948730111122,0.003062632866203785
1773048318505197800,4.50419775390625,0.03675159439444542,-0.007323687430471182,-0.0022636852227151394
1773048318515176700,4.5141767578125,0.018642114475369453,0.0033289489801973104,0.003062632866203785
1773048318525153800,4.52415380859375,0.037816859781742096,-0.0552605502307415,0.003062632866203785
1773048318535132700,4.534132568359375,0.034621067345142365,-0.008388951420783997,0.0009321057004854083
1773048318545110000,4.544110107421875,0.027164222672581673,0.0011984215816482902,0.010519478470087051
1773048318555088600,4.554088623046875,0.03994738683104515,-0.07337003201246262,-0.00013315795513335615
1773048318565066200,4.564066162109375,0.03994738683104515,0.02889527566730976,0.008388951420783997
1773048318575044600,4.574044677734375,0.04101264849305153,-0.011584741994738579,0.010519478470087051
1773048318585061000,4.58406103515625,0.038882121443748474,-0.05099949613213539,-0.0043942127376794815
1773048318595043600,4.594043701171875,0.038882121443748474,0.02889527566730976,0.011584741994738579
1773048318604978700,4.603978759765625,0.04420844092965126,-0.028628960251808167,-0.0033289489801973104
1773048318614956000,4.6139560546875,0.038882121443748474,0.03635212033987045,0.012650005519390106
1773048318624934700,4.6239345703125,0.034621067345142365,-0.06591318547725677,-0.01078579481691122
1773048318634912500,4.63391259765625,0.046338967978954315,0.03741738572716713,0.009454214945435524
1773048318644891000,4.643890869140625,0.042077913880348206,0.018242640420794487,0.0062584239058196545
1773048318654868700,4.65386865234375,0.04740423336625099,-0.0552605502307415,0.007323687430471182
1773048318664847000,4.66384716796875,0.04740423336625099,0.0011984215816482902,0.013715269044041634
1773048318674824700,4.67382470703125,0.034621067345142365,0.03635212033987045,-0.0043942127376794815
1773048318684803300,4.68380322265625,0.038882121443748474,0.02996053919196129,0.011584741994738579
1773048318694781200,4.69378125,0.054861076176166534,-0.10426267981529236,0.007323687430471182
1773048318704759300,4.70375927734375,0.058056868612766266,-0.032890014350414276,0.008388951420783997
1773048318714737200,4.713737060546875,0.030360013246536255,0.031025802716612816,-0.007590003311634064
1773048318724715500,4.723715576171875,0.038882121443748474,0.06404897570610046,0.004127896390855312
1773048318734693600,4.733693603515625,0.05699160322546959,-0.06271740049123764,0.022237379103899002
1773048318744671700,4.743671630859375,0.06018739566206932,-0.05419528856873512,-0.0043942127376794815
1773048318754649600,4.753649658203125,0.030360013246536255,0.055526867508888245,0.008388951420783997
1773048318764628000,4.7636279296875,0.030360013246536255,-0.01584579609334469,-0.012916321866214275
1773048318784584000,4.783583984375,0.05273054912686348,-0.10745847225189209,0.010519478470087051
1773048318794562000,4.79356201171875,0.04527370631694794,-0.011584741994738579,-0.023568958044052124
1773048318804540200,4.8035400390625,0.027164222672581673,0.07363634556531906,-0.005459476262331009
1773048318814518300,4.813518310546875,0.03568633273243904,-0.020106852054595947,-0.018242640420794487
1773048318824496400,4.823496337890625,0.03994738683104515,-0.04354264959692955,-0.007590003311634064
1773048318834474500,4.833474609375,0.03675159439444542,0.008655266836285591,-0.02463422156870365
1773048318844452600,4.84345263671875,0.027164222672581673,0.04593949392437935,-0.020373167470097542
1773048318854430500,4.853430419921875,0.029294749721884727,-0.057391077280044556,-0.04167843982577324
1773048318864408600,4.86340869140625,0.029294749721884727,0.012916321866214275,-0.02463422156870365
1773048318874386700,4.87338671875,0.033555805683135986,-0.011584741994738579,-0.03635212033987045
1773048318884364800,4.88336474609375,0.020772641524672508,0.023568958044052124,-0.026764748618006706
1773048318894343000,4.893343017578125,0.01970737800002098,-0.013715269044041634,-0.048070020973682404
1773048318904321000,4.903321044921875,0.029294749721884727,0.0576573945581913,-0.02569948509335518
1773048318914299100,4.913299072265625,0.03675159439444542,-0.05632581561803818,-0.03741738572716713
1773048318924277200,4.92327734375,0.03142527863383293,0.01078579481691122,-0.042743705213069916
1773048318934255400,4.93325537109375,0.026098959147930145,0.07257108390331268,-0.0342215932905674
1773048318944233200,4.943233154296875,0.03994738683104515,-0.04034686088562012,-0.03741738572716713
1773048318954211300,4.95321142578125,0.034621067345142365,0.006524739786982536,-0.02996053919196129
1773048318964189400,4.963189453125,0.030360013246536255,0.03209106624126434,-0.027830012142658234
1773048318974167600,4.97316748046875,0.0282294861972332,0.04487423226237297,-0.016112113371491432
1773048318984145700,4.983145751953125,0.027164222672581673,-0.012650005519390106,-0.02889527566730976
1773048318994123800,4.993123779296875,0.034621067345142365,0.03848264738917351,-0.016112113371491432
1773048319004102000,5.003101806640625,0.03142527863383293,-0.008388951420783997,-0.019307903945446014
1773048319014080000,5.013080078125,0.042077913880348206,-0.02649843320250511,-0.019307903945446014
1773048319024057900,5.023057861328125,0.033555805683135986,0.035286858677864075,-0.018242640420794487
1773048319034036000,5.033035888671875,0.0282294861972332,0.02463422156870365,-0.02143843099474907
1773048319044014000,5.04301416015625,0.038882121443748474,-0.014780532568693161,-0.011851058341562748
1773048319053992200,5.0529921875,0.037816859781742096,-0.003062632866203785,-0.022503694519400597
1773048319063970300,5.06297021484375,0.029294749721884727,0.04061317816376686,-0.012916321866214275
1773048319073948400,5.072948486328125,0.03675159439444542,-0.06378266215324402,-0.02569948509335518
1773048319083926500,5.082926513671875,0.03249054029583931,0.018242640420794487,-0.02143843099474907
1773048319093904600,5.092904541015625,0.03249054029583931,-0.0019973693415522575,-0.018242640420794487
1773048319103882500,5.102882568359375,0.034621067345142365,-0.0648479238152504,-0.027830012142658234
1773048319113860600,5.112860595703125,0.021837905049324036,0.07044056057929993,-0.012916321866214275
1773048319123800000,5.122800048828125,0.03142527863383293,-0.005193160381168127,-0.013981585390865803
1773048319133774000,5.132774169921875,0.03142527863383293,-0.017976323142647743,-0.02463422156870365
1773048319143795000,5.142794921875,0.037816859781742096,0.03315633162856102,-0.005459476262331009
1773048319153773800,5.15277392578125,0.033555805683135986,-0.02756369672715664,-0.02996053919196129
1773048319163712300,5.162712158203125,0.022903168573975563,0.07257108390331268,-0.009720530360937119
1773048319173687000,5.17268701171875,0.03249054029583931,-0.041412122547626495,-0.009720530360937119
1773048319183707100,5.18270703125,0.033555805683135986,-0.005193160381168127,-0.02143843099474907
1773048319193686500,5.1926865234375,0.029294749721884727,0.04593949392437935,-0.0033289489801973104
1773048319203624400,5.20262451171875,0.033555805683135986,-0.05845634266734123,-0.01717737689614296
1773048319213599700,5.212599853515625,0.029294749721884727,0.016112113371491432,-0.006524739786982536
1773048319223580700,5.22258056640625,0.038882121443748474,-0.0019973693415522575,-0.0022636852227151394
1773048319243537000,5.242536865234375,0.025033695623278618,-0.010519478470087051,-0.011851058341562748
1773048319253513200,5.25251318359375,0.033555805683135986,0.02889527566730976,0.0019973693415522575
1773048319263531800,5.26253173828125,0.037816859781742096,-0.04460791498422623,-0.0022636852227151394
1773048319273512400,5.272512451171875,0.03994738683104515,-0.037151068449020386,0.013715269044041634
1773048319283488000,5.282488037109375,0.03568633273243904,-0.03075948730111122,-0.005459476262331009
1773048319293468000,5.292468017578125,0.02396843209862709,0.07257108390331268,0.004127896390855312
1773048319303405300,5.3024052734375,0.029294749721884727,-0.0318247526884079,0.0019973693415522575
1773048319313381000,5.312381103515625,0.04420844092965126,-0.07123950868844986,0.004127896390855312
1773048319323284000,5.322283935546875,0.030360013246536255,0.012916321866214275,-0.005459476262331009
1773048319333252400,5.33225244140625,0.026098959147930145,0.02569948509335518,-0.012916321866214275
1773048319343240000,5.342239990234375,0.0282294861972332,-0.017976323142647743,-0.007590003311634064
1773048319353210400,5.35221044921875,0.037816859781742096,-0.0786963477730751,-0.005459476262331009
1773048319363157200,5.3621572265625,0.037816859781742096,0.03741738572716713,-0.0043942127376794815
1773048319373125400,5.37212548828125,0.021837905049324036,-0.07017423957586288,-0.026764748618006706
1773048319383074600,5.382074462890625,0.01438105944544077,0.07257108390331268,-0.023568958044052124
1773048319393041000,5.392041015625,0.03142527863383293,0.02463422156870365,0.0009321057004854083
1773048319402953200,5.401953125,0.03994738683104515,-0.1585911214351654,-0.02569948509335518
1773048319412914000,5.411913818359375,0.025033695623278618,0.08002793043851852,-0.01504684891551733
1773048319422909200,5.4219091796875,0.01651158556342125,0.02143843099474907,-0.027830012142658234
1773048319432873500,5.43187353515625,0.026098959147930145,-0.021172115579247475,-0.023568958044052124
1773048319442826500,5.441826416015625,0.025033695623278618,-0.004127896390855312,-0.01078579481691122
1773048319452789500,5.45178955078125,0.033555805683135986,0.0022636852227151394,-0.020373167470097542
1773048319462743800,5.461743896484375,0.018642114475369453,0.06191844865679741,-0.01504684891551733
1773048319472706000,5.4717060546875,0.011185267940163612,0.0022636852227151394,-0.03209106624126434
1773048319482661000,5.4816611328125,0.030360013246536255,0.07683213800191879,-0.0022636852227151394
1773048319492622600,5.49162255859375,0.03249054029583931,-0.07656582444906235,-0.009720530360937119
1773048319502578400,5.501578369140625,0.017576850950717926,0.018242640420794487,-0.007590003311634064
1773048319512539400,5.511539306640625,0.00798947736620903,0.08535424619913101,-0.005459476262331009
1773048319522457000,5.52145703125,0.021837905049324036,0.0342215932905674,-0.00013315795513335615
1773048319532413700,5.53141357421875,0.04420844092965126,-0.09361004084348679,0.01904158666729927
1773048319542413000,5.5414130859375,0.033555805683135986,-0.04354264959692955,-0.008655266836285591
1773048319552373800,5.551373779296875,0.017576850950717926,0.13648690283298492,0.017976323142647743
1773048319562291700,5.561291748046875,0.01225053146481514,-0.057391077280044556,0.0019973693415522575
1773048319572248300,5.571248291015625,0.03675159439444542,-0.04780370742082596,0.01584579609334469
1773048319582170400,5.58117041015625,0.0282294861972332,0.01717737689614296,0.025433169677853584
1773048319592123600,5.59112353515625,0.02396843209862709,-0.03821633383631706,-0.0011984215816482902
1773048319602087400,5.60108740234375,0.01651158556342125,0.07683213800191879,0.02330264262855053
1773048319612041700,5.611041748046875,0.020772641524672508,-0.03502054139971733,0.013715269044041634
1773048319622043100,5.621043212890625,0.04101264849305153,-0.04247738793492317,0.024367906153202057
1773048319632002300,5.631002197265625,0.021837905049324036,-0.03821633383631706,0.005193160381168127
1773048319642182100,5.64118212890625,-0.006924213841557503,0.07257108390331268,-0.0011984215816482902
1773048319652362200,5.6513623046875,0.013315795920789242,0.04913528636097908,0.01904158666729927
1773048319662542300,5.661542236328125,0.03675159439444542,-0.09254477918148041,0.016911059617996216
1773048319672653000,5.671653076171875,0.022903168573975563,-0.05632581561803818,0.01584579609334469
1773048319682610700,5.681610595703125,-0.0005326318205334246,0.0810931921005249,-0.00013315795513335615
1773048319692605200,5.691605224609375,-0.006924213841557503,0.06937529146671295,0.003062632866203785
1773048319702567200,5.701567138671875,0.027164222672581673,-0.0456731803715229,0.032890014350414276
1773048319712558300,5.711558349609375,0.025033695623278618,-0.12237215787172318,0.009454214945435524
1773048319722523400,5.7215234375,-0.002663159044459462,0.1237037405371666,0.009454214945435524
1773048319732512000,5.731511962890625,-0.013315795920789242,0.04167843982577324,0.013715269044041634
1773048319742479600,5.741479736328125,0.018642114475369453,-0.07976161688566208,0.008388951420783997
1773048319752466000,5.7514658203125,0.018642114475369453,-0.029694223776459694,0.03075948730111122
1773048319762435800,5.761435791015625,-0.009054740890860558,-0.022237379103899002,-0.006524739786982536
1773048319772420600,5.771420654296875,-0.01225053146481514,0.1002679392695427,0.008388951420783997
1773048319782392000,5.78139208984375,0.0015978955198079348,-0.04247738793492317,0.004127896390855312
1773048319792375600,5.79137548828125,0.018642114475369453,-0.06591318547725677,0.014780532568693161
1773048319802348000,5.80134814453125,0.004793686326593161,-0.041412122547626495,0.004127896390855312
1773048319812330500,5.81133056640625,-0.01438105944544077,0.07896266877651215,-0.011851058341562748
1773048319822304300,5.82130419921875,-0.005858949851244688,0.03635212033987045,0.007323687430471182
1773048319832286000,5.831285888671875,0.018642114475369453,-0.10000162571668625,0.0062584239058196545
1773048319842165800,5.841165771484375,0.01225053146481514,-0.01904158666729927,0.0019973693415522575
1773048319852045800,5.8510458984375,-0.00798947736620903,0.06511423736810684,-0.009720530360937119
1773048319862216700,5.861216796875,-0.006924213841557503,0.05020054802298546,-0.013981585390865803
1773048319872203000,5.871203125,0.015446322970092297,-0.04354264959692955,0.003062632866203785
1773048319882083000,5.8810830078125,0.015446322970092297,-0.05206476151943207,-0.0011984215816482902
1773048319891901700,5.890901611328125,-0.01225053146481514,0.039547912776470184,-0.01717737689614296
1773048319902081500,5.90108154296875,-0.01225053146481514,0.12903006374835968,0.0019973693415522575
1773048319912117500,5.911117431640625,0.0037284228019416332,-0.03821633383631706,-0.0043942127376794815
1773048319922085000,5.921085205078125,0.027164222672581673,-0.07656582444906235,0.007323687430471182
1773048319932071400,5.931071533203125,-0.0037284228019416332,0.06617950648069382,-0.007590003311634064
1773048319942080300,5.941080322265625,-0.015446322970092297,0.09707214683294296,-0.009720530360937119
1773048319952068900,5.95106884765625,0.004793686326593161,0.02463422156870365,0.012650005519390106
1773048319961997600,5.96099755859375,0.021837905049324036,-0.11598058044910431,0.0062584239058196545
1773048319971980300,5.970980224609375,-0.0037284228019416332,0.058722659945487976,-0.006524739786982536
1773048319981860000,5.980860107421875,-0.006924213841557503,0.09600688517093658,0.003062632866203785
1773048319991679700,5.9906796875,-0.002663159044459462,-0.0062584239058196545,-0.00013315795513335615
1773048320001859600,6.000859619140625,0.020772641524672508,-0.08508793264627457,0.01904158666729927
1773048320011895800,6.010895751953125,-0.004793686326593161,0.031025802716612816,0.003062632866203785
1773048320021866000,6.020865966796875,-0.015446322970092297,0.10346373170614243,0.009454214945435524
1773048320031850500,6.0308505859375,0.00798947736620903,-0.007323687430471182,0.02756369672715664
1773048320041822200,6.040822265625,0.00798947736620903,-0.11385004967451096,0.004127896390855312
1773048320051805400,6.050805419921875,0.0015978955198079348,0.06085318699479103,0.016911059617996216
1773048320061778200,6.060778076171875,-0.018642114475369453,0.058722659945487976,0.0019973693415522575
1773048320071760400,6.070760498046875,-0.0037284228019416332,-0.0318247526884079,0.0009321057004854083
1773048320081640400,6.080640380859375,0.00798947736620903,-0.08082687854766846,0.01584579609334469
1773048320091460000,6.090460205078125,-0.01225053146481514,0.055526867508888245,-0.005459476262331009
1773048320101640200,6.10064013671875,-0.00798947736620903,0.02889527566730976,-0.0011984215816482902
1773048320111676400,6.110676513671875,-0.0005326318205334246,-0.013715269044041634,-0.0033289489801973104
1773048320121646600,6.120646484375,0.010120004415512085,-0.06058686971664429,0.01904158666729927
1773048320131631000,6.130631103515625,-0.004793686326593161,0.011851058341562748,-0.0043942127376794815
1773048320141603000,6.14060302734375,-0.011185267940163612,0.07576687633991241,0.008388951420783997
1773048320151586000,6.1505859375,0.0015978955198079348,-0.020106852054595947,0.0009321057004854083
1773048320161466000,6.160466064453125,0.015446322970092297,-0.0648479238152504,0.01904158666729927
1773048320171285500,6.170285400390625,-0.002663159044459462,0.022503694519400597,-0.0033289489801973104
1773048320181465300,6.18046533203125,-0.010120004415512085,0.09281109273433685,0.012650005519390106
1773048320191501600,6.19050146484375,0.0005326318205334246,-0.08082687854766846,0.0009321057004854083
1773048320201471200,6.20047119140625,0.011185267940163612,-0.03928159549832344,0.013715269044041634
1773048320211456300,6.210456298828125,-0.005858949851244688,0.03635212033987045,0.007323687430471182
1773048320221427700,6.220427734375,-0.002663159044459462,0.01717737689614296,0.003062632866203785
1773048320231411000,6.230410888671875,0.0015978955198079348,-0.03821633383631706,0.011584741994738579
1773048320241383700,6.2403837890625,0.005858949851244688,-0.06058686971664429,0.01584579609334469
1773048320251366100,6.2503662109375,-0.009054740890860558,0.02889527566730976,-0.0033289489801973104
1773048320261340000,6.26033984375,-0.002663159044459462,0.04913528636097908,0.016911059617996216
1773048320271321300,6.2703212890625,0.00798947736620903,-0.09361004084348679,0.003062632866203785
1773048320281296100,6.280296142578125,0.0037284228019416332,-0.013715269044041634,-0.00013315795513335615
1773048320291277000,6.290277099609375,-0.004793686326593161,0.06298371404409409,0.0009321057004854083
1773048320301252400,6.30025244140625,-0.0037284228019416332,-0.02649843320250511,-0.008655266836285591
1773048320311232500,6.310232421875,0.004793686326593161,-0.03075948730111122,0.009454214945435524
1773048320321112600,6.320112548828125,-0.0005326318205334246,0.007590003311634064,-0.007590003311634064
1773048320330932500,6.329932373046875,-0.004793686326593161,0.07044056057929993,-0.006524739786982536
1773048320340931800,6.339931884765625,0.002663159044459462,-0.0019973693415522575,0.004127896390855312
1773048320350892800,6.349892822265625,0.0037284228019416332,-0.0786963477730751,-0.008655266836285591
1773048320361072600,6.36007275390625,-0.004793686326593161,0.09174583107233047,0.0019973693415522575
1773048320371108600,6.370108642578125,-0.010120004415512085,0.04167843982577324,-0.007590003311634064
1773048320381076700,6.38007666015625,0.009054740890860558,-0.0318247526884079,0.0019973693415522575
1773048320391062800,6.390062744140625,0.006924213841557503,-0.04354264959692955,-0.0033289489801973104
1773048320401033000,6.400032958984375,-0.011185267940163612,0.09707214683294296,-0.005459476262331009
1773048320411017500,6.410017578125,-0.002663159044459462,0.031025802716612816,0.005193160381168127
1773048320420989200,6.4199892578125,0.005858949851244688,-0.08615319430828094,-0.0033289489801973104
1773048320430972400,6.429972412109375,-0.0015978955198079348,0.058722659945487976,-0.00013315795513335615
1773048320440945400,6.4399453125,-0.0005326318205334246,0.02143843099474907,-0.008655266836285591
1773048320450927600,6.449927734375,0.004793686326593161,0.05233107507228851,0.003062632866203785
1773048320460901600,6.459901611328125,-0.0037284228019416332,-0.057391077280044556,0.005193160381168127
1773048320470882800,6.4698828125,0.002663159044459462,0.043808966875076294,-0.00013315795513335615
1773048320480857900,6.47985791015625,-0.005858949851244688,0.08748477697372437,0.005193160381168127
1773048320490838500,6.489838623046875,-0.0015978955198079348,-0.03928159549832344,0.0062584239058196545
1773048320500813800,6.499813720703125,0.004793686326593161,-0.03928159549832344,-0.0033289489801973104
1773048320510794000,6.5097939453125,-0.004793686326593161,0.10559425503015518,0.011584741994738579
1773048320520770000,6.51977001953125,-0.011185267940163612,-0.011584741994738579,0.003062632866203785
1773048320530750000,6.52975,-0.0005326318205334246,-0.07017423957586288,0.003062632866203785
1773048320540726300,6.539726318359375,-0.006924213841557503,0.07576687633991241,0.0062584239058196545
1773048320550705700,6.54970556640625,-0.0005326318205334246,0.031025802716612816,0.0009321057004854083
1773048320560682500,6.5596826171875,0.002663159044459462,-0.07763108611106873,-0.006524739786982536
1773048320570661600,6.56966162109375,-0.01225053146481514,0.023568958044052124,-0.005459476262331009
1773048320580638700,6.579638671875,-0.004793686326593161,0.043808966875076294,0.0062584239058196545
1773048320590617600,6.58961767578125,0.0005326318205334246,-0.028628960251808167,-0.0022636852227151394
1773048320600595000,6.599594970703125,-0.0037284228019416332,0.00013315795513335615,0.0009321057004854083
1773048320610573600,6.609573486328125,-0.002663159044459462,0.020373167470097542,-0.00013315795513335615
1773048320620551000,6.619551025390625,-0.006924213841557503,0.018242640420794487,0.0009321057004854083
1773048320630529800,6.62952978515625,0.006924213841557503,-0.0552605502307415,0.004127896390855312
1773048320640409600,6.63940966796875,-0.013315795920789242,0.006524739786982536,-0.009720530360937119
1773048320650230000,6.64922998046875,-0.00798947736620903,0.06191844865679741,0.011584741994738579
1773048320660230400,6.65923046875,0.005858949851244688,-0.07337003201246262,0.007323687430471182
1773048320670190300,6.6691904296875,0.0037284228019416332,-0.0456731803715229,-0.0043942127376794815
1773048320680370400,6.679370361328125,-0.015446322970092297,0.10239847004413605,0.007323687430471182
1773048320690406400,6.689406494140625,-0.005858949851244688,0.006524739786982536,0.021172115579247475
1773048320700375600,6.69937548828125,0.01651158556342125,-0.11917637288570404,0.007323687430471182
1773048320710360800,6.70936083984375,0.010120004415512085,0.047004759311676025,-0.0011984215816482902
1773048320720331800,6.719331787109375,-0.013315795920789242,0.09920267760753632,0.01904158666729927
1773048320730315800,6.729315673828125,0.005858949851244688,-0.09574057161808014,0.0062584239058196545
1773048320740195600,6.739195556640625,0.01651158556342125,-0.037151068449020386,0.005193160381168127
1773048320750015000,6.749014892578125,-0.006924213841557503,0.09600688517093658,0.007323687430471182
1773048320760011300,6.75901123046875,0.005858949851244688,-0.022237379103899002,0.0062584239058196545
1773048320769974500,6.768974609375,0.004793686326593161,-0.061652131378650665,0.008388951420783997
1773048320779967200,6.77896728515625,-0.0015978955198079348,0.03209106624126434,0.005193160381168127
1773048320789933600,6.78893359375,-0.004793686326593161,0.042743705213069916,0.008388951420783997
1773048320800113400,6.799113525390625,0.0015978955198079348,-0.01904158666729927,0.010519478470087051
1773048320810148600,6.809148681640625,0.01225053146481514,-0.053130023181438446,0.011584741994738579
1773048320820112400,6.8191123046875,-0.005858949851244688,0.08855003863573074,0.0009321057004854083
1773048320830102000,6.82910205078125,-0.004793686326593161,0.02143843099474907,0.020106852054595947
1773048320840068600,6.839068603515625,0.005858949851244688,-0.06697845458984375,0.011584741994738579
1773048320850056000,6.849055908203125,0.0037284228019416332,0.04593949392437935,0.011584741994738579
1773048320860024800,6.85902490234375,-0.004793686326593161,0.06617950648069382,0.011584741994738579
1773048320870010400,6.86901025390625,0.002663159044459462,-0.005193160381168127,0.022237379103899002
1773048320879981000,6.87898095703125,0.004793686326593161,-0.03608580678701401,0.012650005519390106
1773048320889965000,6.888965087890625,-0.004793686326593161,0.08535424619913101,0.02330264262855053
1773048320899937500,6.8989375,-0.004793686326593161,-0.013715269044041634,0.0062584239058196545
1773048320909920300,6.908920166015625,0.005858949851244688,-0.017976323142647743,0.029694223776459694
1773048320919893500,6.9188935546875,-0.004793686326593161,-0.0019973693415522575,0.0009321057004854083
1773048320929875500,6.92887548828125,-0.005858949851244688,0.047004759311676025,0.02330264262855053
1773048320939849700,6.938849609375,-0.004793686326593161,-0.08295740932226181,0.007323687430471182
1773048320949831000,6.948830810546875,-0.0005326318205334246,0.03635212033987045,0.010519478470087051
1773048320959806000,6.958805908203125,-0.0015978955198079348,0.011851058341562748,0.008388951420783997
1773048320969786600,6.96878662109375,0.002663159044459462,-0.028628960251808167,0.008388951420783997
1773048320979762200,6.97876220703125,-0.004793686326593161,-0.010519478470087051,0.004127896390855312
1773048320989742300,6.988742431640625,-0.0005326318205334246,0.06511423736810684,0.004127896390855312
1773048320999718400,6.998718505859375,0.002663159044459462,0.005459476262331009,0.005193160381168127
1773048321009698000,7.008697998046875,0.0005326318205334246,-0.041412122547626495,0.0009321057004854083
1773048321019713500,7.018713623046875,0.0037284228019416332,0.07576687633991241,0.005193160381168127
1773048321029696800,7.02869677734375,-0.011185267940163612,0.042743705213069916,0.0009321057004854083
1773048321039630800,7.038630859375,0.0015978955198079348,-0.03395527973771095,0.008388951420783997
1773048321049609200,7.048609130859375,0.00798947736620903,0.005459476262331009,0.0019973693415522575
1773048321059587000,7.058587158203125,-0.010120004415512085,0.114116370677948,0.016911059617996216
1773048321069565400,7.0685654296875,0.0037284228019416332,-0.04993423447012901,0.008388951420783997
1773048321079543300,7.078543212890625,-0.005858949851244688,-0.017976323142647743,-0.009720530360937119
1773048321089521700,7.088521728515625,-0.0005326318205334246,0.08641951531171799,0.005193160381168127
1773048321099499500,7.09849951171875,0.0005326318205334246,-0.04247738793492317,0.011584741994738579
1773048321109478000,7.108477783203125,0.006924213841557503,-0.0456731803715229,-0.005459476262331009
1773048321119455700,7.118455810546875,-0.004793686326593161,0.09387636184692383,0.01904158666729927
1773048321129433900,7.128433837890625,0.0015978955198079348,-0.020106852054595947,0.0019973693415522575
1773048321139412000,7.138411865234375,0.0037284228019416332,-0.04993423447012901,0.005193160381168127
1773048321149390000,7.14839013671875,-0.0015978955198079348,0.06617950648069382,0.008388951420783997
1773048321159270100,7.158270263671875,0.00798947736620903,-0.01584579609334469,0.01904158666729927
1773048321169090600,7.168090576171875,-0.011185267940163612,0.00013315795513335615,-0.0011984215816482902
1773048321179091500,7.178091552734375,-0.002663159044459462,0.048070020973682404,0.014780532568693161
1773048321189051100,7.188051025390625,0.009054740890860558,-0.011584741994738579,0.011584741994738579
1773048321199231200,7.198231201171875,0.0015978955198079348,-0.005193160381168127,0.0019973693415522575
1773048321209267200,7.20826708984375,-0.009054740890860558,0.04913528636097908,0.003062632866203785
1773048321219236600,7.218236572265625,0.0037284228019416332,-0.016911059617996216,0.0062584239058196545
1773048321229222000,7.228221923828125,-0.004793686326593161,0.039547912776470184,-0.0033289489801973104
1773048321239192800,7.23819287109375,-0.002663159044459462,-0.0009321057004854083,0.0019973693415522575
1773048321249176600,7.248176513671875,-0.0005326318205334246,0.008655266836285591,-0.009720530360937119
1773048321259056600,7.258056640625,0.005858949851244688,0.00013315795513335615,-0.0022636852227151394
1773048321268876000,7.2678759765625,-0.00798947736620903,0.026764748618006706,-0.007590003311634064
1773048321279056000,7.278055908203125,-0.017576850950717926,-0.004127896390855312,-0.0043942127376794815
1773048321289092000,7.288092041015625,0.011185267940163612,-0.048868969082832336,-0.0011984215816482902
1773048321299061500,7.2980615234375,-0.0037284228019416332,0.05446160212159157,-0.016112113371491432
1773048321309046800,7.308046875,-0.029294749721884727,0.03315633162856102,0.008388951420783997
1773048321319056600,7.318056640625,0.005858949851244688,-0.11385004967451096,-0.006524739786982536
1773048321329044200,7.328044189453125,-0.00798947736620903,0.06298371404409409,-0.011851058341562748
1773048321338974000,7.337973876953125,-0.01438105944544077,0.04487423226237297,-0.0043942127376794815
1773048321348956000,7.347955810546875,0.009054740890860558,-0.08615319430828094,0.01584579609334469
1773048321358930200,7.35793017578125,-0.006924213841557503,-0.06271740049123764,-0.02889527566730976
1773048321368911400,7.367911376953125,-0.013315795920789242,0.19294588267803192,0.013715269044041634
1773048321378791400,7.37779150390625,0.004793686326593161,-0.13302479684352875,0.012650005519390106
1773048321388611300,7.387611328125,0.005858949851244688,0.016112113371491432,0.0009321057004854083
1773048321398791200,7.397791259765625,-0.010120004415512085,0.06404897570610046,0.01584579609334469
1773048321408828000,7.407827880859375,-0.011185267940163612,0.007590003311634064,0.0009321057004854083
1773048321418798800,7.417798828125,0.0015978955198079348,-0.01584579609334469,0.017976323142647743
1773048321428782800,7.427782958984375,0.002663159044459462,0.020373167470097542,0.02330264262855053
1773048321438755000,7.437755126953125,0.0005326318205334246,-0.0009321057004854083,0.012650005519390106
1773048321448737800,7.44773779296875,-0.01225053146481514,0.0715058222413063,0.02756369672715664
1773048321458617900,7.457617919921875,0.002663159044459462,-0.014780532568693161,0.02330264262855053
1773048321468437500,7.4674375,0.002663159044459462,-0.06697845458984375,-0.0022636852227151394
1773048321478434800,7.477434814453125,-0.011185267940163612,0.09707214683294296,0.005193160381168127
1773048321488397300,7.487397216796875,0.002663159044459462,-0.011584741994738579,0.004127896390855312
1773048321498577400,7.497577392578125,0.0005326318205334246,-0.10319741815328598,-0.01078579481691122
1773048321508613000,7.507613037109375,0.0005326318205334246,0.059787921607494354,-0.013981585390865803
1773048321518580000,7.517580078125,-0.005858949851244688,0.03315633162856102,0.004127896390855312
1773048321528567000,7.527567138671875,0.010120004415512085,-0.10745847225189209,-0.006524739786982536
1773048321538458600,7.537458740234375,-0.005858949851244688,0.07576687633991241,-0.006524739786982536
1773048321548436000,7.54743603515625,-0.01438105944544077,0.09600688517093658,0.007323687430471182
1773048321558492400,7.557492431640625,0.01651158556342125,-0.11704584211111069,-0.006524739786982536
1773048321568478000,7.56747802734375,-0.009054740890860558,0.07257108390331268,-0.02143843099474907
1773048321578449000,7.577448974609375,-0.015446322970092297,0.08322372287511826,0.0019973693415522575
1773048321588433000,7.587432861328125,0.0005326318205334246,-0.0552605502307415,-0.009720530360937119
1773048321598405000,7.597405029296875,0.0005326318205334246,-0.0062584239058196545,-0.01078579481691122
1773048321608387800,7.607387939453125,-0.0037284228019416332,0.0576573945581913,0.010519478470087051
1773048321618361300,7.617361328125,-0.0037284228019416332,-0.03928159549832344,-0.01504684891551733
1773048321628343300,7.62734326171875,-0.0005326318205334246,0.09813741594552994,0.01584579609334469
1773048321638317600,7.637317626953125,0.0005326318205334246,-0.06697845458984375,0.012650005519390106
1773048321648298800,7.647298828125,0.00798947736620903,0.02569948509335518,0.004127896390855312
1773048321658274000,7.657274169921875,-0.018642114475369453,0.051265813410282135,0.01904158666729927
1773048321668254500,7.66725439453125,0.0015978955198079348,-0.03075948730111122,0.005193160381168127
1773048321678230300,7.677230224609375,-0.0005326318205334246,-0.03075948730111122,0.0062584239058196545
1773048321688210200,7.687210205078125,-0.020772641524672508,0.06511423736810684,-0.006524739786982536
1773048321698186500,7.6971865234375,0.002663159044459462,-0.041412122547626495,0.0062584239058196545
1773048321708166100,7.707166259765625,0.005858949851244688,-0.021172115579247475,-0.0043942127376794815
1773048321718181600,7.717181640625,-0.018642114475369453,0.03741738572716713,-0.005459476262331009
1773048321728164900,7.727164794921875,0.005858949851244688,-0.004127896390855312,0.016911059617996216
1773048321738045000,7.737044921875,-0.0005326318205334246,-0.03928159549832344,-0.01078579481691122
1773048321747925000,7.746925048828125,-0.013315795920789242,0.11092057824134827,0.02330264262855053
1773048321758055200,7.75705517578125,0.005858949851244688,-0.1117195263504982,0.007323687430471182
1773048321768038700,7.76703857421875,0.005858949851244688,0.09281109273433685,-0.0043942127376794815
1773048321778011400,7.777011474609375,-0.03675159439444542,0.058722659945487976,0.024367906153202057
1773048321787993900,7.786993896484375,0.01651158556342125,-0.13622058928012848,0.0062584239058196545
1773048321797967600,7.796967529296875,0.018642114475369453,0.07257108390331268,-0.0342215932905674
1773048321807949300,7.80694921875,-0.0708400309085846,0.0906805694103241,0.013715269044041634
1773048321817924000,7.816924072265625,0.03994738683104515,-0.17137429118156433,0.0009321057004854083
1773048321827904800,7.82690478515625,-0.01225053146481514,0.047004759311676025,-0.009720530360937119
1773048321837880300,7.83688037109375,-0.021837905049324036,0.0810931921005249,-0.00013315795513335615
1773048321847860700,7.84686083984375,0.009054740890860558,-0.05632581561803818,0.017976323142647743
1773048321857740800,7.85674072265625,0.020772641524672508,-0.09680583328008652,0.0062584239058196545
1773048321867560700,7.866560791015625,-0.020772641524672508,0.11518163233995438,-0.008655266836285591
1773048321877740800,7.87674072265625,0.002663159044459462,0.0022636852227151394,0.0318247526884079
1773048321887777500,7.886777587890625,0.01225053146481514,-0.05845634266734123,0.020106852054595947
1773048321897749000,7.8967490234375,-0.004793686326593161,-0.010519478470087051,0.005193160381168127
1773048321907732500,7.906732421875,-0.0037284228019416332,0.04061317816376686,0.0009321057004854083
1773048321917705500,7.91670556640625,-0.0015978955198079348,0.02463422156870365,0.008388951420783997
1773048321927687700,7.926687744140625,0.009054740890860558,-0.061652131378650665,0.0062584239058196545
1773048321937567700,7.936567626953125,-0.010120004415512085,0.03315633162856102,0.0009321057004854083
1773048321947387400,7.946387451171875,-0.0015978955198079348,0.043808966875076294,0.013715269044041634
1773048321957567500,7.9565673828125,0.015446322970092297,-0.04993423447012901,0.0318247526884079
1773048321967603700,7.966603759765625,0.002663159044459462,-0.029694223776459694,-0.01504684891551733
1773048321977574100,7.97657421875,-0.029294749721884727,0.13968269526958466,0.037151068449020386
1773048321987558400,7.986558349609375,0.004793686326593161,-0.16604797542095184,0.01584579609334469
1773048321997530400,7.9965302734375,0.005858949851244688,0.06617950648069382,-0.018242640420794487
1773048322007513600,8.006513671875,-0.04420844092965126,0.06511423736810684,0.016911059617996216
1773048322017486800,8.01648681640625,-0.004793686326593161,-0.1777658760547638,-0.007590003311634064
1773048322027469000,8.026468994140625,-0.011185267940163612,0.10772478580474854,-0.018242640420794487
1773048322037443000,8.036443115234375,-0.02396843209862709,0.039547912776470184,0.014780532568693161
1773048322047424500,8.046424560546875,-0.005858949851244688,-0.13622058928012848,-0.019307903945446014
1773048322057304300,8.05630419921875,-0.005858949851244688,0.1002679392695427,-0.013981585390865803
1773048322067124200,8.066124267578125,-0.017576850950717926,-0.03395527973771095,0.025433169677853584
1773048322077122800,8.076122802734375,0.009054740890860558,-0.10000162571668625,-0.023568958044052124
1773048322087084500,8.08608447265625,-0.01225053146481514,0.13648690283298492,0.009454214945435524
1773048322097264400,8.096264404296875,-0.01438105944544077,-0.12237215787172318,0.012650005519390106
1773048322107300400,8.10630029296875,0.005858949851244688,0.04061317816376686,0.0019973693415522575
1773048322117268000,8.11626806640625,-0.018642114475369453,0.022503694519400597,0.010519478470087051
1773048322127254500,8.126254638671876,-0.0005326318205334246,-0.06697845458984375,-0.01078579481691122
1773048322137134600,8.136134521484376,0.0015978955198079348,0.07363634556531906,0.025433169677853584
1773048322146953500,8.145953369140624,-0.01438105944544077,-0.10852373391389847,-0.011851058341562748
1773048322156931600,8.155931640625,0.009054740890860558,0.0810931921005249,0.020106852054595947
1773048322167111400,8.166111328125,0.002663159044459462,0.005459476262331009,0.016911059617996216
1773048322177147400,8.1761474609375,0.0015978955198079348,-0.04460791498422623,0.003062632866203785
1773048322187115000,8.186114990234374,0.005858949851244688,0.0672447681427002,0.024367906153202057
1773048322197101600,8.1961015625,0.006924213841557503,-0.0062584239058196545,-0.0043942127376794815
1773048322206981600,8.205981689453125,-0.0037284228019416332,-0.011584741994738579,-0.013981585390865803
1773048322216800300,8.21580029296875,-0.00798947736620903,0.04167843982577324,0.003062632866203785
1773048322226794800,8.225794677734376,0.004793686326593161,-0.09147951751947403,-0.022503694519400597
1773048322236759800,8.235759765625,-0.0005326318205334246,0.05233107507228851,-0.012916321866214275
1773048322246939600,8.245939697265625,-0.01651158556342125,0.022503694519400597,0.004127896390855312
1773048322256975000,8.25597509765625,0.0037284228019416332,-0.06058686971664429,-0.01078579481691122
1773048322266940200,8.265940185546874,0.0005326318205334246,0.0022636852227151394,-0.0011984215816482902
1773048322276928800,8.2759287109375,-0.006924213841557503,0.0576573945581913,0.004127896390855312
1773048322286808800,8.285808837890626,0.0037284228019416332,-0.09467530250549316,-0.01078579481691122
1773048322296627200,8.295627197265626,-0.00798947736620903,0.06404897570610046,-0.008655266836285591
1773048322306619600,8.30561962890625,-0.011185267940163612,-0.08508793264627457,-0.007590003311634064
1773048322316586200,8.315586181640626,-0.005858949851244688,-0.04460791498422623,-0.019307903945446014
1773048322326766000,8.32576611328125,-0.027164222672581673,0.05339634045958519,0.0019973693415522575
1773048322336801300,8.33580126953125,-0.009054740890860558,-0.06697845458984375,0.008388951420783997
1773048322346765300,8.345765380859374,-0.013315795920789242,-0.053130023181438446,0.011584741994738579
1773048322356755000,8.3557548828125,-0.01651158556342125,0.06404897570610046,-0.011851058341562748
1773048322366721500,8.365721435546876,-0.0015978955198079348,-0.0456731803715229,0.009454214945435524
1773048322376708900,8.375708984375,-0.010120004415512085,-0.06378266215324402,-0.013981585390865803
1773048322386589000,8.3855888671875,0.0037284228019416332,0.03741738572716713,0.008388951420783997
1773048322396407600,8.395407470703125,0.005858949851244688,-0.0019973693415522575,-0.0043942127376794815
1773048322406401300,8.4054013671875,-0.037816859781742096,0.00013315795513335615,-0.013981585390865803
1773048322426547000,8.425546875,-0.002663159044459462,0.055526867508888245,0.0019973693415522575
1773048322436582100,8.43558203125,-0.009054740890860558,-0.02330264262855053,-0.009720530360937119
1773048322446462200,8.445462158203124,-0.009054740890860558,-0.017976323142647743,-0.027830012142658234
1773048322456279800,8.45527978515625,-0.01225053146481514,0.04593949392437935,-0.013981585390865803
1773048322466460000,8.4654599609375,0.004793686326593161,-0.04354264959692955,-0.016112113371491432
1773048322476495000,8.4754951171875,0.0015978955198079348,-0.048868969082832336,-0.02463422156870365
1773048322486459400,8.48545947265625,-0.0015978955198079348,0.09600688517093658,-0.01717737689614296
1773048322496448500,8.495448486328126,-0.01225053146481514,-0.0009321057004854083,-0.01078579481691122
1773048322506415600,8.50541552734375,0.013315795920789242,-0.06591318547725677,-0.01078579481691122
1773048322516402700,8.515402587890625,-0.004793686326593161,0.02143843099474907,-0.02463422156870365
1773048322526372000,8.5253720703125,-0.00798947736620903,0.08535424619913101,-0.0011984215816482902
1773048322536357400,8.535357421875,-0.004793686326593161,-0.03395527973771095,-0.012916321866214275
1773048322546328300,8.545328369140625,-0.011185267940163612,0.0011984215816482902,-0.01717737689614296
1773048322556312300,8.555312255859375,-0.0005326318205334246,-0.029694223776459694,-0.005459476262331009
1773048322566284800,8.565284912109375,-0.011185267940163612,0.07576687633991241,-0.013981585390865803
1773048322576267500,8.575267578125,-0.009054740890860558,-0.04247738793492317,0.011584741994738579
1773048322586241000,8.585240966796874,0.021837905049324036,-0.08615319430828094,0.010519478470087051
1773048322596223000,8.595222900390626,0.0037284228019416332,-0.01904158666729927,-0.00013315795513335615
1773048322606102800,8.605102783203124,-0.01970737800002098,0.14394375681877136,0.003062632866203785
1773048322615982800,8.61498291015625,-0.033555805683135986,-0.08402267098426819,-0.022503694519400597
1773048322626153700,8.62515380859375,-0.01438105944544077,-0.12769848108291626,-0.023568958044052124
1773048322636134700,8.635134765625,0.013315795920789242,-0.008388951420783997,0.003062632866203785
1773048322646110000,8.64510986328125,-0.07297056168317795,0.10879004746675491,0.011584741994738579
1773048322656090400,8.65509033203125,-0.034621067345142365,-0.11491531878709793,0.005193160381168127
1773048322666066400,8.66506640625,0.009054740890860558,0.05233107507228851,0.03075948730111122
1773048322676046300,8.67504638671875,-0.022903168573975563,-0.12663321197032928,0.014780532568693161
1773048322685926400,8.684926513671876,-0.01970737800002098,0.0033289489801973104,-0.009720530360937119
1773048322695746600,8.69474658203125,0.020772641524672508,0.04167843982577324,-0.018242640420794487
1773048322705926700,8.7049267578125,-0.006924213841557503,-0.021172115579247475,-0.0342215932905674
1773048322715963400,8.71496337890625,-0.0942758321762085,0.03315633162856102,0.016911059617996216
1773048322725935000,8.72493505859375,0.062317922711372375,-0.12343742698431015,-0.06298371404409409
1773048322735918300,8.73491845703125,-0.034621067345142365,0.18868482112884521,-0.007590003311634064
1773048322745891600,8.7448916015625,-0.10492847114801407,-0.10106688737869263,0.01584579609334469
1773048322755873800,8.754873779296876,0.042077913880348206,-0.10106688737869263,0.011584741994738579
1773048322765919700,8.764919677734374,-0.015446322970092297,0.08961530029773712,0.008388951420783997
1773048322775908000,8.774908203125,-0.022903168573975563,0.0576573945581913,0.029694223776459694
1773048322785804000,8.784803955078125,0.002663159044459462,0.09387636184692383,-0.00013315795513335615
1773048322795783700,8.79478369140625,0.01651158556342125,-0.1735048145055771,-0.04167843982577324
1773048322805760500,8.804760498046875,0.005858949851244688,0.10665952414274216,-0.039547912776470184
1773048322815739600,8.81473974609375,-0.04101264849305153,0.10133320093154907,-0.06831002980470657
1773048322825716700,8.824716796875,-0.013315795920789242,-0.21291956305503845,-0.043808966875076294
1773048322835695900,8.83469580078125,0.15699322521686554,0.06937529146671295,0.0062584239058196545
1773048322845673200,8.844673095703126,-0.01225053146481514,0.11837742477655411,0.009454214945435524
1773048322855651800,8.85465185546875,-0.20825904607772827,0.027830012142658234,0.010519478470087051
1773048322865629400,8.86462939453125,0.06338318437337875,-0.14580796658992767,0.01904158666729927
1773048322875608000,8.874608154296874,-0.015446322970092297,0.11305110156536102,-0.013981585390865803
1773048322885585700,8.884585693359375,-0.017576850950717926,-0.08402267098426819,-0.03635212033987045
1773048322895564300,8.894564208984375,0.009054740890860558,0.005459476262331009,-0.019307903945446014
1773048322905542000,8.9045419921875,-0.0037284228019416332,-0.1255679577589035,-0.01078579481691122
1773048322915520500,8.9145205078125,0.00798947736620903,0.06617950648069382,-0.018242640420794487
1773048322925498400,8.924498291015626,-0.033555805683135986,0.05233107507228851,0.012650005519390106
1773048322935476700,8.934476806640625,-0.021837905049324036,-0.02649843320250511,0.025433169677853584
1773048322945454600,8.94445458984375,0.005858949851244688,-0.07337003201246262,0.01904158666729927
1773048322955433000,8.954432861328126,-0.027164222672581673,0.16951008141040802,0.03075948730111122
1773048322965410800,8.964410888671875,-0.022903168573975563,-0.04673844203352928,0.014780532568693161
1773048322975389200,8.97438916015625,-0.01651158556342125,-0.02649843320250511,-0.00013315795513335615
1773048322985367300,8.9843671875,-0.03249054029583931,0.0022636852227151394,-0.0011984215816482902
1773048322995345400,8.994345458984375,-0.009054740890860558,-0.09361004084348679,-0.03741738572716713
1773048323005323500,9.004323486328126,-0.011185267940163612,-0.014780532568693161,-0.059787921607494354
1773048323015301600,9.014301513671874,-0.038882121443748474,0.1428784877061844,0.014780532568693161
1773048323025279700,9.02427978515625,-0.027164222672581673,-0.19374482333660126,0.021172115579247475
1773048323035258000,9.034258056640626,0.038882121443748474,0.00013315795513335615,-0.0011984215816482902
1773048323045236200,9.044236328125,0.0005326318205334246,0.14394375681877136,0.0062584239058196545
1773048323055214300,9.05421435546875,-0.04740423336625099,-0.08615319430828094,-0.01504684891551733
1773048323065192400,9.0641923828125,-0.009054740890860558,-0.11065425723791122,0.009454214945435524
1773048323075170600,9.074170654296875,0.017576850950717926,-0.0456731803715229,-0.018242640420794487
1773048323085148700,9.084148681640626,-0.04527370631694794,0.11837742477655411,-0.05020054802298546
1773048323095126800,9.094126708984374,-0.054861076176166534,0.03209106624126434,-0.008655266836285591
1773048323105105200,9.104105224609375,0.07177213579416275,-0.1447426974773407,0.016911059617996216
1773048323115083300,9.114083251953126,0.04420844092965126,0.0576573945581913,-0.02463422156870365
1773048323125061400,9.124061279296875,-0.046338967978954315,0.24394537508487701,-0.02996053919196129
1773048323135039500,9.13403955078125,-0.1699095517396927,-0.15326480567455292,0.04460791498422623
1773048323145017600,9.144017578125,-0.01651158556342125,-0.08295740932226181,-0.03741738572716713
1773048323154995700,9.15399560546875,0.15166690945625305,0.03741738572716713,-0.07896266877651215
1773048323164973800,9.163973876953126,-0.26152223348617554,0.10133320093154907,-0.0033289489801973104
1773048323174952200,9.1739521484375,-0.0005326318205334246,-0.2150501012802124,-0.011851058341562748
1773048323184930300,9.183930419921875,0.2624543309211731,-0.14687322080135345,-0.03635212033987045
1773048323194908400,9.193908447265626,-0.09640636295080185,0.1844237744808197,-0.07363634556531906
1773048323204886500,9.203886474609375,-0.11877689510583878,-0.22250694036483765,-0.00013315795513335615
1773048323214864600,9.21386474609375,0.08775109052658081,-0.1585911214351654,0.014780532568693161
1773048323224842800,9.2238427734375,0.11864373832941055,0.15566164255142212,0.0009321057004854083
1773048323234821000,9.233821044921875,-0.07616634666919708,0.05339634045958519,-0.026764748618006706
1773048323244799200,9.24379931640625,-0.09747162461280823,-0.2715090811252594,0.0062584239058196545
1773048323254777300,9.25377734375,0.03994738683104515,0.1897500902414322,-0.01717737689614296
1773048323264755500,9.26375537109375,-0.09321057051420212,0.02889527566730976,-0.01504684891551733
1773048323274733600,9.273733642578126,0.054861076176166534,-0.02756369672715664,0.021172115579247475
1773048323284711700,9.283711669921875,0.06764423847198486,-0.1117195263504982,-0.01078579481691122
1773048323294689800,9.293689697265625,-0.03675159439444542,0.30360013246536255,-0.022503694519400597
1773048323304668200,9.303668212890624,-0.03142527863383293,-0.1394163817167282,0.021172115579247475
1773048323314646300,9.313646240234375,0.04420844092965126,-0.09254477918148041,-0.006524739786982536
1773048323324624400,9.323624267578126,-0.030360013246536255,0.1609879732131958,-0.01078579481691122
1773048323334602500,9.3336025390625,-0.0846884623169899,0.03635212033987045,-0.00013315795513335615
1773048323344580600,9.34358056640625,0.02396843209862709,-0.09254477918148041,0.0019973693415522575
1773048323354558700,9.353558837890626,0.04420844092965126,-0.04034686088562012,-0.01717737689614296
1773048323364537000,9.363537109375,-0.030360013246536255,0.1663142889738083,0.01584579609334469
1773048323374515200,9.37351513671875,-0.006924213841557503,-0.09147951751947403,0.009454214945435524
1773048323384493300,9.383493408203124,0.026098959147930145,-0.06058686971664429,0.009454214945435524
1773048323394471400,9.393471435546875,-0.01438105944544077,0.09707214683294296,0.012650005519390106
1773048323404449500,9.403449462890626,-0.00798947736620903,0.04913528636097908,0.009454214945435524
1773048323414427600,9.413427734375,0.0037284228019416332,-0.10639320313930511,-0.0011984215816482902
1773048323424405800,9.42340576171875,-0.010120004415512085,0.00013315795513335615,0.007323687430471182
1773048323434384000,9.4333837890625,-0.01970737800002098,0.14500901103019714,0.012650005519390106
1773048323444362200,9.4433623046875,0.01438105944544077,-0.102132149040699,0.013715269044041634
1773048323454340400,9.45334033203125,-0.0037284228019416332,-0.05419528856873512,-0.0011984215816482902
1773048323464318500,9.463318359375,-0.033555805683135986,0.11518163233995438,0.016911059617996216
1773048323474296600,9.473296630859375,0.0037284228019416332,-0.061652131378650665,0.011584741994738579
1773048323484274700,9.483274658203126,0.013315795920789242,-0.029694223776459694,0.020106852054595947
1773048323494252800,9.493252685546874,-0.033555805683135986,-0.04247738793492317,-0.0022636852227151394
1773048323504231000,9.50323095703125,-0.01438105944544077,0.07576687633991241,0.01584579609334469
1773048323514209000,9.513208984375,0.011185267940163612,-0.10319741815328598,0.017976323142647743
1773048323524187400,9.5231875,-0.015446322970092297,-0.012650005519390106,0.0062584239058196545
1773048323534165500,9.53316552734375,-0.029294749721884727,0.043808966875076294,0.011584741994738579
1773048323544143600,9.5431435546875,-0.00798947736620903,-0.0062584239058196545,0.003062632866203785
1773048323554121700,9.553121826171875,-0.0015978955198079348,-0.0691089779138565,0.011584741994738579
1773048323564099800,9.563099853515626,-0.020772641524672508,0.006524739786982536,0.004127896390855312
1773048323574078000,9.573077880859374,-0.02396843209862709,0.02569948509335518,0.0062584239058196545
1773048323584056000,9.58305615234375,-0.004793686326593161,-0.003062632866203785,0.0062584239058196545
1773048323594034400,9.593034423828126,-0.0015978955198079348,-0.029694223776459694,0.013715269044041634
1773048323604012500,9.603012451171875,-0.026098959147930145,-0.03075948730111122,-0.00013315795513335615
1773048323613990700,9.61299072265625,-0.010120004415512085,0.06191844865679741,0.012650005519390106
1773048323623968800,9.62296875,-0.0037284228019416332,-0.013715269044041634,0.012650005519390106
1773048323633947000,9.63294677734375,-0.00798947736620903,-0.11065425723791122,-0.00013315795513335615
1773048323643886300,9.64288623046875,-0.006924213841557503,0.07789740711450577,0.010519478470087051
1773048323653860400,9.6528603515625,-0.0015978955198079348,-0.020106852054595947,0.004127896390855312
1773048323663881200,9.662881103515625,0.0005326318205334246,0.007590003311634064,0.005193160381168127
1773048323673860400,9.6728603515625,-0.0015978955198079348,-0.05952160432934761,-0.0022636852227151394
1773048323683837700,9.682837646484375,-0.00798947736620903,0.09600688517093658,-0.0022636852227151394
1773048323693816300,9.69281640625,0.017576850950717926,-0.0691089779138565,0.010519478470087051
1773048323703755000,9.702755126953125,-0.015446322970092297,0.012916321866214275,-0.016112113371491432
1773048323713729800,9.712729736328125,-0.00798947736620903,0.06937529146671295,0.008388951420783997
1773048323723711200,9.722711181640625,-0.0015978955198079348,-0.028628960251808167,-0.006524739786982536
1773048323733686800,9.732686767578125,-0.0037284228019416332,-0.014780532568693161,-0.00013315795513335615
1773048323743706400,9.742706298828125,-0.059122130274772644,-0.004127896390855312,-0.01717737689614296
1773048323753686300,9.752686279296874,0.005858949851244688,0.14500901103019714,0.0019973693415522575
1773048323763624000,9.7626240234375,0.029294749721884727,-0.20439745485782623,-0.03848264738917351
1773048323773599500,9.772599609375,-0.053795814514160156,0.11092057824134827,-0.02996053919196129
1773048323783580200,9.782580078125,-0.005858949851244688,0.00013315795513335615,-0.01504684891551733
1773048323793556200,9.79255615234375,-0.018642114475369453,-0.06058686971664429,-0.02569948509335518
1773048323803536400,9.802536376953125,-0.01651158556342125,0.10346373170614243,-0.0043942127376794815
1773048323813513000,9.812512939453125,-0.013315795920789242,-0.05845634266734123,-0.03315633162856102
1773048323823531500,9.822531494140625,-0.04420844092965126,0.10346373170614243,-0.007590003311634064
1773048323833512400,9.832512451171874,-0.053795814514160156,0.027830012142658234,-0.027830012142658234
1773048323843392300,9.842392333984375,0.0282294861972332,-0.07123950868844986,-0.01504684891551733
1773048323853272300,9.852272216796875,-0.022903168573975563,-0.017976323142647743,-0.03209106624126434
1773048323863405300,9.8624052734375,-0.002663159044459462,0.08322372287511826,-0.009720530360937119
1773048323873383700,9.8723837890625,-0.009054740890860558,-0.13728585839271545,-0.023568958044052124
1773048323883322600,9.882322509765626,-0.018642114475369453,0.06831002980470657,-0.005459476262331009
1773048323893297200,9.892297119140625,-0.002663159044459462,0.027830012142658234,-0.007590003311634064
1773048323903240200,9.902240234375,-0.029294749721884727,-0.03821633383631706,-0.006524739786982536
1773048323913211400,9.91221142578125,-0.09534109383821487,0.05446160212159157,-0.011851058341562748
1773048323923157500,9.922157470703125,0.09733846783638,-0.017976323142647743,-0.0022636852227151394
1773048323933126400,9.93212646484375,-0.027164222672581673,-0.07017423957586288,-0.00013315795513335615
1773048323943006200,9.942006103515626,-0.15606112778186798,0.20985694229602814,0.017976323142647743
1773048323952886300,9.95188623046875,0.08455529808998108,-0.1628521829843521,0.004127896390855312
1773048323962992000,9.9619921875,0.03675159439444542,0.06191844865679741,-0.005459476262331009
1773048323972962600,9.971962646484375,-0.059122130274772644,0.04913528636097908,0.03075948730111122
1773048323982909700,9.98190966796875,0.11970899999141693,-0.140481635928154,0.004127896390855312
1773048323992877600,9.991877685546875,-0.01970737800002098,0.15353111922740936,0.0318247526884079
1773048324002827300,10.0018271484375,-0.015446322970092297,0.05020054802298546,0.03502054139971733
1773048324012793300,10.01179345703125,0.04420844092965126,-0.1628521829843521,0.020106852054595947
1773048324022744600,10.02174462890625,-0.018642114475369453,0.06937529146671295,0.01904158666729927
1773048324032709400,10.03170947265625,0.013315795920789242,0.10879004746675491,0.04247738793492317
1773048324042589200,10.041589111328125,0.006924213841557503,-0.13728585839271545,0.010519478470087051
1773048324052469200,10.05146923828125,-0.042077913880348206,0.12903006374835968,0.025433169677853584
1773048324062579000,10.061578857421875,0.01970737800002098,0.009720530360937119,0.03608580678701401
1773048324072547600,10.071547607421875,-0.042077913880348206,-0.025433169677853584,0.012650005519390106
1773048324082496500,10.08149658203125,-0.053795814514160156,0.05446160212159157,0.03608580678701401
1773048324092463000,10.091463134765625,0.03675159439444542,-0.03502054139971733,0.021172115579247475
1773048324102414300,10.101414306640624,-0.002663159044459462,0.04167843982577324,0.022237379103899002
1773048324112379400,10.11137939453125,-0.01651158556342125,0.02143843099474907,0.03502054139971733
1773048324122293200,10.121293212890626,0.010120004415512085,-0.025433169677853584,0.020106852054595947
1773048324132253200,10.131253173828124,-0.015446322970092297,0.08641951531171799,0.025433169677853584
1773048324142133200,10.14113330078125,0.06657897680997849,-0.01584579609334469,0.03608580678701401
1773048324152013300,10.151013427734375,0.005858949851244688,-0.10106688737869263,0.004127896390855312
1773048324162089200,10.161089111328126,-0.037816859781742096,0.19294588267803192,0.02756369672715664
1773048324172047000,10.171047119140624,0.03142527863383293,-0.0786963477730751,0.053130023181438446
1773048324182045200,10.181045166015625,-0.005858949851244688,-0.07230477035045624,-0.016112113371491432
1773048324192007200,10.191007080078125,-0.020772641524672508,0.18122798204421997,0.028628960251808167
1773048324202187000,10.20118701171875,-0.0015978955198079348,-0.010519478470087051,0.021172115579247475
1773048324212367000,10.2113671875,0.010120004415512085,-0.0456731803715229,0.02330264262855053
1773048324222547000,10.221546875,-0.013315795920789242,0.04167843982577324,0.010519478470087051
1773048324232657700,10.23165771484375,-0.018642114475369453,0.1002679392695427,0.021172115579247475
1773048324242613500,10.241613525390624,-0.009054740890860558,-0.009454214945435524,0.01904158666729927
1773048324252609500,10.251609619140625,0.006924213841557503,-0.15006901323795319,0.005193160381168127
1773048324262569700,10.26156982421875,-0.004793686326593161,0.16737954318523407,0.01904158666729927
1773048324272562400,10.2715625,-0.005858949851244688,0.013981585390865803,0.01584579609334469
1773048324282526200,10.281526123046875,-0.01225053146481514,-0.03502054139971733,-0.006524739786982536
1773048324292515800,10.291515869140625,-0.042077913880348206,-0.0009321057004854083,0.016911059617996216
1773048324302482700,10.301482666015625,0.017576850950717926,0.013981585390865803,-0.0022636852227151394
1773048324312470000,10.311469970703126,0.005858949851244688,0.07789740711450577,0.011584741994738579
1773048324322439000,10.32143896484375,-0.01438105944544077,-0.1628521829843521,-0.018242640420794487
1773048324332424400,10.331424560546875,-0.017576850950717926,0.08322372287511826,0.0019973693415522575
1773048324342395100,10.34139501953125,-0.013315795920789242,0.06085318699479103,0.007323687430471182
1773048324352379400,10.35137939453125,0.022903168573975563,-0.05099949613213539,0.003062632866203785
1773048324362351400,10.361351318359375,-0.01225053146481514,-0.07230477035045624,-0.016112113371491432
1773048324372334300,10.371334228515625,-0.04527370631694794,0.18229323625564575,-0.008655266836285591
1773048324382307800,10.381307861328125,0.010120004415512085,0.005459476262331009,0.008388951420783997
1773048324392289800,10.391289794921875,0.0282294861972332,-0.12876373529434204,-0.023568958044052124
1773048324402264000,10.40126416015625,-0.026098959147930145,0.06085318699479103,-0.009720530360937119
1773048324412245200,10.411245361328126,-0.058056868612766266,0.0715058222413063,-0.005459476262331009
1773048324422220300,10.42122021484375,0.022903168573975563,-0.025433169677853584,-0.020373167470097542
1773048324432201000,10.431200927734375,0.010120004415512085,-0.11065425723791122,-0.016112113371491432
1773048324442176800,10.4411767578125,-0.027164222672581673,0.039547912776470184,-0.03741738572716713
1773048324452156700,10.45115673828125,-0.018642114475369453,0.1705753356218338,-0.01717737689614296
1773048324462133000,10.461133056640625,0.011185267940163612,-0.1628521829843521,-0.02889527566730976
1773048324472112600,10.471112548828126,-0.002663159044459462,0.01078579481691122,-0.01717737689614296
1773048324482089200,10.481089111328124,-0.03675159439444542,0.00013315795513335615,-0.0342215932905674
1773048324492068600,10.491068603515625,0.01970737800002098,0.13861742615699768,-0.007590003311634064
1773048324502045400,10.50104541015625,0.00798947736620903,-0.195875346660614,-0.013981585390865803
1773048324512024600,10.511024658203125,-0.04314317926764488,0.08961530029773712,-0.03315633162856102
1773048324522001700,10.521001708984375,-0.0037284228019416332,0.1237037405371666,-0.01078579481691122
1773048324531980800,10.530980712890624,0.04314317926764488,-0.20759324729442596,-0.02889527566730976
1773048324541958100,10.540958251953125,-0.027164222672581673,0.07470161467790604,-0.04167843982577324
1773048324551936800,10.550936767578126,-0.006924213841557503,0.11518163233995438,-0.01078579481691122
1773048324561914400,10.560914306640624,0.030360013246536255,-0.13622058928012848,-0.02143843099474907
1773048324571893000,10.57089306640625,0.0005326318205334246,0.06511423736810684,-0.006524739786982536
1773048324581870600,10.58087060546875,-0.0037284228019416332,0.09387636184692383,-0.020373167470097542
1773048324591849200,10.59084912109375,-0.01225053146481514,-0.007323687430471182,-0.008655266836285591
1773048324601826800,10.600826904296875,0.01651158556342125,-0.03821633383631706,-0.0043942127376794815
1773048324611805400,10.610805419921874,0.025033695623278618,-0.0019973693415522575,0.003062632866203785
1773048324621783000,10.620782958984375,-0.050600022077560425,0.07257108390331268,-0.02463422156870365
1773048324631761400,10.630761474609375,0.018642114475369453,0.1844237744808197,0.0062584239058196545
1773048324641739500,10.640739501953124,0.062317922711372375,-0.27790066599845886,-0.016112113371491432
1773048324651718000,10.6507177734375,-0.04101264849305153,0.1940111368894577,-0.0043942127376794815
1773048324661695700,10.66069580078125,0.0037284228019416332,0.04593949392437935,-0.009720530360937119
1773048324671673900,10.670673828125,0.06444845348596573,-0.10319741815328598,-0.01504684891551733
1773048324681554000,10.680553955078125,0.0005326318205334246,0.0906805694103241,-0.0033289489801973104
1773048324691417000,10.6904169921875,0.011185267940163612,0.06404897570610046,-0.0043942127376794815
1773048324701608000,10.70060791015625,0.02396843209862709,-0.07337003201246262,-0.012916321866214275
1773048324711590700,10.710590576171874,0.009054740890860558,0.02143843099474907,-0.0043942127376794815
1773048324721564400,10.720564453125,0.005858949851244688,0.05339634045958519,-0.01717737689614296
1773048324731545900,10.7305458984375,-0.004793686326593161,0.06831002980470657,-0.011851058341562748
1773048324741520600,10.740520751953126,0.034621067345142365,-0.10106688737869263,-0.01717737689614296
1773048324751501600,10.75050146484375,0.013315795920789242,0.016112113371491432,-0.016112113371491432
1773048324761381600,10.760381591796875,0.0037284228019416332,0.09707214683294296,-0.013981585390865803
1773048324771244000,10.770244140625,0.03675159439444542,0.012916321866214275,0.010519478470087051
1773048324781433000,10.78043310546875,0.018642114475369453,-0.08295740932226181,-0.01078579481691122
1773048324791417000,10.7904169921875,0.01225053146481514,0.22903168201446533,0.003062632866203785
1773048324801389300,10.800389404296874,0.03568633273243904,-0.05099949613213539,0.0062584239058196545
1773048324811372300,10.810372314453126,0.03142527863383293,-0.07550056278705597,-0.02463422156870365
1773048324821345800,10.820345703125,0.017576850950717926,0.1279647946357727,-0.0043942127376794815
1773048324831327700,10.83032763671875,0.0282294861972332,-0.06591318547725677,-0.01504684891551733
1773048324841302000,10.840302001953125,0.04101264849305153,-0.06697845458984375,-0.0043942127376794815
1773048324851283200,10.850283203125,0.027164222672581673,-0.009454214945435524,-0.009720530360937119
1773048324861163300,10.860163330078125,0.020772641524672508,0.09387636184692383,-0.0043942127376794815
1773048324871025700,10.870025634765625,0.027164222672581673,-0.09147951751947403,0.0062584239058196545
1773048324881020400,10.8800205078125,0.03142527863383293,-0.03928159549832344,-0.00013315795513335615
1773048324890985000,10.88998486328125,0.011185267940163612,0.10772478580474854,-0.00013315795513335615
1773048324901170700,10.900170654296875,0.02396843209862709,-0.07763108611106873,-0.007590003311634064
1773048324911157500,10.910157470703124,0.02396843209862709,-0.03395527973771095,-0.007590003311634064
1773048324921127000,10.920126953125,0.009054740890860558,0.06298371404409409,-0.0011984215816482902
1773048324931112200,10.9301123046875,0.011185267940163612,-0.013715269044041634,-0.005459476262331009
1773048324941083100,10.940083251953125,0.01970737800002098,-0.004127896390855312,0.004127896390855312
1773048324951067000,10.95006689453125,0.013315795920789242,-0.011584741994738579,-0.012916321866214275
1773048324960947000,10.959947021484375,0.0015978955198079348,0.055526867508888245,0.0019973693415522575
1773048324970808800,10.969808837890625,0.01651158556342125,-0.06058686971664429,-0.0022636852227151394
1773048324980801500,10.979801513671875,0.01438105944544077,0.011851058341562748,-0.0022636852227151394
1773048324990767900,10.989767822265625,-0.0005326318205334246,0.055526867508888245,0.0009321057004854083
1773048325000951800,10.999951904296875,0.013315795920789242,-0.05099949613213539,-0.012916321866214275
1773048325010940200,11.009940185546874,0.005858949851244688,-0.009454214945435524,-0.006524739786982536
1773048325020908000,11.019907958984374,0.015446322970092297,-0.011584741994738579,-0.012916321866214275
1773048325030894600,11.02989453125,0.013315795920789242,-0.04354264959692955,-0.007590003311634064
1773048325040864500,11.039864501953126,0.004793686326593161,-0.007323687430471182,-0.006524739786982536
1773048325050849000,11.04984912109375,0.015446322970092297,0.01078579481691122,0.0062584239058196545
1773048325060820700,11.05982080078125,0.0282294861972332,-0.02756369672715664,0.011584741994738579
1773048325070804200,11.06980419921875,0.038882121443748474,-0.0552605502307415,0.011584741994738579
1773048325080777000,11.07977685546875,-0.011185267940163612,-0.0062584239058196545,-0.013981585390865803
1773048325090759400,11.089759521484375,0.01651158556342125,0.12689952552318573,0.02330264262855053
1773048325100733400,11.0997333984375,0.04420844092965126,-0.21931114792823792,0.029694223776459694
1773048325110715000,11.10971484375,0.022903168573975563,0.1045289933681488,-0.0022636852227151394
1773048325120689700,11.119689697265626,-0.026098959147930145,0.05339634045958519,0.022237379103899002
1773048325130670300,11.12967041015625,0.04420844092965126,0.006524739786982536,0.011584741994738579
1773048325140646000,11.13964599609375,0.04953476041555405,-0.09467530250549316,0.01584579609334469
1773048325150626000,11.1496259765625,-0.0037284228019416332,0.04913528636097908,0.004127896390855312
1773048325160506000,11.159506103515625,0.025033695623278618,0.11837742477655411,0.01904158666729927
1773048325170368800,11.16936865234375,0.037816859781742096,-0.0882837250828743,0.0062584239058196545
1773048325180558300,11.179558349609374,0.029294749721884727,0.06937529146671295,0.01584579609334469
1773048325190542000,11.1895419921875,0.01438105944544077,0.035286858677864075,0.005193160381168127
1773048325200514600,11.1995146484375,0.01970737800002098,0.043808966875076294,0.007323687430471182
1773048325210497300,11.209497314453126,0.026098959147930145,0.009720530360937119,0.01584579609334469
1773048325220470800,11.219470703125,0.017576850950717926,-0.03821633383631706,-0.0033289489801973104
1773048325230452700,11.22945263671875,0.00798947736620903,0.0906805694103241,0.016911059617996216
1773048325240427300,11.23942724609375,0.029294749721884727,-0.10852373391389847,-0.0043942127376794815
1773048325250408200,11.249408203125,0.01438105944544077,0.0672447681427002,0.007323687430471182
1773048325260383500,11.259383544921874,0.0037284228019416332,0.0022636852227151394,-0.00013315795513335615
1773048325270364000,11.269364013671876,0.018642114475369453,-0.0456731803715229,-0.0011984215816482902
1773048325280339700,11.279339599609376,0.020772641524672508,0.03209106624126434,0.0019973693415522575
1773048325290319600,11.289319580078125,0.018642114475369453,-0.07656582444906235,-0.01717737689614296
1773048325300296000,11.2992958984375,0.0005326318205334246,0.11305110156536102,-0.00013315795513335615
1773048325310275600,11.309275634765624,0.021837905049324036,-0.07230477035045624,-0.0011984215816482902
1773048325320252200,11.319252197265625,0.01970737800002098,-0.03075948730111122,-0.011851058341562748
1773048325330231600,11.3292314453125,0.0015978955198079348,0.048070020973682404,-0.012916321866214275
1773048325340208400,11.33920849609375,0.009054740890860558,-0.008388951420783997,-0.016112113371491432
1773048325350187500,11.3491875,0.025033695623278618,-0.028628960251808167,0.0062584239058196545
1773048325360164900,11.359164794921876,-0.030360013246536255,-0.003062632866203785,-0.019307903945446014
1773048325370143500,11.3691435546875,0.02396843209862709,0.15885743498802185,0.004127896390855312
1773048325380121000,11.37912109375,0.07070687413215637,-0.22676800191402435,-0.008655266836285591
1773048325390099700,11.389099609375,0.009054740890860558,0.08428898453712463,-0.020373167470097542
1773048325400077300,11.399077392578125,-0.0015978955198079348,0.10133320093154907,0.0009321057004854083
1773048325410056000,11.409055908203126,0.03249054029583931,-0.11598058044910431,-0.0033289489801973104
1773048325420033500,11.419033447265624,0.018642114475369453,0.0022636852227151394,0.014780532568693161
1773048325430012000,11.429011962890625,0.01651158556342125,-0.02330264262855053,-0.01717737689614296
1773048325439989800,11.43898974609375,0.021837905049324036,0.11518163233995438,0.013715269044041634
1773048325449968000,11.448968017578125,0.026098959147930145,-0.2203764170408249,-0.008655266836285591
1773048325459848200,11.45884814453125,0.022903168573975563,0.1332911103963852,0.011584741994738579
1773048325469711000,11.468711181640625,0.020772641524672508,0.005459476262331009,0.03075948730111122
1773048325479902200,11.478902099609375,0.01225053146481514,-0.05952160432934761,-0.005459476262331009
1773048325489884700,11.488884765625,0.026098959147930145,0.06831002980470657,0.025433169677853584
1773048325499858400,11.4988583984375,0.022903168573975563,-0.03502054139971733,0.007323687430471182
1773048325509840100,11.508840087890626,0.025033695623278618,-0.021172115579247475,0.01584579609334469
1773048325519814700,11.518814697265626,0.01438105944544077,-0.0062584239058196545,0.007323687430471182
1773048325529795600,11.528795654296875,0.022903168573975563,0.03635212033987045,0.010519478470087051
1773048325539771000,11.53877099609375,0.021837905049324036,-0.08082687854766846,0.009454214945435524
1773048325549751300,11.548751220703124,0.011185267940163612,0.027830012142658234,0.0062584239058196545
1773048325559727000,11.55872705078125,0.029294749721884727,-0.0009321057004854083,0.02649843320250511
1773048325569707300,11.568707275390626,0.01225053146481514,-0.04354264959692955,0.0009321057004854083
1773048325579587000,11.578587158203124,0.021837905049324036,0.07044056057929993,0.021172115579247475
1773048325589449700,11.58844970703125,0.02396843209862709,-0.11278478801250458,-0.00013315795513335615
1773048325599639600,11.5986396484375,0.017576850950717926,0.08748477697372437,0.011584741994738579
1773048325609623000,11.608623046875,0.01970737800002098,-0.029694223776459694,0.012650005519390106
1773048325619595800,11.618595703125,0.01970737800002098,-0.03821633383631706,0.003062632866203785
1773048325629578200,11.628578125,0.020772641524672508,0.04593949392437935,0.011584741994738579
1773048325639552300,11.63855224609375,0.015446322970092297,-0.048868969082832336,0.0062584239058196545
1773048325649533700,11.64853369140625,0.02396843209862709,0.0011984215816482902,0.004127896390855312
1773048325659508500,11.658508544921874,0.038882121443748474,0.027830012142658234,0.025433169677853584
1773048325669489400,11.668489501953125,0.002663159044459462,-0.0648479238152504,-0.0033289489801973104
1773048325679369200,11.678369140625,0.026098959147930145,0.08855003863573074,0.01904158666729927
1773048325689232000,11.68823193359375,0.027164222672581673,-0.06271740049123764,0.0062584239058196545
1773048325699420700,11.698420654296875,0.033555805683135986,-0.011584741994738579,0.0062584239058196545
1773048325709405000,11.708405029296875,0.017576850950717926,0.005459476262331009,0.011584741994738579
1773048325719377200,11.718377197265625,0.022903168573975563,-0.009454214945435524,0.0019973693415522575
1773048325729360100,11.728360107421874,0.027164222672581673,-0.02756369672715664,0.008388951420783997
1773048325739333400,11.73833349609375,0.029294749721884727,0.02569948509335518,0.007323687430471182
1773048325749315300,11.7483154296875,0.018642114475369453,-0.061652131378650665,-0.0011984215816482902
1773048325759289600,11.75828955078125,0.018642114475369453,0.05020054802298546,0.0019973693415522575
1773048325769270800,11.768270751953125,0.029294749721884727,-0.02649843320250511,0.003062632866203785
1773048325779245800,11.778245849609375,0.015446322970092297,-0.03075948730111122,-0.011851058341562748
1773048325789226500,11.7882265625,0.022903168573975563,0.035286858677864075,0.0009321057004854083
1773048325799202000,11.7982021484375,0.027164222672581673,-0.08295740932226181,-0.020373167470097542
1773048325809182200,11.80818212890625,0.018642114475369453,0.10239847004413605,-0.0022636852227151394
1773048325819062300,11.818062255859376,0.01970737800002098,-0.057391077280044556,-0.011851058341562748
1773048325828925000,11.827925048828124,0.01970737800002098,-0.04460791498422623,-0.022503694519400597
1773048325839114500,11.838114501953125,0.020772641524672508,0.12157320976257324,-0.0011984215816482902
1773048325849098200,11.84809814453125,0.021837905049324036,-0.14687322080135345,-0.03741738572716713
1773048325859070700,11.85807080078125,0.004793686326593161,0.09281109273433685,-0.026764748618006706
1773048325869053400,11.868053466796875,0.020772641524672508,-0.009454214945435524,-0.012916321866214275
1773048325879027000,11.87802685546875,0.030360013246536255,-0.10426267981529236,-0.035286858677864075
1773048325889008600,11.888008544921876,0.01225053146481514,0.06617950648069382,-0.016112113371491432
1773048325898983200,11.897983154296876,0.01225053146481514,-0.013715269044041634,-0.0342215932905674
1773048325908964400,11.90796435546875,0.0282294861972332,0.02143843099474907,-0.016112113371491432
1773048325918939600,11.917939697265625,0.02396843209862709,-0.09467530250549316,-0.031025802716612816
1773048325928920000,11.927920166015625,0.01651158556342125,0.055526867508888245,-0.027830012142658234
1773048325938896000,11.937895751953125,0.018642114475369453,-0.02330264262855053,-0.02463422156870365
1773048325948875800,11.947875732421876,0.022903168573975563,-0.03928159549832344,-0.039547912776470184
1773048325958852000,11.95785205078125,0.026098959147930145,0.005459476262331009,-0.01717737689614296
1773048325968831700,11.967831787109375,0.015446322970092297,-0.09680583328008652,-0.043808966875076294
1773048325978808300,11.977808349609376,0.015446322970092297,0.10239847004413605,-0.020373167470097542
1773048325988787500,11.987787353515625,0.038882121443748474,-0.05419528856873512,-0.02996053919196129
1773048325998764500,11.9977646484375,0.01970737800002098,-0.009454214945435524,-0.026764748618006706
1773048326008743700,12.00774365234375,0.01970737800002098,0.031025802716612816,-0.023568958044052124
1773048326018720800,12.017720703125,0.026098959147930145,-0.010519478470087051,-0.03741738572716713
1773048326028699600,12.02769970703125,0.018642114475369453,0.013981585390865803,-0.03741738572716713
1773048326038677000,12.037677001953124,0.021837905049324036,-0.05419528856873512,-0.02996053919196129
1773048326048655600,12.047655517578125,0.027164222672581673,0.006524739786982536,-0.02996053919196129
1773048326058633200,12.05763330078125,0.02396843209862709,0.019307903945446014,-0.031025802716612816
1773048326068611800,12.06761181640625,0.01651158556342125,-0.011584741994738579,-0.03315633162856102
1773048326078589400,12.07758935546875,0.018642114475369453,0.03848264738917351,-0.02569948509335518
1773048326088568000,12.087568115234374,0.021837905049324036,-0.061652131378650665,-0.03848264738917351
1773048326098546000,12.0975458984375,0.02396843209862709,0.006524739786982536,-0.0342215932905674
1773048326108524300,12.107524169921875,0.01438105944544077,-0.029694223776459694,-0.03315633162856102
1773048326118404400,12.117404296875,0.01225053146481514,-0.004127896390855312,-0.027830012142658234
1773048326128267300,12.127267333984374,0.026098959147930145,-0.03502054139971733,-0.02463422156870365
