time,seconds_elapsed,z,y,x
1773048314234588400,0.23358837890625,10.733604431152344,0.9272187948226929,-2.435295343399048
1773048314244586500,0.24358642578125,10.139585494995117,-0.26500511169433594,-1.2335001230239868
1773048314254545000,0.253544921875,7.635497093200684,0.6448656916618347,-1.5690934658050537
1773048314264527000,0.263527099609375,9.78544807434082,1.1425727605819702,-2.799602508544922
1773048314284479200,0.283479248046875,10.254441261291504,-0.29850462079048157,-0.2949153780937195
1773048314294458000,0.2934580078125,8.02791976928711,0.7310073375701904,-2.2199411392211914
1773048314304435200,0.303435302734375,9.55513858795166,1.2143574953079224,-2.641676187515259
1773048314314413300,0.313413330078125,11.22652530670166,0.41994038224220276,-0.49591249227523804
1773048314324391200,0.32339111328125,9.186644554138184,0.10348957777023315,-1.262213945388794
1773048314334369300,0.333369384765625,9.196215629577637,0.17527425289154053,-1.8418751955032349
1773048314344347400,0.343347412109375,9.976874351501465,0.5491527915000916,-0.8267202377319336
1773048314354325200,0.3533251953125,10.302297592163086,0.8554341197013855,-1.5014961957931519
1773048314364303400,0.363303466796875,9.948160171508789,0.24227328598499298,-1.3674981594085693
1773048314374281500,0.373281494140625,9.449854850769043,-0.04007977992296219,-1.32921302318573
1773048314384259300,0.38325927734375,9.186644554138184,0.7501499056816101,-1.851446509361267
1773048314394237400,0.393237548828125,9.90987491607666,1.3010972738265991,-1.26699960231781
1773048314404215300,0.40321533203125,11.240882873535156,0.12741780281066895,-1.0085747241973877
1773048314414193400,0.413193359375,9.502496719360352,-0.29850462079048157,-1.7222341299057007
1773048314424133000,0.423133056640625,7.922635555267334,0.7262216806411743,-1.2861422300338745
1773048314434095600,0.433095703125,11.063814163208008,0.9607182741165161,-1.7796618938446045
1773048314444127200,0.443127197265625,10.402796745300293,0.7357929348945618,-1.444068431854248
1773048314454117600,0.45311767578125,9.45464038848877,0.24227328598499298,-1.5158531665802002
1773048314464083500,0.46308349609375,8.875576972961426,0.22791635990142822,-1.089930772781372
1773048314474064100,0.473064208984375,10.49372386932373,0.7501499056816101,-1.908874273300171
1773048314484039700,0.483039794921875,9.588638305664062,1.176072359085083,-1.482353687286377
1773048314494018000,0.49301806640625,10.206584930419922,0.06999006122350693,-1.3674981594085693
1773048314503995600,0.50299560546875,9.57906723022461,-0.19800607860088348,-2.325225353240967
1773048314513973800,0.512973876953125,8.38684368133545,1.2813565731048584,-1.9710876941680908
1773048314523951600,0.52295166015625,10.671390533447266,1.334596872329712,-1.4967105388641357
1773048314533929700,0.5329296875,10.50808048248291,0.4342973232269287,-1.3818551301956177
1773048314543907800,0.542907958984375,8.578866958618164,-0.14057832956314087,-1.6360924243927002
1773048314553885700,0.5528857421875,9.148359298706055,0.4103690981864929,-2.1194427013397217
1773048314563825000,0.562824951171875,9.728020668029785,1.3920245170593262,-1.5014961957931519
1773048314573799200,0.572799072265625,10.791031837463379,1.1425727605819702,-2.3204398155212402
1773048314583819800,0.58281982421875,9.181859016418457,0.06999006122350693,-2.215155601501465
1773048314593798700,0.592798583984375,8.319844245910645,0.09870393574237823,-1.6600207090377808
1773048314603737000,0.602737060546875,9.775876998901367,0.6831508874893188,-1.2765709161758423
1773048314613712000,0.6127119140625,9.775876998901367,1.5260226726531982,-1.755733609199524
1773048314623693000,0.622693115234375,10.182656288146973,0.5778666734695435,-2.4879374504089355
1773048314633668400,0.63266845703125,9.019146919250488,0.28115665912628174,-1.8801604509353638
1773048314643688000,0.64268798828125,8.822935104370117,0.534795880317688,-1.5690934658050537
1773048314653667800,0.652667724609375,10.4219388961792,0.8793623447418213,-2.2342982292175293
1773048314663644000,0.662643798828125,8.846863746643066,0.836291491985321,-1.5158531665802002
1773048314673623300,0.672623291015625,10.311869621276855,-0.001794616924598813,-1.5541383028030396
1773048314683561200,0.682561279296875,9.043074607849121,0.4342973232269287,-2.0620148181915283
1773048314693536500,0.69253662109375,9.478569030761719,1.262213945388794,-2.2199411392211914
1773048314703517200,0.70251708984375,9.627521514892578,1.1234302520751953,-2.105085611343384
1773048314713493000,0.712492919921875,9.938589096069336,0.22791635990142822,-1.4105689525604248
1773048314723512000,0.722511962890625,8.894720077514648,0.1178465187549591,-1.4727823734283447
1773048314733492200,0.7324921875,9.550353050231934,0.7166503667831421,-2.3635106086730957
1773048314743468000,0.742468017578125,9.991230964660645,1.089930772781372,-1.5158531665802002
1773048314753448000,0.752447998046875,10.05823040008545,0.5060819983482361,-1.6265212297439575
1773048314763385300,0.76238525390625,8.808578491210938,0.09870393574237823,-2.176870346069336
1773048314773361000,0.77236083984375,9.004789352416992,0.36251261830329895,-1.8705891370773315
1773048314783302400,0.782302490234375,10.886744499206543,0.8219345808029175,-1.8131613731384277
1773048314793274600,0.792274658203125,9.301499366760254,1.176072359085083,-1.5930216312408447
1773048314803181000,0.80218115234375,10.05823040008545,0.06520441919565201,-1.7748762369155884
1773048314813146400,0.812146484375,8.665008544921875,-0.01136590726673603,-1.827518343925476
1773048314823098000,0.82209814453125,9.387641906738281,0.6687939167022705,-1.4632110595703125
1773048314833062400,0.8320625,10.359725952148438,1.1473584175109863,-1.4967105388641357
1773048314843054000,0.84205419921875,10.005587577819824,0.33379876613616943,-2.4017956256866455
1773048314853021000,0.85202099609375,9.196215629577637,-0.07836493849754333,-2.492722988128662
1773048314862971400,0.861971435546875,8.38684368133545,0.9463613629341125,-0.8267202377319336
1773048314872936700,0.871936767578125,11.604591369628906,0.49651068449020386,-1.511067509651184
1773048314882888400,0.881888427734375,9.80937671661377,0.18963119387626648,-1.688734531402588
1773048314892852500,0.8918525390625,7.6977105140686035,0.4295116662979126,-2.176870346069336
1773048314902805800,0.9018056640625,9.45464038848877,0.5539384484291077,-1.6839489936828613
1773048314912768500,0.9117685546875,11.7056884765625,0.2907279431819916,-1.3770694732666016
1773048314922722800,0.921722900390625,9.93380355834961,0.20398813486099243,-2.60339093208313
1773048314932684800,0.931684814453125,7.491329669952393,0.5682953596115112,-1.851446509361267
1773048314942562800,0.941562744140625,9.818947792053223,-0.09272187948226929,-0.7262216806411743
1773048314952516400,0.951516357421875,10.843673706054688,-0.049651071429252625,-1.6313068866729736
1773048314962479900,0.96147998046875,9.162715911865234,0.8027920126914978,-2.713460922241211
1773048314972434400,0.971434326171875,9.162715911865234,0.49172505736351013,-1.6169499158859253
1773048314982435600,0.981435546875,10.503294944763184,-0.4420739710330963,-1.444068431854248
1773048314992394800,0.991394775390625,8.59322452545166,0.3290131092071533,-2.42093825340271
1773048315002352600,1.0013525390625,9.138788223266602,0.7166503667831421,-1.9950158596038818
1773048315012311800,1.011311767578125,11.183454513549805,-0.2745763957500458,-1.3722838163375854
1773048315022231600,1.0212314453125,8.415556907653809,0.09870393574237823,-1.2430713176727295
1773048315032186600,1.0311865234375,8.913862228393555,0.13698910176753998,-2.8187451362609863
1773048315042148600,1.041148681640625,10.287940979003906,0.2231307178735733,-1.3770694732666016
1773048315052104400,1.0511044921875,10.28315544128418,0.31465616822242737,-1.1617153882980347
1773048315062065700,1.061065673828125,9.038289070129395,0.3720839321613312,-2.459223508834839
1773048315072022000,1.07102197265625,8.535198211669922,0.24227328598499298,-2.176870346069336
1773048315082059800,1.081059814453125,10.149157524108887,0.07956135272979736,-1.439282774925232
1773048315092024300,1.0910244140625,10.15872859954834,0.2763710021972656,-0.9320043921470642
1773048315102204400,1.101204345703125,9.900303840637207,0.36729827523231506,-2.4400808811187744
1773048315112384500,1.111384521484375,8.813364028930664,0.15134602785110474,-2.3922245502471924
1773048315122564400,1.121564453125,9.124430656433105,0.022133609279990196,-1.5493526458740234
1773048315132633600,1.131633544921875,9.435498237609863,0.5491527915000916,-1.5493526458740234
1773048315142588700,1.141588623046875,10.685748100280762,0.11306086927652359,-2.1098713874816895
1773048315152585000,1.1515849609375,9.507282257080078,-0.07357929646968842,-1.6791633367538452
1773048315162545000,1.161544921875,8.396414756774902,0.18963119387626648,-1.9040886163711548
1773048315172537600,1.17153759765625,10.307083129882812,0.13698910176753998,-2.1816561222076416
1773048315182501000,1.181501220703125,10.402796745300293,0.381655216217041,-1.4967105388641357
1773048315192490800,1.19149072265625,8.703293800354004,0.10348957777023315,-1.7365909814834595
1773048315202457000,1.20145703125,9.062217712402344,-0.04007977992296219,-2.578864574432373
1773048315212444700,1.211444580078125,9.368498802185059,0.06041877344250679,-1.1617153882980347
1773048315222413300,1.221413330078125,10.824531555175781,-0.05922235921025276,-1.5738791227340698
1773048315232398800,1.23139892578125,9.071788787841797,-0.04486542567610741,-2.3300111293792725
1773048315242369500,1.24136962890625,8.660223007202148,0.13220344483852386,-1.9232312440872192
1773048315252353500,1.251353515625,9.728020668029785,-0.08793623000383377,-2.1098713874816895
1773048315262325500,1.261325439453125,10.230513572692871,0.1417747437953949,-2.1672990322113037
1773048315272308500,1.27130859375,9.483354568481445,0.07956135272979736,-1.2574282884597778
1773048315282281700,1.28128173828125,9.602995872497559,-0.06400800496339798,-2.028515338897705
1773048315292263400,1.291263427734375,8.923434257507324,-0.049651071429252625,-2.5645077228546143
1773048315302237700,1.30123779296875,9.718449592590332,-0.001794616924598813,-1.0707881450653076
1773048315312219000,1.311218994140625,9.378069877624512,0.3194418251514435,-1.999801516532898
1773048315322194000,1.32119384765625,9.78544807434082,-0.04007977992296219,-2.775674343109131
1773048315332174300,1.33117431640625,9.08135986328125,-0.23629122972488403,-1.444068431854248
1773048315342150000,1.34114990234375,9.028717994689941,-0.12622138857841492,-1.1425727605819702
1773048315352130000,1.351130126953125,10.570294380187988,-0.001794616924598813,-1.9471594095230103
1773048315362009900,1.361009765625,9.449854850769043,0.2183450609445572,-2.310868501663208
1773048315371829800,1.370829833984375,9.512067794799805,-0.19322042167186737,-2.0380866527557373
1773048315382009900,1.381009765625,9.172286987304688,0.0364905446767807,-1.5589239597320557
1773048315392046300,1.39104638671875,10.378868103027344,0.26201409101486206,-2.1577277183532715
1773048315402018000,1.40101806640625,9.852447509765625,-0.07357929646968842,-1.8179470300674438
1773048315412001300,1.411001220703125,9.244071960449219,-0.389431893825531,-1.0947163105010986
1773048315421974300,1.420974365234375,8.875576972961426,-0.04486542567610741,-1.6265212297439575
1773048315431956500,1.43095654296875,10.28315544128418,0.3433700501918793,-2.578864574432373
1773048315441930200,1.44093017578125,10.197013854980469,0.17527425289154053,-1.8035900592803955
1773048315451911700,1.45091162109375,8.889934539794922,-0.049651071429252625,-1.195214867591858
1773048315461886500,1.460886474609375,8.98086166381836,0.0891326442360878,-2.186441659927368
1773048315471867100,1.4708671875,10.824531555175781,-0.19800607860088348,-1.7796618938446045
1773048315481842400,1.480842529296875,10.589436531066895,0.06999006122350693,-1.0085747241973877
1773048315491822600,1.490822509765625,8.539983749389648,0.33379876613616943,-2.406581401824951
1773048315501798700,1.500798583984375,9.411569595336914,-0.16929219663143158,-2.0715861320495605
1773048315511778300,1.5107783203125,9.613164901733398,0.23270200192928314,-1.8083757162094116
1773048315521754600,1.520754638671875,9.483354568481445,0.4342973232269287,-1.6456637382507324
1773048315531734000,1.530734130859375,10.450653076171875,-0.21236300468444824,-1.482353687286377
1773048315541710800,1.5407109375,7.850851058959961,0.251844584941864,-2.0572292804718018
1773048315551690000,1.55068994140625,10.139585494995117,0.2667997181415558,-1.8610178232192993
1773048315561666800,1.560666748046875,10.4219388961792,0.5730810165405273,-2.162513494491577
1773048315571645700,1.570645751953125,8.712865829467773,0.4342973232269287,-2.1003000736236572
1773048315581525800,1.58052587890625,9.17707347869873,-0.0687936544418335,-1.4536397457122803
1773048315591346000,1.590345947265625,9.430712699890137,0.50129634141922,-2.042872428894043
1773048315601346300,1.60034619140625,10.75274658203125,0.33858439326286316,-2.248655080795288
1773048315611306200,1.61030615234375,8.880363464355469,0.31465616822242737,-1.1042876243591309
1773048315621486300,1.620486328125,8.665008544921875,0.49172505736351013,-3.0484559535980225
1773048315631522300,1.630522216796875,10.402796745300293,0.5539384484291077,-2.3922245502471924
1773048315641491000,1.640490966796875,10.125228881835938,0.49172505736351013,-1.0516455173492432
1773048315651476500,1.6504765625,8.626724243164062,0.4582255482673645,-1.8323038816452026
1773048315661447200,1.660447265625,8.83250617980957,0.41515472531318665,-2.430509567260742
1773048315671431200,1.67043115234375,10.767104148864746,0.3768695592880249,-2.263011932373047
1773048315681442300,1.6804423828125,9.761520385742188,0.7692924737930298,-1.8753747940063477
1773048315691429000,1.69042919921875,8.808578491210938,0.26201409101486206,-1.8945173025131226
1773048315701359600,1.700359619140625,9.593423843383789,0.15134602785110474,-2.0141584873199463
1773048315711340500,1.710340576171875,10.321440696716309,0.3002992272377014,-1.6121642589569092
1773048315721315600,1.720315673828125,9.742377281188965,0.5635097622871399,-1.8945173025131226
1773048315731296300,1.730296142578125,8.674580574035645,0.36729827523231506,-2.176870346069336
1773048315741271800,1.740271728515625,9.818947792053223,0.22791635990142822,-2.5501506328582764
1773048315751251700,1.750251708984375,9.531210899353027,0.4103690981864929,-1.6217355728149414
1773048315761227800,1.760227783203125,9.890732765197754,0.06041877344250679,-1.1377872228622437
1773048315771207400,1.77020751953125,8.822935104370117,-0.04007977992296219,-2.373081922531128
1773048315781184000,1.78018408203125,9.818947792053223,0.26201409101486206,-2.200798511505127
1773048315791163400,1.790163330078125,10.412367820739746,0.10348957777023315,-1.3100703954696655
1773048315801140200,1.80014013671875,8.866005897521973,0.3290131092071533,-2.430509567260742
1773048315811119000,1.810119140625,8.70807933807373,0.0077766734175384045,-2.0141584873199463
1773048315821096200,1.82009619140625,10.7766752243042,-0.04486542567610741,-1.3914263248443604
1773048315831075000,1.830074951171875,9.268000602722168,-0.001794616924598813,-2.310868501663208
1773048315841052400,1.840052490234375,9.167501449584961,-0.12143574655056,-1.5014961957931519
1773048315851031000,1.850031005859375,8.69372272491455,0.19920247793197632,-2.1481566429138184
1773048315861008400,1.86000830078125,10.182656288146973,0.26201409101486206,-2.8666014671325684
1773048315870987000,1.869987060546875,10.17308521270752,-0.4181457459926605,-0.5635097622871399
1773048315880867000,1.8798671875,8.574081420898438,-0.01615155301988125,-2.0859432220458984
1773048315890687500,1.8896875,9.071788787841797,0.1704886108636856,-2.5118656158447266
1773048315900867300,1.899867431640625,11.820544242858887,-0.5234299302101135,-1.1473584175109863
1773048315910904000,1.909904052734375,8.511270523071289,0.07956135272979736,-2.2438695430755615
1773048315920838000,1.919837890625,8.13798999786377,0.49172505736351013,-2.5740790367126465
1773048315930816500,1.92981640625,11.116456031799316,-0.4372883439064026,-1.4536397457122803
1773048315940696300,1.9396962890625,10.015159606933594,-0.3320041298866272,-2.0237298011779785
1773048315950559200,1.949559326171875,8.02791976928711,0.2715853750705719,-2.48315167427063
1773048315960556000,1.95955615234375,10.04865837097168,0.022133609279990196,-1.6839489936828613
1773048315970519000,1.96951904296875,10.4219388961792,-0.16929219663143158,-2.4400808811187744
1773048315980512000,1.979511962890625,9.282357215881348,-0.08793623000383377,-2.468794822692871
1773048315990477800,1.989477783203125,8.588438987731934,0.28115665912628174,-1.1904292106628418
1773048316000468000,1.999468017578125,10.398011207580566,-0.23629122972488403,-2.042872428894043
1773048316010436400,2.009436279296875,10.661819458007812,-0.20757736265659332,-2.847458839416504
1773048316020616400,2.019616455078125,8.042277336120605,0.381655216217041,-1.5493526458740234
1773048316030651000,2.02965087890625,9.464211463928223,0.18005990982055664,-2.54536509513855
1773048316040531000,2.039531005859375,10.302297592163086,-0.0687936544418335,-1.534995675086975
1773048316050347800,2.04934765625,10.455438613891602,-0.32243284583091736,-2.162513494491577
1773048316060336400,2.05933642578125,7.668996810913086,0.4486542344093323,-2.2917258739471436
1773048316070306000,2.06930615234375,9.583852767944336,0.3242274820804596,-1.6265212297439575
1773048316080292400,2.079292236328125,11.758330345153809,-0.32243284583091736,-2.0715861320495605
1773048316090263800,2.089263916015625,8.563912391662598,0.31465616822242737,-2.7421748638153076
1773048316100248300,2.099248291015625,8.118846893310547,0.2907279431819916,-1.1617153882980347
1773048316110221000,2.109220947265625,10.661819458007812,0.06520441919565201,-2.0333011150360107
1773048316120204300,2.119204345703125,10.072587013244629,0.23270200192928314,-2.4257240295410156
1773048316130178000,2.129177978515625,9.071788787841797,0.2907279431819916,-1.8179470300674438
1773048316140160500,2.139160400390625,8.13798999786377,0.46779683232307434,-2.3778674602508545
1773048316150135300,2.14913525390625,10.814960479736328,0.12263216078281403,-1.5738791227340698
1773048316160315100,2.159315185546875,10.015159606933594,0.01734796352684498,-1.7413766384124756
1773048316170348500,2.1693486328125,7.802994728088379,0.8937192559242249,-3.077169895172119
1773048316180228600,2.179228515625,9.574281692504883,0.38644084334373474,-1.7509479522705078
1773048316190044700,2.189044677734375,11.25045394897461,-0.16450655460357666,-2.0620148181915283
1773048316200224500,2.199224609375,7.606783390045166,0.836291491985321,-1.908874273300171
1773048316210258700,2.2092587890625,9.210572242736816,0.4342973232269287,-1.8897316455841064
1773048316220218000,2.219218017578125,10.767104148864746,0.026919255033135414,-2.54536509513855
1773048316230211000,2.229211181640625,9.349356651306152,0.4534398913383484,-2.397010087966919
1773048316240174300,2.23917431640625,8.539983749389648,0.5204389095306396,-1.4297115802764893
1773048316250164500,2.24916455078125,10.40758228302002,0.050847481936216354,-2.0093727111816406
1773048316260044300,2.259044189453125,10.522438049316406,0.06520441919565201,-2.1337995529174805
1773048316269905000,2.26890478515625,8.760722160339355,0.6687939167022705,-1.2478569746017456
1773048316279892500,2.278892578125,9.45464038848877,0.43908295035362244,-2.2055842876434326
1773048316289863000,2.28886279296875,9.814162254333496,0.2907279431819916,-2.6608188152313232
1773048316299848700,2.2988486328125,9.34457015991211,0.1944168359041214,-0.9320043921470642
1773048316309820400,2.3088203125,9.119645118713379,0.28115665912628174,-1.2526426315307617
1773048316319998700,2.318998779296875,9.747162818908691,0.14656038582324982,-3.5365917682647705
1773048316329991400,2.328991455078125,9.68494987487793,0.21355941891670227,-1.5541383028030396
1773048316339955000,2.338954833984375,8.674580574035645,0.28594231605529785,-2.200798511505127
1773048316349944800,2.34894482421875,10.096514701843262,0.046061836183071136,-2.5262224674224854
1773048316359825000,2.358824951171875,10.642078399658203,-0.1453639715909958,-1.9471594095230103
1773048316369685200,2.368685302734375,8.736793518066406,0.18963119387626648,-2.0093727111816406
1773048316379867400,2.378867431640625,8.176275253295898,0.7357929348945618,-2.5645077228546143
1773048316389857000,2.38885693359375,10.657033920288086,-0.19322042167186737,-2.3682961463928223
1773048316399737000,2.398737060546875,10.211370468139648,0.06041877344250679,-1.9232312440872192
1773048316409597700,2.40859765625,7.055835723876953,0.6783652305603027,-2.0859432220458984
1773048316419779600,2.418779541015625,10.805388450622559,-0.2267199456691742,-1.6456637382507324
1773048316429769500,2.42876953125,10.661819458007812,-0.020937198773026466,-2.7565317153930664
1773048316439735800,2.43873583984375,8.525627136230469,0.6065805554389954,-2.9288148880004883
1773048316449723400,2.448723388671875,9.732806205749512,0.2231307178735733,-0.6783652305603027
1773048316459692000,2.458692138671875,10.944172859191895,0.15134602785110474,-3.263810157775879
1773048316469677600,2.468677490234375,8.271987915039062,0.3242274820804596,-2.4400808811187744
1773048316479648000,2.47864794921875,9.09093189239502,0.8793623447418213,-0.7405785918235779
1773048316489632300,2.48863232421875,10.0343017578125,0.5874379873275757,-3.249453067779541
1773048316499604200,2.498604248046875,10.000802040100098,-0.19322042167186737,-1.975873351097107
1773048316509587200,2.508587158203125,7.338188648223877,0.8123632669448853,-0.5635097622871399
1773048316519560400,2.518560546875,9.632308006286621,1.1856436729431152,-3.383451223373413
1773048316529542400,2.52854248046875,11.753544807434082,-0.14057832956314087,-1.1617153882980347
1773048316539516700,2.5385166015625,7.913064479827881,0.8171489238739014,-2.0476579666137695
1773048316549497900,2.548497802734375,9.756733894348145,0.5682953596115112,-2.5740790367126465
1773048316559378000,2.5583779296875,11.245668411254883,0.5587241053581238,0.001794616924598813
1773048316569240000,2.568239990234375,8.353343963623047,0.7980063557624817,-3.0388846397399902
1773048316579428900,2.578428955078125,9.957731246948242,0.7501499056816101,-2.066800594329834
1773048316589413000,2.5884130859375,10.240084648132324,0.8075776696205139,-0.989432156085968
1773048316599385000,2.598385009765625,8.985647201538086,0.5300102233886719,-2.2342982292175293
1773048316609368000,2.6083681640625,9.492925643920898,0.4821537733078003,-1.3435698747634888
1773048316619380000,2.6183798828125,10.38365364074707,1.0707881450653076,-2.7278177738189697
1773048316629366000,2.628365966796875,9.143573760986328,0.7022934556007385,-1.9806588888168335
1773048316639297300,2.63829736328125,10.211370468139648,0.23748764395713806,-1.0755738019943237
1773048316649278000,2.64827783203125,9.93380355834961,0.8841479420661926,-2.7038896083831787
1773048316659253500,2.65825341796875,9.34457015991211,0.8793623447418213,-1.7892330884933472
1773048316669233400,2.6682333984375,10.436295509338379,0.10348957777023315,-2.516651153564453
1773048316679209700,2.678209716796875,8.889934539794922,0.6305087804794312,-1.9280169010162354
1773048316689189400,2.688189453125,8.933005332946777,0.7214360237121582,-1.1377872228622437
1773048316699165700,2.698165771484375,9.550353050231934,0.28115665912628174,-3.029313564300537
1773048316709145000,2.70814501953125,10.220941543579102,0.18005990982055664,-1.5690934658050537
1773048316719122000,2.718121826171875,7.812565803527832,0.9798609018325806,-2.0955145359039307
1773048316729101000,2.72810107421875,10.091729164123535,0.15134602785110474,-1.9854445457458496
1773048316739078100,2.738078125,10.728818893432617,-0.04007977992296219,-1.1186445951461792
1773048316749057000,2.74805712890625,7.405188083648682,0.8410771489143372,-3.1106693744659424
1773048316758937000,2.75793701171875,10.36929702758789,0.2183450609445572,-1.908874273300171
1773048316768799700,2.7677998046875,10.733604431152344,0.09870393574237823,-1.9854445457458496
1773048316778796300,2.77779638671875,8.38684368133545,0.5587241053581238,-1.8035900592803955
1773048316788759300,2.78775927734375,9.46899700164795,0.44386860728263855,-2.1337995529174805
1773048316798946300,2.7979462890625,10.522438049316406,-0.1453639715909958,-2.3682961463928223
1773048316808932000,2.80793212890625,8.655437469482422,0.6161518096923828,-1.4727823734283447
1773048316818902500,2.817902587890625,8.496912956237793,0.8171489238739014,-2.38265323638916
1773048316828886800,2.82788671875,11.609376907348633,-0.4420739710330963,-1.913659930229187
1773048316838858800,2.837858642578125,8.118846893310547,0.6927221417427063,-1.9184455871582031
1773048316848841700,2.847841796875,9.478569030761719,0.9224331378936768,-2.296511650085449
1773048316858814700,2.857814697265625,11.298310279846191,-0.28893333673477173,-1.999801516532898
1773048316868797000,2.867796875,8.042277336120605,0.7310073375701904,-2.162513494491577
1773048316878676700,2.8776767578125,9.459425926208496,0.5108676552772522,-1.8945173025131226
1773048316888539000,2.887538818359375,10.690533638000488,0.30987054109573364,-2.0476579666137695
1773048316898727000,2.897726806640625,8.520841598510742,0.47258245944976807,-2.823530673980713
1773048316908712000,2.9077119140625,10.029516220092773,0.18963119387626648,-1.1904292106628418
1773048316918683100,2.91768310546875,9.258428573608398,0.6783652305603027,-2.272583246231079
1773048316928666600,2.92766650390625,8.15234661102295,0.9032905697822571,-2.9048867225646973
1773048316938639400,2.937639404296875,11.307881355285645,0.2231307178735733,-1.693520188331604
1773048316958595600,2.957595703125,8.92821979522705,0.49172505736351013,-2.1242282390594482
1773048316968577000,2.967576904296875,10.881958961486816,0.2715853750705719,-1.8705891370773315
1773048316978457000,2.97745703125,8.851649284362793,0.7310073375701904,-2.3060827255249023
1773048316988319200,2.9873193359375,9.598209381103516,0.6113662123680115,-1.7174484729766846
1773048316998507800,2.9975078125,10.886744499206543,0.3242274820804596,-2.1672990322113037
1773048317008492300,3.0074921875,8.933005332946777,0.36251261830329895,-1.9184455871582031
1773048317018464000,3.017464111328125,8.889934539794922,1.2813565731048584,-2.3060827255249023
1773048317028447200,3.027447265625,10.680961608886719,0.24227328598499298,-1.4727823734283447
1773048317038420000,3.037419921875,10.182656288146973,0.0364905446767807,-1.7174484729766846
1773048317048402200,3.047402099609375,7.668996810913086,1.2239288091659546,-2.8426733016967773
1773048317058376200,3.057376220703125,10.781460762023926,0.13220344483852386,-1.4009976387023926
1773048317068357600,3.067357666015625,9.569496154785156,0.2763710021972656,-1.688734531402588
1773048317078332400,3.07733251953125,9.637093544006348,0.7501499056816101,-3.1345977783203125
1773048317088313000,3.08731298828125,9.224929809570312,-0.054436713457107544,-1.1473584175109863
1773048317098288600,3.09728857421875,9.583852767944336,0.9224331378936768,-2.4113669395446777
1773048317108268800,3.107268798828125,11.47537899017334,0.251844584941864,-2.847458839416504
1773048317118244600,3.11724462890625,8.319844245910645,0.33379876613616943,-1.1186445951461792
1773048317128224500,3.127224609375,8.961718559265137,0.9032905697822571,-2.3874387741088867
1773048317138200800,3.137200927734375,10.944172859191895,0.10827522724866867,-2.0333011150360107
1773048317148180200,3.14718017578125,8.961718559265137,0.5252245664596558,-1.913659930229187
1773048317158158300,3.157158447265625,8.784649848937988,0.1657029688358307,-1.9806588888168335
1773048317168135200,3.16713525390625,9.972088813781738,0.8697910308837891,-1.8753747940063477
1773048317178114300,3.1771142578125,9.507282257080078,1.0707881450653076,-2.349153518676758
1773048317188091400,3.18709130859375,11.384451866149902,0.050847481936216354,-1.7030915021896362
1773048317198070300,3.1970703125,6.840481758117676,0.8937192559242249,-1.5643078088760376
1773048317208047400,3.20704736328125,10.216156005859375,1.6121642589569092,-2.7804598808288574
1773048317218026200,3.217026123046875,11.839686393737793,-0.19322042167186737,-0.8075776696205139
1773048317228003600,3.227003662109375,7.094120979309082,1.0085747241973877,-2.885744094848633
1773048317237982200,3.236982177734375,9.119645118713379,0.8123632669448853,-2.9527430534362793
1773048317247959800,3.246959716796875,9.507282257080078,0.8315058946609497,0.054436713457107544
1773048317257938200,3.256938232421875,10.086943626403809,1.2287144660949707,-3.1202406883239746
1773048317267915800,3.266915771484375,9.7998046875,0.3242274820804596,-3.3690943717956543
1773048317277894400,3.276894287109375,7.462615489959717,0.9463613629341125,0.34636107087135315
1773048317287872000,3.2868720703125,11.973684310913086,1.2765709161758423,-3.7190446853637695
1773048317297850400,3.296850341796875,9.31585693359375,0.4247260093688965,-2.310868501663208
1773048317307828200,3.306828125,8.81814956665039,1.262213945388794,-2.0141584873199463
1773048317317806300,3.316806396484375,8.937790870666504,1.1569297313690186,-2.028515338897705
1773048317327784200,3.3267841796875,10.417153358459473,0.5539384484291077,-1.913659930229187
1773048317337762600,3.336762451171875,8.583653450012207,1.3776676654815674,-2.4161527156829834
1773048317347642600,3.346642578125,8.38684368133545,1.1330015659332275,-1.827518343925476
1773048317357463000,3.356463134765625,10.786246299743652,0.592223584651947,-1.76051926612854
1773048317367643000,3.366642822265625,8.885149002075195,0.7310073375701904,-1.3052847385406494
1773048317377680000,3.376679931640625,8.8707914352417,0.9128618240356445,-2.8905298709869385
1773048317387652600,3.386652587890625,10.555936813354492,0.7932206988334656,-1.4679967164993286
1773048317397634800,3.396634765625,9.373284339904785,0.6352944374084473,-1.0803594589233398
1773048317407608800,3.40660888671875,10.120443344116211,0.7262216806411743,-2.770888566970825
1773048317417590300,3.41659033203125,9.19143009185791,0.7262216806411743,-1.5690934658050537
1773048317427565000,3.42656494140625,9.732806205749512,0.7884350419044495,-1.4249259233474731
1773048317437545700,3.436545654296875,10.517651557922363,0.6544370055198669,-2.444866418838501
1773048317447425800,3.44642578125,7.975277900695801,1.046859860420227,-1.7700905799865723
1773048317457245700,3.45624560546875,10.450653076171875,0.3529413342475891,-1.9184455871582031
1773048317467425500,3.466425537109375,9.138788223266602,0.7262216806411743,-2.6321048736572266
1773048317477462000,3.4764619140625,9.009575843811035,0.9750752449035645,-1.731805443763733
1773048317487433500,3.48643359375,10.819746017456055,0.49651068449020386,-2.4783661365509033
1773048317497417000,3.4964169921875,8.516056060791016,0.2955136001110077,-2.301297187805176
1773048317507389400,3.506389404296875,10.17308521270752,0.46779683232307434,-1.975873351097107
1773048317517372000,3.516371826171875,8.569295883178711,0.7070791125297546,-2.0620148181915283
1773048317527345700,3.526345703125,11.47537899017334,-0.13100704550743103,-2.1433708667755127
1773048317537327400,3.536327392578125,9.129216194152832,-0.29371899366378784,-1.9232312440872192
1773048317547302000,3.546302001953125,8.429914474487305,0.2715853750705719,-1.7365909814834595
1773048317557282800,3.55628271484375,11.274381637573242,-0.6287141442298889,-1.9902302026748657
1773048317567258000,3.566258056640625,8.96650505065918,-0.32721850275993347,-1.4297115802764893
1773048317577238500,3.576238525390625,9.46899700164795,-0.11665010452270508,-1.9950158596038818
1773048317587214000,3.586214111328125,9.593423843383789,-0.5952146053314209,-2.263011932373047
1773048317597194000,3.596194091796875,9.737591743469238,-0.5473581552505493,-1.693520188331604
1773048317607074000,3.606073974609375,9.239286422729492,-0.006580262444913387,-1.583450436592102
1773048317616894200,3.615894287109375,10.374082565307617,-0.4899304509162903,-2.8139593601226807
1773048317627074300,3.62607421875,9.201001167297363,-0.7387840151786804,-2.2295124530792236
1773048317637110800,3.63611083984375,8.990432739257812,-0.6861419081687927,-1.3962119817733765
1773048317646990800,3.645990966796875,10.398011207580566,-0.8733802437782288,-2.54536509513855
1773048317656810000,3.65581005859375,9.583852767944336,-0.8111668825149536,-2.2342982292175293
1773048317666989800,3.66598974609375,9.033503532409668,-0.6191428303718567,-1.7078771591186523
1773048317677025800,3.67602587890625,9.004789352416992,-0.26500511169433594,-2.0380866527557373
1773048317686994700,3.68599462890625,10.685748100280762,-0.0687936544418335,-1.4871392250061035
1773048317696980200,3.695980224609375,9.93380355834961,-0.5234299302101135,-1.5158531665802002
1773048317706951000,3.705950927734375,8.248059272766113,-0.4995017349720001,-2.7278177738189697
1773048317716935000,3.715934814453125,10.40758228302002,-0.5042873620986938,-2.3778674602508545
1773048317726907100,3.7259072265625,10.139585494995117,-0.45164528489112854,-1.8705891370773315
1773048317736890000,3.73589013671875,9.339784622192383,-0.542572557926178,-3.2303106784820557
1773048317746770000,3.74577001953125,8.937790870666504,-0.15972091257572174,-1.827518343925476
1773048317756589600,3.755589599609375,9.363713264465332,-0.26979073882102966,-2.4783661365509033
1773048317766769400,3.765769287109375,9.583852767944336,-0.22193430364131927,-1.7270197868347168
1773048317776805600,3.7758056640625,9.531210899353027,-0.0687936544418335,-1.444068431854248
1773048317786775600,3.785775634765625,10.130014419555664,-0.34636107087135315,-2.373081922531128
1773048317796760300,3.79576025390625,9.196215629577637,-0.5760720372200012,-2.152942180633545
1773048317806640000,3.80564013671875,9.057432174682617,-0.4612165689468384,-1.4679967164993286
1773048317816459300,3.815459228515625,9.885947227478027,-0.5569294691085815,-2.7278177738189697
1773048317826455000,3.825455078125,9.502496719360352,-0.1740778535604477,-2.5501506328582764
1773048317836418800,3.835418701171875,9.680164337158203,-0.389431893825531,-0.5730810165405273
1773048317846411000,3.845410888671875,9.397212982177734,-0.6143572330474854,-3.383451223373413
1773048317856377900,3.8553779296875,8.885149002075195,-0.001794616924598813,-1.9280169010162354
1773048317866557700,3.8655576171875,10.512866020202637,-0.19322042167186737,-1.5014961957931519
1773048317876592600,3.875592529296875,9.023932456970215,-0.5330012440681458,-2.48315167427063
1773048317886556200,3.88555615234375,9.167501449584961,-0.24586252868175507,-1.607378602027893
1773048317896546000,3.895546142578125,10.17308521270752,-0.5617151260375977,-1.9950158596038818
1773048317906512600,3.9055126953125,9.134002685546875,-0.48035913705825806,-2.5740790367126465
1773048317916500000,3.9155,10.182656288146973,-0.3080759048461914,-1.534995675086975
1773048317926468600,3.925468505859375,9.976874351501465,-0.5138586759567261,-2.1194427013397217
1773048317936454100,3.9354541015625,8.559126853942871,-0.35114672780036926,-1.9710876941680908
1773048317946424800,3.9454248046875,10.53200912475586,-0.24586252868175507,-1.113858938217163
1773048317956408800,3.955408935546875,8.880363464355469,-0.0975075215101242,-3.053241729736328
1773048317966381000,3.965381103515625,9.871589660644531,-0.45164528489112854,-1.2430713176727295
1773048317976364000,3.975364013671875,8.971290588378906,-0.42771705985069275,-1.7030915021896362
1773048317986337300,3.985337158203125,9.718449592590332,-0.0687936544418335,-2.3300111293792725
1773048317996319200,3.9953193359375,10.642078399658203,-0.5808576941490173,-2.2199411392211914
1773048318006293500,4.00529345703125,8.257631301879883,-0.21236300468444824,-2.0955145359039307
1773048318016274700,4.015274658203125,9.991230964660645,-0.355932354927063,-1.4009976387023926
1773048318026249700,4.025249755859375,9.938589096069336,-0.5665007829666138,-3.115455150604248
1773048318036230100,4.035230224609375,8.539983749389648,0.08434699475765228,-1.8658034801483154
1773048318046110200,4.045110107421875,11.470593452453613,-0.4133601188659668,-0.2805584669113159
1773048318055972600,4.05497265625,7.941778182983398,-0.5234299302101135,-4.030111312866211
1773048318066162000,4.065161865234375,9.086145401000977,-0.2267199456691742,-1.578664779663086
1773048318076145700,4.075145751953125,11.14038372039795,-0.4612165689468384,-0.3332005441188812
1773048318086118100,4.0851181640625,8.703293800354004,-0.4612165689468384,-3.690330743789673
1773048318096100900,4.095100830078125,9.114859580993652,-0.4612165689468384,-1.357926845550537
1773048318106074400,4.105074462890625,9.043074607849121,-0.47557350993156433,-1.7174484729766846
1773048318116056000,4.11505615234375,11.293524742126465,-0.6622136831283569,-2.516651153564453
1773048318126030300,4.1250302734375,8.080561637878418,-0.4612165689468384,-1.4584254026412964
1773048318136011500,4.135011474609375,10.024730682373047,-0.1740778535604477,-2.3778674602508545
1773048318145891600,4.1448916015625,10.398011207580566,-0.4133601188659668,-1.8418751955032349
1773048318155711200,4.154711181640625,8.875576972961426,-0.48035913705825806,-1.8179470300674438
1773048318165891300,4.164891357421875,8.248059272766113,-0.030508488416671753,-1.7892330884933472
1773048318175927800,4.174927734375,10.915458679199219,-0.6382854580879211,-1.7892330884933472
1773048318185898800,4.184898681640625,8.92821979522705,-0.5234299302101135,-1.9040886163711548
1773048318195882500,4.194882568359375,8.909076690673828,-0.2267199456691742,-2.5357937812805176
1773048318205855000,4.20485498046875,10.412367820739746,-0.633499801158905,-1.693520188331604
1773048318215837700,4.214837646484375,8.937790870666504,-0.42771705985069275,-2.723032236099243
1773048318225717800,4.2247177734375,10.584650993347168,-0.48514479398727417,-1.176072359085083
1773048318235597600,4.23459765625,9.78544807434082,-0.39421752095222473,-1.8801604509353638
1773048318245534500,4.244534423828125,9.90987491607666,-0.42771705985069275,-2.9958138465881348
1773048318255497700,4.254497802734375,8.62193775177002,-0.4468596279621124,-1.6169499158859253
1773048318265677800,4.264677734375,10.268798828125,-0.4707878530025482,-1.784447431564331
1773048318275713300,4.27471337890625,9.93380355834961,-0.40378883481025696,-2.1337995529174805
1773048318285679600,4.2846796875,8.549555778503418,-0.5042873620986938,-2.35872483253479
1773048318295667200,4.294667236328125,9.56471061706543,-0.28893333673477173,-1.6791633367538452
1773048318305635800,4.3046357421875,9.914660453796387,-0.389431893825531,-1.8418751955032349
1773048318315621600,4.31462158203125,10.359725952148438,-0.5042873620986938,-2.2582263946533203
1773048318325592000,4.324592041015625,8.492127418518066,-0.18364913761615753,-1.7365909814834595
1773048318335576000,4.334576171875,10.522438049316406,-0.5808576941490173,-1.9663020372390747
1773048318345548300,4.34454833984375,9.320642471313477,-0.2602194547653198,-2.186441659927368
1773048318355531300,4.35453125,8.530412673950195,-0.20757736265659332,-2.3874387741088867
1773048318365504500,4.36450439453125,10.125228881835938,-0.7435696125030518,-1.0564311742782593
1773048318375486500,4.374486572265625,8.674580574035645,-0.39421752095222473,-2.42093825340271
1773048318385460700,4.384460693359375,9.804591178894043,-0.4085744619369507,-2.090728759765625
1773048318395442000,4.39444189453125,9.569496154785156,-0.42771705985069275,-1.3052847385406494
1773048318405416700,4.404416748046875,9.009575843811035,-0.1453639715909958,-2.459223508834839
1773048318415397400,4.4143974609375,10.431509971618652,-0.6717849373817444,-2.430509567260742
1773048318425373000,4.424373046875,8.396414756774902,-0.07836493849754333,-1.2095718383789062
1773048318435353000,4.43435302734375,10.211370468139648,-0.47557350993156433,-1.7413766384124756
1773048318445329200,4.4443291015625,10.04865837097168,-0.6287141442298889,-3.005385160446167
1773048318455308800,4.454308837890625,7.946564197540283,0.09391828626394272,-2.406581401824951
1773048318465285400,4.464285400390625,10.110872268676758,-0.5282155871391296,-1.4344971179962158
1773048318475264800,4.4742646484375,9.320642471313477,-0.40378883481025696,-1.046859860420227
1773048318485241600,4.48424169921875,8.918647766113281,-0.24107688665390015,-3.699902057647705
1773048318495220700,4.494220703125,9.608379364013672,-0.35114672780036926,-1.0277173519134521
1773048318505197800,4.50419775390625,9.574281692504883,-0.48514479398727417,-0.8410771489143372
1773048318515176700,4.5141767578125,9.325428009033203,-0.2793620526790619,-3.579662561416626
1773048318525153800,4.52415380859375,10.130014419555664,-0.355932354927063,-1.4871392250061035
1773048318535132700,4.534132568359375,9.833304405212402,-0.666999340057373,-1.3866406679153442
1773048318545110000,4.544110107421875,8.698508262634277,-0.2267199456691742,-2.6703901290893555
1773048318555088600,4.554088623046875,10.666604995727539,-0.3607180118560791,-2.2917258739471436
1773048318565066200,4.564066162109375,9.368498802185059,-0.3846462368965149,-2.737389087677002
1773048318575044600,4.574044677734375,8.434700012207031,-0.355932354927063,-1.0564311742782593
1773048318585061000,4.58406103515625,10.398011207580566,-0.4468596279621124,-1.784447431564331
1773048318595043600,4.594043701171875,9.114859580993652,-0.3846462368965149,-2.943171739578247
1773048318604978700,4.603978759765625,9.919445991516113,-0.5042873620986938,-1.2382856607437134
1773048318614956000,4.6139560546875,8.405985832214355,-0.35114672780036926,-1.583450436592102
1773048318624934700,4.6239345703125,11.145169258117676,-0.47557350993156433,-3.2207393646240234
1773048318634912500,4.63391259765625,9.857233047485352,-0.5234299302101135,-1.602592945098877
1773048318644891000,4.643890869140625,8.674580574035645,0.1657029688358307,-1.3674981594085693
1773048318654868700,4.65386865234375,10.412367820739746,1.085145115852356,-2.286940336227417
1773048318664847000,4.66384716796875,10.398011207580566,0.12741780281066895,-2.5405795574188232
1773048318674824700,4.67382470703125,8.92821979522705,-0.753140926361084,-1.4297115802764893
1773048318684803300,4.68380322265625,7.165905475616455,-0.28893333673477173,-1.8323038816452026
1773048318694781200,4.69378125,10.364511489868164,0.5874379873275757,-2.8666014671325684
1773048318704759300,4.70375927734375,11.480164527893066,0.9702895879745483,-1.0372886657714844
1773048318714737200,4.713737060546875,9.996016502380371,-0.4085744619369507,-2.6225335597991943
1773048318724715500,4.723715576171875,7.304689407348633,-0.7292127013206482,-2.6703901290893555
1773048318734693600,4.733693603515625,8.602795600891113,0.4295116662979126,-0.4624129831790924
1773048318744671700,4.743671630859375,12.0933256149292,1.4350954294204712,-1.9854445457458496
1773048318754649600,4.753649658203125,9.483354568481445,0.9655039310455322,-2.6560330390930176
1773048318764628000,4.7636279296875,9.296713829040527,-0.48514479398727417,-0.6879364848136902
1773048318774605800,4.773605712890625,7.146762847900391,-0.29850462079048157,-3.239881753921509
1773048318784584000,4.783583984375,9.905089378356934,0.6831508874893188,-1.9854445457458496
1773048318794562000,4.79356201171875,11.571091651916504,-0.4707878530025482,-2.1481566429138184
1773048318804540200,4.8035400390625,7.611568927764893,-0.5234299302101135,-0.745364248752594
1773048318814518300,4.813518310546875,8.631509780883789,-0.15493527054786682,-1.937588095664978
1773048318824496400,4.823496337890625,10.402796745300293,-0.355932354927063,-2.296511650085449
1773048318834474500,4.833474609375,10.163514137268066,0.01734796352684498,-1.607378602027893
1773048318844452600,4.84345263671875,7.39561653137207,-0.2554338276386261,-0.9367900490760803
1773048318854430500,4.853430419921875,9.981659889221191,-0.6047859191894531,-1.9902302026748657
1773048318864408600,4.86340869140625,9.708877563476562,-0.6239284873008728,-2.3060827255249023
1773048318874386700,4.87338671875,10.000802040100098,-0.3367897868156433,-1.353141188621521
1773048318884364800,4.88336474609375,8.918647766113281,-0.35114672780036926,-1.932802438735962
1773048318894343000,4.893343017578125,9.914660453796387,-0.6813562512397766,-2.578864574432373
1773048318904321000,4.903321044921875,8.228917121887207,-0.5473581552505493,-2.430509567260742
1773048318914299100,4.913299072265625,10.268798828125,-0.2267199456691742,-1.3627125024795532
1773048318924277200,4.92327734375,10.719246864318848,-0.5138586759567261,-2.4975085258483887
1773048318934255400,4.93325537109375,8.276773452758789,-0.12143574655056,-2.8905298709869385
1773048318944233200,4.943233154296875,9.598209381103516,-0.28893333673477173,-0.6640082597732544
1773048318954211300,4.95321142578125,10.72403335571289,-0.6430711150169373,-2.0141584873199463
1773048318964189400,4.963189453125,10.17308521270752,-0.48035913705825806,-1.937588095664978
1773048318974167600,4.97316748046875,8.846863746643066,-0.1501496136188507,-1.5206388235092163
1773048318984145700,4.983145751953125,10.106086730957031,-0.6574280261993408,-2.531008243560791
1773048318994123800,4.993123779296875,9.009575843811035,-0.5808576941490173,-1.9519450664520264
1773048319004102000,5.003101806640625,9.268000602722168,-0.37507495284080505,-2.5405795574188232
1773048319014080000,5.013080078125,10.704890251159668,-0.389431893825531,-1.5493526458740234
1773048319024057900,5.023057861328125,9.464211463928223,-0.37507495284080505,-1.6169499158859253
1773048319034036000,5.033035888671875,8.81814956665039,-0.11665010452270508,-2.7517459392547607
1773048319044014000,5.04301416015625,9.602995872497559,-0.4181457459926605,-1.7078771591186523
1773048319053992200,5.0529921875,10.139585494995117,-0.542572557926178,-1.5738791227340698
1773048319063970300,5.06297021484375,8.34855842590332,-0.08793623000383377,-2.6273193359375
1773048319073948400,5.072948486328125,10.096514701843262,-0.45164528489112854,-1.171286702156067
1773048319083926500,5.082926513671875,9.301499366760254,-0.6526423692703247,-2.129014015197754
1773048319093904600,5.092904541015625,8.703293800354004,-0.1740778535604477,-1.9423737525939941
1773048319103882500,5.102882568359375,10.972886085510254,-0.4899304509162903,-0.9511470198631287
1773048319113860600,5.112860595703125,8.899505615234375,-0.07836493849754333,-3.5605201721191406
1773048319123800000,5.122800048828125,8.559126853942871,-0.3080759048461914,-1.4344971179962158
1773048319133774000,5.132774169921875,10.130014419555664,-0.5521438121795654,-2.2773690223693848
1773048319143795000,5.142794921875,9.268000602722168,-0.21714866161346436,-2.5118656158447266
1773048319153773800,5.15277392578125,10.603793144226074,-0.6287141442298889,-1.1569297313690186
1773048319163712300,5.162712158203125,8.453842163085938,-0.2554338276386261,-2.3778674602508545
1773048319173687000,5.17268701171875,9.574281692504883,-0.21236300468444824,-2.1194427013397217
1773048319183707100,5.18270703125,10.613365173339844,-0.3367897868156433,-1.731805443763733
1773048319193686500,5.1926865234375,8.506484031677246,0.46779683232307434,-2.2582263946533203
1773048319203624400,5.20262451171875,10.230513572692871,0.0891326442360878,-1.7748762369155884
1773048319213599700,5.212599853515625,9.602995872497559,-0.4325026869773865,-2.2534406185150146
1773048319223580700,5.22258056640625,8.92821979522705,0.26201409101486206,-1.6648063659667969
1773048319243537000,5.242536865234375,10.613365173339844,0.09391828626394272,-3.5365917682647705
1773048319253513200,5.25251318359375,8.449056625366211,-0.3080759048461914,-2.1577277183532715
1773048319263531800,5.26253173828125,9.143573760986328,0.28594231605529785,-1.1234302520751953
1773048319273512400,5.272512451171875,10.110872268676758,0.8410771489143372,-2.5597219467163086
1773048319283488000,5.282488037109375,11.384451866149902,-0.2745763957500458,-1.8705891370773315
1773048319293468000,5.292468017578125,7.884350776672363,-0.5138586759567261,-1.4536397457122803
1773048319303405300,5.3024052734375,8.267202377319336,0.026919255033135414,-1.9232312440872192
1773048319313381000,5.312381103515625,10.762317657470703,0.3720839321613312,-1.7653049230575562
1773048319323284000,5.322283935546875,10.374082565307617,-0.15493527054786682,-2.5405795574188232
1773048319333252400,5.33225244140625,8.415556907653809,-0.01615155301988125,-1.2191431522369385
1773048319343240000,5.342239990234375,8.563912391662598,-1.031306505203247,-1.357926845550537
1773048319353210400,5.35221044921875,10.594222068786621,-0.9499505758285522,-2.3156540393829346
1773048319363157200,5.3621572265625,9.311071395874023,1.0707881450653076,-1.4632110595703125
1773048319373125400,5.37212548828125,11.394022941589355,-0.8877372145652771,-1.3770694732666016
1773048319383074600,5.382074462890625,8.918647766113281,-1.160519003868103,-2.8426733016967773
1773048319393041000,5.392041015625,6.380461692810059,0.6209374666213989,-1.7988044023513794
1773048319402953200,5.401953125,12.342179298400879,-0.45643091201782227,-1.26699960231781
1773048319412914000,5.411913818359375,9.986445426940918,-0.1740778535604477,-2.162513494491577
1773048319422909200,5.4219091796875,8.01356315612793,-0.12622138857841492,-1.6360924243927002
1773048319432873500,5.43187353515625,9.057432174682617,-1.1174482107162476,-1.4871392250061035
1773048319442826500,5.441826416015625,9.55513858795166,-0.20757736265659332,-2.713460922241211
1773048319452789500,5.45178955078125,10.474580764770508,0.7549355626106262,-0.9990034699440002
1773048319462743800,5.461743896484375,9.162715911865234,0.14656038582324982,-2.066800594329834
1773048319472706000,5.4717060546875,10.0343017578125,-1.2897313833236694,-2.4017956256866455
1773048319482661000,5.4816611328125,7.659425258636475,0.14656038582324982,-0.6735795736312866
1773048319492622600,5.49162255859375,10.728818893432617,0.8554341197013855,-1.674377679824829
1773048319502578400,5.501578369140625,11.729616165161133,-0.16929219663143158,-2.406581401824951
1773048319512539400,5.511539306640625,8.23848819732666,-0.48514479398727417,-1.113858938217163
1773048319522457000,5.52145703125,6.917052268981934,0.5874379873275757,-2.459223508834839
1773048319532413700,5.53141357421875,9.938589096069336,1.2765709161758423,-1.7222341299057007
1773048319542413000,5.5414130859375,13.070195198059082,-0.32243284583091736,-1.1521440744400024
1773048319552373800,5.551373779296875,7.328617572784424,0.33858439326286316,-1.7126628160476685
1773048319562291700,5.561291748046875,8.267202377319336,-0.2315055876970291,-1.6360924243927002
1773048319572248300,5.571248291015625,10.714461326599121,-0.13579268753528595,-1.9663020372390747
1773048319582170400,5.58117041015625,9.775876998901367,1.3441680669784546,-2.3156540393829346
1773048319592123600,5.59112353515625,11.33659553527832,0.4055834412574768,-1.607378602027893
1773048319602087400,5.60108740234375,7.960920810699463,-0.5808576941490173,-1.3052847385406494
1773048319612041700,5.611041748046875,8.257631301879883,-0.07836493849754333,-2.9240293502807617
1773048319622043100,5.621043212890625,9.981659889221191,1.1282159090042114,-1.2382856607437134
1773048319632002300,5.631002197265625,11.681161880493164,0.8602197170257568,-0.7405785918235779
1773048319642182100,5.64118212890625,9.445069313049316,-0.355932354927063,-3.1824541091918945
1773048319652362200,5.6513623046875,6.534200668334961,0.046061836183071136,-2.200798511505127
1773048319662542300,5.661542236328125,9.952945709228516,1.3489537239074707,-1.5158531665802002
1773048319672653000,5.671653076171875,12.681960105895996,1.3010972738265991,-1.420140266418457
1773048319682610700,5.681610595703125,10.374082565307617,-0.21714866161346436,-1.3100703954696655
1773048319692605200,5.691605224609375,6.955337047576904,-0.13579268753528595,-2.397010087966919
1773048319702567200,5.701567138671875,8.3629150390625,1.4685949087142944,-1.7413766384124756
1773048319712558300,5.711558349609375,13.769497871398926,1.2095718383789062,-0.6831508874893188
1773048319722523400,5.7215234375,10.139585494995117,0.5826523303985596,-2.5262224674224854
1773048319732512000,5.731511962890625,6.169893264770508,0.0029910283628851175,-1.8801604509353638
1773048319742479600,5.741479736328125,9.46899700164795,0.19920247793197632,-0.8075776696205139
1773048319752466000,5.7514658203125,10.767104148864746,1.01814603805542,-1.109073281288147
1773048319762435800,5.761435791015625,11.671590805053711,0.5443671345710754,-2.2677977085113525
1773048319772420600,5.771420654296875,7.496115207672119,-0.11665010452270508,-1.6983058452606201
1773048319782392000,5.78139208984375,8.200202941894531,0.12263216078281403,-1.9615163803100586
1773048319792375600,5.79137548828125,10.824531555175781,0.9798609018325806,-1.5690934658050537
1773048319802348000,5.80134814453125,11.997612953186035,0.41994038224220276,-1.0707881450653076
1773048319812330500,5.81133056640625,9.502496719360352,-0.3655036687850952,-2.1194427013397217
1773048319822304300,5.82130419921875,6.79741096496582,-0.29371899366378784,-2.3539392948150635
1773048319832286000,5.831285888671875,10.316655158996582,0.7357929348945618,-1.1856436729431152
1773048319842165800,5.841165771484375,11.724830627441406,1.0133603811264038,-1.9615163803100586
1773048319852045800,5.8510458984375,9.339784622192383,0.1417747437953949,-2.1194427013397217
1773048319862216700,5.861216796875,7.558926582336426,-0.4085744619369507,-1.482353687286377
1773048319872203000,5.871203125,9.033503532409668,0.7166503667831421,-1.6791633367538452
1773048319882083000,5.8810830078125,12.107682228088379,1.089930772781372,-1.046859860420227
1773048319891901700,5.890901611328125,11.523235321044922,0.1944168359041214,-2.0093727111816406
1773048319902081500,5.90108154296875,6.639484405517578,-0.01136590726673603,-2.263011932373047
1773048319912117500,5.911117431640625,8.286344528198242,0.7549355626106262,-2.6273193359375
1773048319922085000,5.921085205078125,12.155538558959961,1.339382529258728,-0.7214360237121582
1773048319932071400,5.931071533203125,11.092527389526367,0.2470589429140091,-1.439282774925232
1773048319942080300,5.941080322265625,7.491329669952393,0.012562318705022335,-2.152942180633545
1773048319952068900,5.95106884765625,6.931408882141113,0.7692924737930298,-1.9184455871582031
1773048319961997600,5.96099755859375,11.787044525146484,1.5451651811599731,-1.3244273662567139
1773048319971980300,5.970980224609375,11.662019729614258,0.3577269911766052,-2.272583246231079
1773048319981860000,5.980860107421875,7.022336483001709,0.3577269911766052,-0.8937192559242249
1773048319991679700,5.9906796875,8.26241683959961,0.6783652305603027,-2.823530673980713
1773048320001859600,6.000859619140625,11.815757751464844,0.9367900490760803,-1.4679967164993286
1773048320011895800,6.010895751953125,11.413166046142578,0.4247260093688965,-1.0660024881362915
1773048320021866000,6.020865966796875,7.573283672332764,0.4103690981864929,-2.857030153274536
1773048320031850500,6.0308505859375,7.232904434204102,1.1282159090042114,-1.9280169010162354
1773048320041822200,6.040822265625,12.208181381225586,0.6065805554389954,-1.2382856607437134
1773048320051805400,6.050805419921875,10.450653076171875,0.4773681163787842,-1.0995019674301147
1773048320061778200,6.060778076171875,7.2711896896362305,0.2566302418708801,-2.0859432220458984
1773048320071760400,6.070760498046875,8.741579055786133,0.592223584651947,-2.1003000736236572
1773048320081640400,6.080640380859375,11.3509521484375,0.9559326171875,-1.3148560523986816
1773048320091460000,6.090460205078125,10.287940979003906,0.6448656916618347,-3.139383316040039
1773048320101640200,6.10064013671875,7.846065521240234,0.09391828626394272,-1.1808580160140991
1773048320111676400,6.110676513671875,8.923434257507324,0.3194418251514435,-1.7030915021896362
1773048320121646600,6.120646484375,10.73838996887207,1.4925230741500854,-1.731805443763733
1773048320131631000,6.130631103515625,11.221739768981934,0.4342973232269287,-2.248655080795288
1773048320141603000,6.14060302734375,7.376473903656006,0.1944168359041214,-1.5690934658050537
1773048320151586000,6.1505859375,8.530412673950195,1.2478569746017456,-2.516651153564453
1773048320161466000,6.160466064453125,11.188240051269531,0.7262216806411743,-1.5206388235092163
1773048320171285500,6.170285400390625,11.22652530670166,0.3720839321613312,-1.0755738019943237
1773048320181465300,6.18046533203125,6.864409923553467,0.6017948985099792,-2.1098713874816895
1773048320191501600,6.19050146484375,9.68494987487793,0.7405785918235779,-2.2773690223693848
1773048320201471200,6.20047119140625,11.638091087341309,1.176072359085083,-1.5206388235092163
1773048320211456300,6.210456298828125,9.747162818908691,0.5778666734695435,-2.1098713874816895
1773048320221427700,6.220427734375,8.26241683959961,0.3242274820804596,-1.3866406679153442
1773048320231411000,6.230410888671875,9.196215629577637,0.865005373954773,-2.0380866527557373
1773048320241383700,6.2403837890625,10.944172859191895,0.7597211599349976,-1.4967105388641357
1773048320251366100,6.2503662109375,10.120443344116211,0.12263216078281403,-2.1242282390594482
1773048320261340000,6.26033984375,7.180262565612793,0.9846464991569519,-2.444866418838501
1773048320271321300,6.2703212890625,10.388439178466797,0.7501499056816101,-1.5254244804382324
1773048320281296100,6.280296142578125,11.092527389526367,0.5491527915000916,-2.090728759765625
1773048320291277000,6.290277099609375,8.104490280151367,0.1417747437953949,-1.195214867591858
1773048320301252400,6.30025244140625,9.220144271850586,0.6687939167022705,-1.937588095664978
1773048320311232500,6.310232421875,10.469795227050781,1.2287144660949707,-2.296511650085449
1773048320321112600,6.320112548828125,10.757532119750977,0.28115665912628174,-1.6169499158859253
1773048320330932500,6.329932373046875,8.204988479614258,0.36251261830329895,-1.262213945388794
1773048320340931800,6.339931884765625,8.338987350463867,0.9367900490760803,-1.583450436592102
1773048320350892800,6.349892822265625,12.117254257202148,0.7310073375701904,-1.693520188331604
1773048320361072600,6.36007275390625,9.627521514892578,0.19920247793197632,-1.415354609489441
1773048320371108600,6.370108642578125,7.869993686676025,0.625723123550415,-2.4735803604125977
1773048320381076700,6.38007666015625,9.780662536621094,1.0995019674301147,-1.913659930229187
1773048320391062800,6.390062744140625,11.72004508972168,0.4582255482673645,-0.6975077986717224
1773048320401033000,6.400032958984375,9.162715911865234,0.20398813486099243,-2.1816561222076416
1773048320411017500,6.410017578125,7.39561653137207,0.6161518096923828,-1.7078771591186523
1773048320420989200,6.4199892578125,10.9633150100708,0.9272187948226929,-1.5882359743118286
1773048320430972400,6.429972412109375,10.527223587036133,0.5635097622871399,-2.8139593601226807
1773048320440945400,6.4399453125,9.41635513305664,0.12263216078281403,-1.3770694732666016
1773048320450927600,6.449927734375,8.415556907653809,0.7740781307220459,-0.8315058946609497
1773048320460901600,6.459901611328125,10.944172859191895,1.1377872228622437,-3.335594654083252
1773048320470882800,6.4698828125,10.925029754638672,-0.07357929646968842,-1.2478569746017456
1773048320480857900,6.47985791015625,7.299903869628906,0.836291491985321,-1.1904292106628418
1773048320490838500,6.489838623046875,9.535996437072754,1.2382856607437134,-2.569293260574341
1773048320500813800,6.499813720703125,12.40439224243164,-0.29371899366378784,-1.26699960231781
1773048320510794000,6.5097939453125,8.104490280151367,0.6735795736312866,-0.9846464991569519
1773048320520770000,6.51977001953125,8.37727165222168,0.9463613629341125,-2.0955145359039307
1773048320530750000,6.52975,11.494522094726562,0.30987054109573364,-2.191227436065674
1773048320540726300,6.539726318359375,8.94257640838623,0.6448656916618347,-2.373081922531128
1773048320550705700,6.54970556640625,7.558926582336426,0.6065805554389954,-1.6265212297439575
1773048320560682500,6.5596826171875,10.455438613891602,0.2470589429140091,-0.7597211599349976
1773048320570661600,6.56966162109375,10.690533638000488,0.3768695592880249,-2.885744094848633
1773048320580638700,6.579638671875,8.722436904907227,0.8171489238739014,-2.210369825363159
1773048320590617600,6.58961767578125,9.862018585205078,0.7166503667831421,-1.82273268699646
1773048320600595000,6.599594970703125,10.005587577819824,0.2955136001110077,-2.0333011150360107
1773048320610573600,6.609573486328125,8.995218276977539,0.5587241053581238,-1.2191431522369385
1773048320620551000,6.619551025390625,8.665008544921875,1.2143574953079224,-2.794816732406616
1773048320630529800,6.62952978515625,10.469795227050781,0.5300102233886719,-1.3866406679153442
1773048320640409600,6.63940966796875,10.560722351074219,-0.08793623000383377,-1.4249259233474731
1773048320650230000,6.64922998046875,7.539783954620361,1.2813565731048584,-2.857030153274536
1773048320660230400,6.65923046875,9.89551830291748,1.1617153882980347,-2.0237298011779785
1773048320670190300,6.6691904296875,12.634103775024414,-0.16929219663143158,-0.7549355626106262
1773048320680370400,6.679370361328125,8.62193775177002,0.050847481936216354,-1.6504493951797485
1773048320690406400,6.689406494140625,7.0893354415893555,1.6121642589569092,-3.3643085956573486
1773048320700375600,6.69937548828125,12.016755104064941,0.39122650027275085,-2.176870346069336
1773048320710360800,6.70936083984375,11.441879272460938,-0.2554338276386261,-0.23748764395713806
1773048320720331800,6.719331787109375,6.639484405517578,0.9080761671066284,-2.4496521949768066
1773048320730315800,6.729315673828125,9.857233047485352,0.6592226624488831,-2.5740790367126465
1773048320740195600,6.739195556640625,12.06939697265625,0.08434699475765228,-0.7692924737930298
1773048320750015000,6.749014892578125,8.3629150390625,0.46779683232307434,-2.1098713874816895
1773048320760011300,6.75901123046875,8.48734188079834,0.6783652305603027,-1.2574282884597778
1773048320769974500,6.768974609375,11.011171340942383,0.5826523303985596,-2.076371908187866
1773048320779967200,6.77896728515625,10.412367820739746,0.07956135272979736,-1.8610178232192993
1773048320789933600,6.78893359375,8.094919204711914,0.6113662123680115,-1.3196417093276978
1773048320800113400,6.799113525390625,9.124430656433105,1.262213945388794,-3.1728827953338623
1773048320810148600,6.809148681640625,11.240882873535156,0.3768695592880249,-1.3100703954696655
1773048320820112400,6.8191123046875,9.057432174682617,-0.030508488416671753,-0.9415757060050964
1773048320830102000,6.82910205078125,7.429116249084473,1.3010972738265991,-2.1816561222076416
1773048320840068600,6.839068603515625,11.221739768981934,0.9320043921470642,-2.857030153274536
1773048320850056000,6.849055908203125,10.814960479736328,0.15613168478012085,-1.1042876243591309
1773048320860024800,6.85902490234375,8.185846328735352,0.6496513485908508,-1.6360924243927002
1773048320870010400,6.86901025390625,9.17707347869873,0.9032905697822571,-1.8993029594421387
1773048320879981000,6.87898095703125,11.135598182678223,0.8697910308837891,-1.4488540887832642
1773048320889965000,6.888965087890625,8.516056060791016,0.43908295035362244,-1.353141188621521
1773048320899937500,6.8989375,9.19143009185791,0.9511470198631287,-2.248655080795288
1773048320909920300,6.908920166015625,9.46899700164795,0.8745766878128052,-1.3196417093276978
1773048320919893500,6.9188935546875,10.225728034973145,-0.1501496136188507,-1.3866406679153442
1773048320929875500,6.92887548828125,8.023134231567383,1.0803594589233398,-2.0572292804718018
1773048320939849700,6.938849609375,10.810174942016602,0.5970092415809631,-2.248655080795288
1773048320949831000,6.948830810546875,9.885947227478027,0.21355941891670227,-2.0572292804718018
1773048320959806000,6.958805908203125,8.544769287109375,0.33379876613616943,-1.0277173519134521
1773048320969786600,6.96878662109375,9.828518867492676,1.1330015659332275,-2.239083766937256
1773048320979762200,6.97876220703125,10.359725952148438,0.2715853750705719,-2.9527430534362793
1773048320989742300,6.988742431640625,8.544769287109375,0.08434699475765228,-1.32921302318573
1773048320999718400,6.998718505859375,8.660223007202148,1.195214867591858,-1.26699960231781
1773048321009698000,7.008697998046875,11.427522659301758,0.5491527915000916,-3.1489546298980713
1773048321019713500,7.018713623046875,9.857233047485352,-0.3080759048461914,-0.4576273262500763
1773048321029696800,7.02869677734375,8.329415321350098,0.989432156085968,-2.4879374504089355
1773048321039630800,7.038630859375,10.657033920288086,0.836291491985321,-2.492722988128662
1773048321049609200,7.048609130859375,11.715259552001953,-0.37028929591178894,-0.6975077986717224
1773048321059587000,7.058587158203125,7.568498134613037,0.8458628058433533,-2.4783661365509033
1773048321069565400,7.0685654296875,9.2919282913208,1.2478569746017456,-1.578664779663086
1773048321079543300,7.078543212890625,11.255239486694336,-0.32243284583091736,-1.4727823734283447
1773048321089521700,7.088521728515625,8.319844245910645,0.5778666734695435,-2.3635106086730957
1773048321099499500,7.09849951171875,9.239286422729492,1.2813565731048584,-2.5357937812805176
1773048321109478000,7.108477783203125,12.050254821777344,0.07956135272979736,-0.9224331378936768
1773048321119455700,7.118455810546875,8.305487632751465,0.5108676552772522,-2.4879374504089355
1773048321129433900,7.128433837890625,8.822935104370117,0.9942178130149841,-2.0237298011779785
1773048321139412000,7.138411865234375,10.709675788879395,0.5156532526016235,-1.511067509651184
1773048321149390000,7.14839013671875,9.608379364013672,0.3720839321613312,-2.699103832244873
1773048321159270100,7.158270263671875,9.301499366760254,0.7549355626106262,-0.534795880317688
1773048321169090600,7.168090576171875,10.455438613891602,0.3720839321613312,-2.2342982292175293
1773048321179091500,7.178091552734375,8.913862228393555,0.5156532526016235,-3.139383316040039
1773048321189051100,7.188051025390625,9.234500885009766,0.5204389095306396,-1.1808580160140991
1773048321199231200,7.198231201171875,9.972088813781738,0.486939400434494,-1.2813565731048584
1773048321209267200,7.20826708984375,9.000003814697266,0.486939400434494,-2.919243574142456
1773048321219236600,7.218236572265625,9.339784622192383,0.1657029688358307,-1.1282159090042114
1773048321229222000,7.228221923828125,9.186644554138184,0.625723123550415,-1.9232312440872192
1773048321239192800,7.23819287109375,9.162715911865234,0.5252245664596558,-2.191227436065674
1773048321249176600,7.248176513671875,9.981659889221191,0.3433700501918793,-2.5740790367126465
1773048321259056600,7.258056640625,9.728020668029785,0.2183450609445572,-0.5778666734695435
1773048321268876000,7.2678759765625,8.827720642089844,0.4534398913383484,-0.5204389095306396
1773048321279056000,7.278055908203125,9.363713264465332,1.0085747241973877,-4.456034183502197
1773048321289092000,7.288092041015625,10.771889686584473,0.2470589429140091,-0.8458628058433533
1773048321299061500,7.2980615234375,9.277571678161621,0.10827522724866867,-0.04127619042992592
1773048321309046800,7.308046875,7.630711555480957,1.1330015659332275,-3.762115478515625
1773048321319056600,7.318056640625,11.288739204406738,0.7166503667831421,-1.7461622953414917
1773048321329044200,7.328044189453125,10.130014419555664,-0.6143572330474854,-0.7980063557624817
1773048321338974000,7.337973876953125,7.76470947265625,0.8602197170257568,-3.345165967941284
1773048321348956000,7.347955810546875,9.900303840637207,1.4877375364303589,-1.2047861814498901
1773048321358930200,7.35793017578125,13.419548034667969,-0.16450655460357666,-1.8993029594421387
1773048321368911400,7.367911376953125,6.409175395965576,0.6113662123680115,-2.6608188152313232
1773048321378791400,7.37779150390625,9.694520950317383,1.4733805656433105,-1.755733609199524
1773048321388611300,7.387611328125,11.877971649169922,0.2763710021972656,-1.2717852592468262
1773048321398791200,7.397791259765625,8.674580574035645,0.6496513485908508,-1.4344971179962158
1773048321408828000,7.407827880859375,9.354142189025879,0.6544370055198669,-2.5022943019866943
1773048321418798800,7.417798828125,10.364511489868164,0.5635097622871399,-2.1003000736236572
1773048321428782800,7.427782958984375,10.053443908691406,0.8602197170257568,-1.5397813320159912
1773048321438755000,7.437755126953125,10.431509971618652,0.2715853750705719,-1.0133603811264038
1773048321448737800,7.44773779296875,8.01356315612793,0.6161518096923828,-2.713460922241211
1773048321458617900,7.457617919921875,8.233702659606934,0.9990034699440002,-1.0085747241973877
1773048321468437500,7.4674375,11.427522659301758,0.30508488416671753,-1.7174484729766846
1773048321478434800,7.477434814453125,8.219346046447754,-0.001794616924598813,-2.430509567260742
1773048321488397300,7.487397216796875,7.481758117675781,1.2717852592468262,-1.4249259233474731
1773048321498577400,7.497577392578125,11.551949501037598,0.2183450609445572,-2.1098713874816895
1773048321508613000,7.507613037109375,10.29751205444336,-0.5521438121795654,-1.7365909814834595
1773048321518580000,7.517580078125,7.903493404388428,1.171286702156067,-2.6081767082214355
1773048321528567000,7.527567138671875,11.892328262329102,0.3720839321613312,-1.1904292106628418
1773048321538458600,7.537458740234375,10.206584930419922,-0.29850462079048157,-1.913659930229187
1773048321548436000,7.54743603515625,6.303891181945801,1.01814603805542,-3.507878065109253
1773048321558492400,7.557492431640625,10.445867538452148,0.8602197170257568,-0.20398813486099243
1773048321568478000,7.56747802734375,10.743175506591797,-0.020937198773026466,-1.6169499158859253
1773048321578449000,7.577448974609375,7.256833076477051,0.745364248752594,-2.6799614429473877
1773048321588433000,7.587432861328125,9.981659889221191,0.6209374666213989,-1.6839489936828613
1773048321598405000,7.597405029296875,11.1978120803833,0.6065805554389954,-2.1960129737854004
1773048321608387800,7.607387939453125,9.502496719360352,0.8889335989952087,-2.3635106086730957
1773048321618361300,7.617361328125,11.10209846496582,0.026919255033135414,-1.1521440744400024
1773048321628343300,7.62734326171875,8.09970474243164,1.0755738019943237,-2.1003000736236572
1773048321638317600,7.637317626953125,10.364511489868164,0.6209374666213989,-2.2534406185150146
1773048321648298800,7.647298828125,10.61815071105957,0.33858439326286316,-0.3762713670730591
1773048321658274000,7.657274169921875,7.841279983520508,1.085145115852356,-2.885744094848633
1773048321668254500,7.66725439453125,9.483354568481445,0.3577269911766052,-1.6456637382507324
1773048321678230300,7.677230224609375,10.000802040100098,0.6831508874893188,-0.46719861030578613
1773048321688210200,7.687210205078125,8.655437469482422,0.2470589429140091,-3.3930225372314453
1773048321698186500,7.6971865234375,9.167501449584961,0.9272187948226929,-2.406581401824951
1773048321708166100,7.707166259765625,10.637292861938477,-0.04007977992296219,-0.5491527915000916
1773048321718181600,7.717181640625,9.637093544006348,0.8315058946609497,-4.140181541442871
1773048321728164900,7.727164794921875,9.114859580993652,0.19920247793197632,-1.0707881450653076
1773048321738045000,7.737044921875,11.145169258117676,-0.19800607860088348,-1.1186445951461792
1773048321747925000,7.746925048828125,7.70249605178833,1.1473584175109863,-3.297309637069702
1773048321758055200,7.75705517578125,11.370095252990723,0.36729827523231506,-0.8554341197013855
1773048321768038700,7.76703857421875,10.14437198638916,-0.3798605799674988,-0.15613168478012085
1773048321778011400,7.777011474609375,5.849255084991455,1.200000524520874,-5.504688262939453
1773048321787993900,7.786993896484375,10.834102630615234,0.989432156085968,-0.18484555184841156
1773048321797967600,7.796967529296875,11.882757186889648,-0.4707878530025482,1.0360921621322632
1773048321807949300,7.80694921875,5.921039581298828,0.3290131092071533,-6.625127792358398
1773048321817924000,7.816924072265625,11.743973731994629,1.3728820085525513,-0.08434699475765228
1773048321827904800,7.82690478515625,12.342179298400879,0.23270200192928314,-1.176072359085083
1773048321837880300,7.83688037109375,7.707281589508057,0.2566302418708801,-4.010969161987305
1773048321847860700,7.84686083984375,8.449056625366211,1.4015958309173584,-2.0811574459075928
1773048321857740800,7.85674072265625,12.380464553833008,0.7549355626106262,0.9260223507881165
1773048321867560700,7.866560791015625,10.254441261291504,0.0029910283628851175,-4.326821327209473
1773048321877740800,7.87674072265625,6.960123062133789,0.898504912853241,-1.4871392250061035
1773048321887777500,7.886777587890625,9.847661972045898,0.9607182741165161,-1.0133603811264038
1773048321897749000,7.8967490234375,10.608579635620117,0.33379876613616943,-2.1577277183532715
1773048321907732500,7.906732421875,9.153144836425781,0.5491527915000916,-2.162513494491577
1773048321917705500,7.91670556640625,8.214560508728027,0.8458628058433533,-2.129014015197754
1773048321927687700,7.926687744140625,10.551151275634766,0.5491527915000916,-1.2765709161758423
1773048321937567700,7.936567626953125,9.766305923461914,-0.32243284583091736,-2.1672990322113037
1773048321947387400,7.946387451171875,8.02791976928711,0.8889335989952087,-3.053241729736328
1773048321957567500,7.9565673828125,9.34457015991211,0.7262216806411743,-1.333998680114746
1773048321967603700,7.966603759765625,12.169896125793457,-0.6382854580879211,0.3080759048461914
1773048321977574100,7.97657421875,6.069394588470459,0.534795880317688,-3.776472330093384
1773048321987558400,7.986558349609375,10.177870750427246,1.0947163105010986,-1.8131613731384277
1773048321997530400,7.9965302734375,10.714461326599121,-0.5234299302101135,0.6340979933738708
1773048322007513600,8.006513671875,6.423532485961914,0.8123632669448853,-3.2925238609313965
1773048322017486800,8.01648681640625,11.801401138305664,0.8027920126914978,-2.775674343109131
1773048322027469000,8.026468994140625,10.64686393737793,-0.5138586759567261,-0.7597211599349976
1773048322037443000,8.036443115234375,6.854838848114014,1.1521440744400024,-2.9048867225646973
1773048322047424500,8.046424560546875,11.508878707885742,0.5826523303985596,-2.0572292804718018
1773048322057304300,8.05630419921875,9.967302322387695,-0.05922235921025276,-1.3387842178344727
1773048322067124200,8.066124267578125,7.8317084312438965,1.425524115562439,-3.4887354373931885
1773048322077122800,8.076122802734375,12.284751892089844,0.5108676552772522,-0.4097708761692047
1773048322087084500,8.08608447265625,7.779066562652588,0.5826523303985596,-1.7126628160476685
1773048322097264400,8.096264404296875,9.976874351501465,1.4063814878463745,-2.775674343109131
1773048322107300400,8.10630029296875,10.082158088684082,0.5443671345710754,-0.9655039310455322
1773048322117268000,8.11626806640625,8.46341323852539,0.8123632669448853,-2.7421748638153076
1773048322127254500,8.126254638671876,11.56152057647705,-0.26979073882102966,-1.6121642589569092
1773048322137134600,8.136134521484376,8.257631301879883,0.8315058946609497,-0.9080761671066284
1773048322146953500,8.145953369140624,12.294322967529297,0.9655039310455322,-3.6568312644958496
1773048322156931600,8.155931640625,9.93380355834961,-0.04007977992296219,-1.6648063659667969
1773048322167111400,8.166111328125,8.38684368133545,0.6544370055198669,-1.0085747241973877
1773048322177147400,8.1761474609375,10.834102630615234,0.30508488416671753,-2.373081922531128
1773048322187115000,8.186114990234374,8.200202941894531,0.5826523303985596,-2.794816732406616
1773048322197101600,8.1961015625,8.698508262634277,-0.20757736265659332,-0.3188436031341553
1773048322206981600,8.205981689453125,9.838089942932129,0.022133609279990196,-1.2430713176727295
1773048322216800300,8.21580029296875,8.123632431030273,0.7549355626106262,-3.029313564300537
1773048322226794800,8.225794677734376,11.193026542663574,0.41994038224220276,-1.6600207090377808
1773048322236759800,8.235759765625,10.211370468139648,-0.11186445504426956,-0.6400800347328186
1773048322246939600,8.245939697265625,8.085348129272461,0.7549355626106262,-3.3690943717956543
1773048322256975000,8.25597509765625,10.637292861938477,0.30508488416671753,-1.9902302026748657
1773048322266940200,8.265940185546874,9.866804122924805,0.4630111753940582,-1.669592022895813
1773048322276928800,8.2759287109375,7.7838521003723145,0.9607182741165161,-2.7038896083831787
1773048322286808800,8.285808837890626,10.321440696716309,0.0077766734175384045,-0.7214360237121582
1773048322296627200,8.295627197265626,8.228917121887207,0.5443671345710754,-1.5206388235092163
1773048322306619600,8.30561962890625,9.833304405212402,1.5212370157241821,-1.9710876941680908
1773048322316586200,8.315586181640626,12.28953742980957,0.1704886108636856,-1.0085747241973877
1773048322326766000,8.32576611328125,8.765507698059082,0.3194418251514435,-2.699103832244873
1773048322336801300,8.33580126953125,9.358927726745605,1.6265212297439575,-2.224726915359497
1773048322346765300,8.345765380859374,10.05823040008545,0.5204389095306396,-2.6225335597991943
1773048322356755000,8.3557548828125,7.836493968963623,0.0029910283628851175,-2.4400808811187744
1773048322366721500,8.365721435546876,7.812565803527832,1.2526426315307617,-0.9798609018325806
1773048322376708900,8.375708984375,11.451451301574707,0.4534398913383484,-2.9862427711486816
1773048322386589000,8.3855888671875,9.545567512512207,0.7692924737930298,-1.9040886163711548
1773048322396407600,8.395407470703125,8.563912391662598,0.6927221417427063,0.04486542567610741
1773048322406401300,8.4054013671875,9.708877563476562,0.06520441919565201,-1.6504493951797485
1773048322416366800,8.415366943359375,10.4219388961792,0.5730810165405273,-2.35872483253479
1773048322426547000,8.425546875,8.458627700805664,0.33858439326286316,-2.0955145359039307
1773048322436582100,8.43558203125,8.535198211669922,0.6400800347328186,-1.415354609489441
1773048322446462200,8.445462158203124,10.24487018585205,-0.32243284583091736,-1.1282159090042114
1773048322456279800,8.45527978515625,8.3629150390625,-0.0975075215101242,-2.6608188152313232
1773048322466460000,8.4654599609375,9.680164337158203,1.5547364950180054,-2.0859432220458984
1773048322476495000,8.4754951171875,11.820544242858887,0.19920247793197632,-1.8610178232192993
1773048322486459400,8.48545947265625,8.631509780883789,-0.39421752095222473,-1.0372886657714844
1773048322496448500,8.495448486328126,7.884350776672363,1.0660024881362915,-2.3778674602508545
1773048322506415600,8.50541552734375,10.915458679199219,0.5730810165405273,-1.1617153882980347
1773048322516402700,8.515402587890625,11.44666576385498,0.4486542344093323,-2.3156540393829346
1773048322526372000,8.5253720703125,7.750352382659912,0.5252245664596558,-1.4632110595703125
1773048322536357400,8.535357421875,8.291130065917969,0.50129634141922,-0.5778666734695435
1773048322546328300,8.545328369140625,10.206584930419922,1.1282159090042114,-3.8195431232452393
1773048322556312300,8.555312255859375,11.504093170166016,-0.32721850275993347,-2.200798511505127
1773048322566284800,8.565284912109375,9.804591178894043,-0.5138586759567261,-0.7310073375701904
1773048322576267500,8.575267578125,9.306285858154297,1.4973087310791016,-3.714258909225464
1773048322586241000,8.585240966796874,12.021540641784668,1.827518343925476,-2.6560330390930176
1773048322596223000,8.595222900390626,10.757532119750977,0.6783652305603027,-0.5204389095306396
1773048322606102800,8.605102783203124,3.6370904445648193,-0.23629122972488403,0.37028929591178894
1773048322615982800,8.61498291015625,6.145965099334717,0.09870393574237823,-1.1377872228622437
1773048322626153700,8.62515380859375,13.999208450317383,0.6352944374084473,-2.6703901290893555
1773048322636134700,8.635134765625,14.137992858886719,0.6831508874893188,0.5575276613235474
1773048322646110000,8.64510986328125,9.215357780456543,1.1617153882980347,-5.289334297180176
1773048322656090400,8.65509033203125,9.593423843383789,-0.5282155871391296,-2.7517459392547607
1773048322666066400,8.66506640625,6.907480716705322,-0.13100704550743103,-0.18005990982055664
1773048322676046300,8.67504638671875,9.311071395874023,1.5020943880081177,-3.627519130706787
1773048322685926400,8.684926513671876,9.516854286193848,0.2763710021972656,-3.1824541091918945
1773048322695746600,8.69474658203125,7.438687324523926,0.20877377688884735,1.1892328262329102
1773048322705926700,8.7049267578125,9.502496719360352,0.6209374666213989,-1.5206388235092163
1773048322715963400,8.71496337890625,8.185846328735352,1.171286702156067,-4.441677093505859
1773048322725935000,8.72493505859375,15.0813627243042,-0.04007977992296219,1.6061822175979614
1773048322735918300,8.73491845703125,9.401998519897461,-0.6095715761184692,-1.534995675086975
1773048322745891600,8.7448916015625,10.192228317260742,0.49651068449020386,-6.452844619750977
1773048322755873800,8.754873779296876,13.663615226745605,0.8506484627723694,-0.3188436031341553
1773048322765919700,8.764919677734374,9.06700325012207,-0.4468596279621124,-1.3962119817733765
1773048322775908000,8.774908203125,2.6697919368743896,0.7166503667831421,-4.479962348937988
1773048322785804000,8.784803955078125,0.7830511927604675,0.6400800347328186,-2.052443504333496
1773048322795783700,8.79478369140625,11.618948936462402,1.0612168312072754,1.0360921621322632
1773048322805760500,8.804760498046875,11.260025024414062,0.486939400434494,0.6915257573127747
1773048322815739600,8.81473974609375,9.277571678161621,0.2231307178735733,-1.3004990816116333
1773048322825716700,8.824716796875,15.13879108428955,1.6600207090377808,-5.547759532928467
1773048322835695900,8.83469580078125,13.175479888916016,-0.001794616924598813,1.4189438819885254
1773048322845673200,8.844673095703126,7.261618614196777,-0.31764721870422363,0.7106683254241943
1773048322855651800,8.85465185546875,6.34217643737793,0.6783652305603027,-6.046064376831055
1773048322865629400,8.86462939453125,9.708877563476562,0.7980063557624817,-0.0891326442360878
1773048322875608000,8.874608154296874,7.645068168640137,0.5874379873275757,-2.6943182945251465
1773048322885585700,8.884585693359375,8.291130065917969,0.2763710021972656,-0.8219345808029175
1773048322895564300,8.894564208984375,9.320642471313477,1.2957134246826172,-1.6217355728149414
1773048322905542000,8.9045419921875,13.242478370666504,0.8554341197013855,-3.4025938510894775
1773048322915520500,8.9145205078125,12.92184066772461,-0.48514479398727417,0.0687936544418335
1773048322925498400,8.924498291015626,9.17707347869873,0.23270200192928314,-2.191227436065674
1773048322935476700,8.934476806640625,10.000802040100098,0.381655216217041,-3.7429728507995605
1773048322945454600,8.94445458984375,12.323036193847656,-0.32243284583091736,-0.3523431420326233
1773048322955433000,8.954432861328126,6.7447686195373535,-0.39900317788124084,-3.1728827953338623
1773048322965410800,8.964410888671875,7.39561653137207,-0.4133601188659668,-2.1577277183532715
1773048322975389200,8.97438916015625,9.401998519897461,0.1417747437953949,-1.4584254026412964
1773048322985367300,8.9843671875,8.511270523071289,1.7174484729766846,-4.00618314743042
1773048322995345400,8.994345458984375,11.489736557006836,1.3250255584716797,-0.9942178130149841
1773048323005323500,9.004323486328126,11.32223892211914,-0.1788634955883026,1.0121639966964722
1773048323015301600,9.014301513671874,5.633901119232178,0.0029910283628851175,-2.4783661365509033
1773048323025279700,9.02427978515625,12.672389030456543,0.5204389095306396,-4.983053207397461
1773048323035258000,9.034258056640626,15.095720291137695,-0.5186443328857422,0.01615155301988125
1773048323045236200,9.044236328125,6.806982040405273,-0.32721850275993347,0.6484549641609192
1773048323055214300,9.05421435546875,7.319046497344971,0.0364905446767807,-3.6711881160736084
1773048323065192400,9.0641923828125,10.216156005859375,1.1856436729431152,-4.686343193054199
1773048323075170600,9.074170654296875,10.326226234436035,0.5682953596115112,-0.7166503667831421
1773048323085148700,9.084148681640626,6.7447686195373535,-0.5665007829666138,0.4660021960735321
1773048323095126800,9.094126708984374,5.5621161460876465,0.5395814776420593,-4.312464714050293
1773048323105105200,9.104105224609375,12.5144624710083,1.5595221519470215,-4.676173686981201
1773048323115083300,9.114083251953126,13.649258613586426,-0.39421752095222473,1.3710874319076538
1773048323125061400,9.124061279296875,5.624329566955566,-1.9363917112350464,0.6484549641609192
1773048323135039500,9.13403955078125,7.774280548095703,-2.0129621028900146,-3.786043643951416
1773048323145017600,9.144017578125,15.684353828430176,1.6313068866729736,-6.022136211395264
1773048323154995700,9.15399560546875,12.323036193847656,-5.048855781555176,3.7848472595214844
1773048323164973800,9.163973876953126,2.5501506328582764,0.3768695592880249,-3.1489546298980713
1773048323174952200,9.1739521484375,9.583852767944336,2.2821545600891113,-7.18086051940918
1773048323184930300,9.183930419921875,10.38365364074707,0.6831508874893188,2.15653133392334
1773048323194908400,9.193908447265626,4.130012035369873,0.01734796352684498,0.40378883481025696
1773048323204886500,9.203886474609375,9.535996437072754,1.200000524520874,-3.685544967651367
1773048323214864600,9.21386474609375,15.962519645690918,0.8027920126914978,-1.8083757162094116
1773048323224842800,9.2238427734375,6.577271461486816,-0.48035913705825806,1.222732424736023
1773048323234821000,9.233821044921875,6.15553617477417,0.10827522724866867,-2.191227436065674
1773048323244799200,9.24379931640625,14.837294578552246,0.6352944374084473,-3.972683906555176
1773048323254777300,9.25377734375,9.69930648803711,-0.9260223507881165,-0.49591249227523804
1773048323264755500,9.26375537109375,6.275177478790283,-0.18364913761615753,-2.578864574432373
1773048323274733600,9.273733642578126,9.82373332977295,0.6209374666213989,-3.6370904445648193
1773048323284711700,9.283711669921875,13.922638893127441,-0.50907301902771,-0.13698910176753998
1773048323294689800,9.293689697265625,5.643472194671631,-0.42771705985069275,-0.6352944374084473
1773048323304668200,9.303668212890624,7.290332317352295,0.06520441919565201,-3.565305709838867
1773048323314646300,9.313646240234375,14.267205238342285,-0.3080759048461914,-0.7645068168640137
1773048323324624400,9.323624267578126,9.905089378356934,-2.362314224243164,-1.4297115802764893
1773048323334602500,9.3336025390625,6.653841495513916,0.49651068449020386,-1.851446509361267
1773048323344580600,9.34358056640625,11.049456596374512,1.3106685876846313,-1.7748762369155884
1773048323354558700,9.353558837890626,13.682758331298828,-1.922034740447998,-3.019742250442505
1773048323364537000,9.363537109375,7.074978351593018,-0.31764721870422363,-1.2143574953079224
1773048323374515200,9.37351513671875,8.765507698059082,1.26699960231781,-1.262213945388794
1773048323384493300,9.383493408203124,12.605389595031738,-0.32721850275993347,-3.0580272674560547
1773048323394471400,9.393471435546875,9.201001167297363,-1.2945170402526855,-1.8370895385742188
1773048323404449500,9.403449462890626,6.6729841232299805,0.7166503667831421,-0.8315058946609497
1773048323414427600,9.413427734375,11.32223892211914,0.2763710021972656,-1.6408780813217163
1773048323424405800,9.42340576171875,12.16511058807373,-1.557727575302124,-1.975873351097107
1773048323434384000,9.4333837890625,7.094120979309082,0.6065805554389954,-3.565305709838867
1773048323444362200,9.4433623046875,9.497711181640625,0.28594231605529785,-0.11306086927652359
1773048323454340400,9.45334033203125,12.313465118408203,-0.7483552694320679,-1.0707881450653076
1773048323464318500,9.463318359375,7.984848976135254,-0.07357929646968842,-4.001397609710693
1773048323474296600,9.473296630859375,9.1052885055542,0.251844584941864,-1.6217355728149414
1773048323484274700,9.483274658203126,10.14437198638916,-0.24107688665390015,0.9116654396057129
1773048323494252800,9.493252685546874,10.781460762023926,-0.7674978375434875,-3.982254981994629
1773048323504231000,9.50323095703125,7.7455668449401855,0.13698910176753998,-3.22552490234375
1773048323514209000,9.513208984375,9.608379364013672,-0.19322042167186737,0.32243284583091736
1773048323524187400,9.5231875,10.733604431152344,-0.42771705985069275,-1.5302101373672485
1773048323534165500,9.53316552734375,8.243273735046387,-0.15493527054786682,-3.6227335929870605
1773048323544143600,9.5431435546875,8.276773452758789,-0.12622138857841492,-1.8131613731384277
1773048323554121700,9.553121826171875,9.93380355834961,-0.494716078042984,-0.30927231907844543
1773048323564099800,9.563099853515626,10.082158088684082,0.18484555184841156,-2.138585329055786
1773048323574078000,9.573077880859374,9.1052885055542,-0.5712863802909851,-3.263810157775879
1773048323584056000,9.58305615234375,9.220144271850586,-0.2745763957500458,-1.2574282884597778
1773048323594034400,9.593034423828126,9.569496154785156,0.1657029688358307,-0.20877377688884735
1773048323604012500,9.603012451171875,11.030314445495605,-0.5473581552505493,-3.115455150604248
1773048323613990700,9.61299072265625,8.257631301879883,-0.11665010452270508,-1.7030915021896362
1773048323623968800,9.62296875,8.075776100158691,-0.29371899366378784,-0.6640082597732544
1773048323633947000,9.63294677734375,11.370095252990723,-0.5665007829666138,-2.272583246231079
1773048323643886300,9.64288623046875,9.1052885055542,-0.28893333673477173,-1.5978072881698608
1773048323653860400,9.6528603515625,8.84207820892334,0.09391828626394272,-1.8753747940063477
1773048323663881200,9.662881103515625,9.387641906738281,-0.42771705985069275,-1.6408780813217163
1773048323673860400,9.6728603515625,10.551151275634766,-0.7100701332092285,-1.0995019674301147
1773048323683837700,9.682837646484375,8.329415321350098,0.022133609279990196,-3.6083765029907227
1773048323693816300,9.69281640625,9.857233047485352,-0.1788634955883026,0.355932354927063
1773048323703755000,9.702755126953125,11.10209846496582,-0.6430711150169373,-2.6799614429473877
1773048323713729800,9.712729736328125,8.166703224182129,-0.5521438121795654,-1.583450436592102
1773048323723711200,9.722711181640625,8.62193775177002,0.39601215720176697,-2.1481566429138184
1773048323733686800,9.732686767578125,9.90987491607666,-0.8781659007072449,-1.3148560523986816
1773048323743706400,9.742706298828125,10.565508842468262,-1.3950155973434448,-1.0660024881362915
1773048323753686300,9.752686279296874,5.9545392990112305,0.9846464991569519,-2.1816561222076416
1773048323763624000,9.7626240234375,11.355737686157227,-0.753140926361084,-0.5491527915000916
1773048323773599500,9.772599609375,9.780662536621094,-1.007378339767456,-2.8139593601226807
1773048323783580200,9.782580078125,8.574081420898438,-0.10707881301641464,-1.9184455871582031
1773048323793556200,9.79255615234375,11.556735038757324,-0.9355936646461487,-1.32921302318573
1773048323803536400,9.802536376953125,8.62193775177002,0.10827522724866867,-2.8283164501190186
1773048323813513000,9.812512939453125,11.030314445495605,-0.45643091201782227,-2.8187451362609863
1773048323823531500,9.822531494140625,8.665008544921875,-0.8973084688186646,0.7872386574745178
1773048323833512400,9.832512451171874,7.999206066131592,0.2667997181415558,-3.431307554244995
1773048323843392300,9.842392333984375,9.938589096069336,-0.8446664214134216,-0.5395814776420593
1773048323853272300,9.852272216796875,11.355737686157227,-1.1270195245742798,-2.8043880462646484
1773048323863405300,9.8624052734375,8.276773452758789,0.09391828626394272,-2.0572292804718018
1773048323873383700,9.8723837890625,12.112467765808105,-0.5952146053314209,-1.089930772781372
1773048323883322600,9.882322509765626,10.182656288146973,-0.4707878530025482,-3.1824541091918945
1773048323893297200,9.892297119140625,8.755936622619629,0.31465616822242737,-2.9048867225646973
1773048323903240200,9.902240234375,10.254441261291504,-1.648654818534851,1.4333007335662842
1773048323913211400,9.91221142578125,9.69930648803711,-0.20757736265659332,-4.815555572509766
1773048323923157500,9.922157470703125,9.535996437072754,0.13220344483852386,-3.043670415878296
1773048323933126400,9.93212646484375,11.69133186340332,-0.9834501147270203,2.5058834552764893
1773048323943006200,9.942006103515626,7.549355506896973,0.5300102233886719,-4.216751575469971
1773048323952886300,9.95188623046875,10.249655723571777,-1.8693926334381104,-3.5461630821228027
1773048323962992000,9.9619921875,10.206584930419922,-0.8398807644844055,1.8550357818603516
1773048323972962600,9.971962646484375,8.923434257507324,1.3010972738265991,-4.8299126625061035
1773048323982909700,9.98190966796875,13.38126277923584,-1.3567304611206055,-1.2717852592468262
1773048323992877600,9.991877685546875,8.904291152954102,-0.9595218896865845,-0.4145565330982208
1773048324002827300,10.0018271484375,6.558128833770752,0.4821537733078003,-3.373879909515381
1773048324012793300,10.01179345703125,11.897113800048828,-1.0169496536254883,-0.39541393518447876
1773048324022744600,10.02174462890625,10.939387321472168,-1.3184453248977661,-3.077169895172119
1773048324032709400,10.03170947265625,6.505486488342285,0.9463613629341125,-2.6368906497955322
1773048324042589200,10.041589111328125,12.031112670898438,-1.4859428405761719,1.1222338676452637
1773048324052469200,10.05146923828125,9.751948356628418,-0.7004988193511963,-4.00618314743042
1773048324062579000,10.061578857421875,8.128418922424316,-0.9834501147270203,-2.186441659927368
1773048324072547600,10.071547607421875,10.335797309875488,-0.5186443328857422,1.2275179624557495
1773048324082496500,10.08149658203125,9.5264253616333,-0.8542376756668091,-4.144967079162598
1773048324092463000,10.091463134765625,9.905089378356934,-1.1174482107162476,-2.8187451362609863
1773048324102414300,10.101414306640624,8.880363464355469,-0.4085744619369507,0.4612165689468384
1773048324112379400,10.11137939453125,8.655437469482422,-0.3415754437446594,-2.5740790367126465
1773048324122293200,10.121293212890626,10.115657806396484,-1.831107497215271,-1.3770694732666016
1773048324132253200,10.131253173828124,8.109275817871094,-0.6813562512397766,-3.005385160446167
1773048324142133200,10.14113330078125,8.468199729919434,0.8793623447418213,-0.7501499056816101
1773048324152013300,10.151013427734375,12.917055130004883,-2.836092948913574,-0.8602197170257568
1773048324162089200,10.161089111328126,7.467401027679443,-0.3655036687850952,-4.025325775146484
1773048324172047000,10.171047119140624,6.964908599853516,1.2478569746017456,-0.13220344483852386
1773048324182045200,10.181045166015625,13.83649730682373,-0.5952146053314209,-2.7565317153930664
1773048324192007200,10.191007080078125,7.726424217224121,-1.984248161315918,-2.823530673980713
1773048324202187000,10.20118701171875,6.99840784072876,0.49172505736351013,-0.19920247793197632
1773048324212367000,10.2113671875,10.848459243774414,0.9463613629341125,-1.0803594589233398
1773048324222547000,10.221546875,11.508878707885742,-1.5912270545959473,-4.417748928070068
1773048324232657700,10.23165771484375,7.414759159088135,-1.0791629552841187,-0.7980063557624817
1773048324242613500,10.241613525390624,7.443472862243652,0.486939400434494,-0.3523431420326233
1773048324252609500,10.251609619140625,13.85085391998291,-0.7387840151786804,-2.871387243270874
1773048324262569700,10.26156982421875,9.143573760986328,-0.7920243144035339,-3.9535412788391113
1773048324272562400,10.2715625,6.452246189117432,0.03170489892363548,-0.42412781715393066
1773048324282526200,10.281526123046875,10.225728034973145,-0.389431893825531,1.0408778190612793
1773048324292515800,10.291515869140625,10.819746017456055,-1.074377417564392,-5.389832973480225
1773048324302482700,10.301482666015625,9.459425926208496,-0.7387840151786804,-1.6408780813217163
1773048324312470000,10.311469970703126,6.577271461486816,0.9176474809646606,-0.046061836183071136
1773048324322439000,10.32143896484375,12.184252738952637,-0.6287141442298889,-3.014956474304199
1773048324332424400,10.331424560546875,10.130014419555664,-1.7060825824737549,-1.6217355728149414
1773048324342395100,10.34139501953125,6.615556240081787,0.6687939167022705,-4.015754699707031
1773048324352379400,10.35137939453125,9.574281692504883,0.4773681163787842,-0.5682953596115112
1773048324362351400,10.361351318359375,13.13240909576416,-1.8263218402862549,0.605384111404419
1773048324372334300,10.371334228515625,8.171489715576172,-0.7435696125030518,-5.088337421417236
1773048324382307800,10.381307861328125,6.653841495513916,0.1944168359041214,-2.8283164501190186
1773048324392289800,10.391289794921875,12.409177780151367,0.022133609279990196,1.5242279767990112
1773048324402264000,10.40126416015625,10.905887603759766,-0.7627122402191162,-2.1720848083496094
1773048324412245200,10.411245361328126,6.346961975097656,-1.0408778190612793,-4.283750534057617
1773048324422220300,10.42122021484375,7.328617572784424,0.6113662123680115,-1.2478569746017456
1773048324432201000,10.431200927734375,12.06939697265625,-0.8877372145652771,-0.022133609279990196
1773048324442176800,10.4411767578125,12.284751892089844,-1.007378339767456,-3.081955671310425
1773048324452156700,10.45115673828125,6.222535133361816,-0.2267199456691742,-3.177668571472168
1773048324462133000,10.461133056640625,10.431509971618652,0.13698910176753998,-1.784447431564331
1773048324472112600,10.471112548828126,11.988041877746582,-1.6199408769607544,0.06400800496339798
1773048324482089200,10.481089111328124,10.589436531066895,-0.7770691514015198,-3.2590243816375732
1773048324492068600,10.491068603515625,5.633901119232178,1.2813565731048584,-2.909672260284424
1773048324502045400,10.50104541015625,11.082956314086914,-0.6239284873008728,-0.42412781715393066
1773048324512024600,10.511024658203125,10.642078399658203,-2.5633113384246826,-1.3818551301956177
1773048324522001700,10.521001708984375,5.341378211975098,1.1808580160140991,-4.350749969482422
1773048324531980800,10.530980712890624,11.556735038757324,-0.3080759048461914,-0.6544370055198669
1773048324541958100,10.540958251953125,12.05504035949707,-2.496312141418457,-1.9471594095230103
1773048324551936800,10.550936767578126,7.362117290496826,0.13698910176753998,-3.4648072719573975
1773048324561914400,10.560914306640624,11.83011531829834,-0.23629122972488403,-1.4632110595703125
1773048324571893000,10.57089306640625,10.771889686584473,-0.7148557901382446,-1.6983058452606201
1773048324581870600,10.58087060546875,7.8556365966796875,-0.9068797826766968,-2.334796667098999
1773048324591849200,10.59084912109375,8.032705307006836,-0.9643075466156006,-0.4624129831790924
1773048324601826800,10.600826904296875,9.885947227478027,0.4486542344093323,-4.613960266113281
1773048324611805400,10.610805419921874,10.834102630615234,-1.6582261323928833,-0.6975077986717224
1773048324621783000,10.620782958984375,9.445069313049316,-0.7968099117279053,-0.6017948985099792
1773048324631761400,10.630761474609375,4.934598445892334,0.7214360237121582,-3.7716867923736572
1773048324641739500,10.640739501953124,12.557533264160156,-1.893320918083191,-1.3387842178344727
1773048324651718000,10.6507177734375,9.89551830291748,-1.4715858697891235,-0.45284169912338257
1773048324661695700,10.66069580078125,7.802994728088379,0.8219345808029175,-4.082753658294678
1773048324671673900,10.670673828125,11.84447193145752,-0.633499801158905,-1.7126628160476685
1773048324681554000,10.680553955078125,9.287142753601074,-1.7012969255447388,-2.967100143432617
1773048324691417000,10.6904169921875,6.543771743774414,0.050847481936216354,-1.0803594589233398
1773048324701608000,10.70060791015625,9.680164337158203,0.4342973232269287,-1.4536397457122803
1773048324711590700,10.710590576171874,10.38365364074707,-0.7244270443916321,-3.8051862716674805
1773048324721564400,10.720564453125,8.8707914352417,-1.4620146751403809,-0.36191442608833313
1773048324731545900,10.7305458984375,6.663413047790527,0.3768695592880249,-2.2773690223693848
1773048324741520600,10.740520751953126,10.61815071105957,-0.2745763957500458,-3.436093330383301
1773048324751501600,10.75050146484375,11.441879272460938,-1.5242279767990112,-0.6448656916618347
1773048324761381600,10.760381591796875,8.535198211669922,-0.01615155301988125,-3.8434712886810303
1773048324771244000,10.770244140625,8.626724243164062,0.7070791125297546,-2.1577277183532715
1773048324781433000,10.78043310546875,12.715459823608398,-1.9076778888702393,-0.47198426723480225
1773048324791417000,10.7904169921875,6.8309102058410645,0.11306086927652359,-3.22552490234375
1773048324801389300,10.800389404296874,7.242475986480713,0.9128618240356445,-2.186441659927368
1773048324811372300,10.810372314453126,11.834900856018066,-1.643869161605835,-1.1665010452270508
1773048324821345800,10.820345703125,7.735995769500732,-0.9547362327575684,-2.9766714572906494
1773048324831327700,10.83032763671875,8.799007415771484,0.3529413342475891,-2.162513494491577
1773048324841302000,10.840302001953125,11.451451301574707,-0.7770691514015198,-1.6504493951797485
1773048324851283200,10.850283203125,11.011171340942383,-0.719641387462616,-2.397010087966919
1773048324861163300,10.860163330078125,7.874779224395752,0.046061836183071136,-1.9615163803100586
1773048324871025700,10.870025634765625,10.01037311553955,-0.48514479398727417,-2.9718856811523438
1773048324881020400,10.8800205078125,11.312666893005371,-0.8590233325958252,-1.171286702156067
1773048324890985000,10.88998486328125,7.1850481033325195,0.21355941891670227,-3.2590243816375732
1773048324901170700,10.900170654296875,9.086145401000977,-0.23629122972488403,-2.2773690223693848
1773048324911157500,10.910157470703124,10.61815071105957,-0.8446664214134216,-1.5690934658050537
1773048324921127000,10.920126953125,8.803792953491211,-0.4181457459926605,-2.090728759765625
1773048324931112200,10.9301123046875,9.44028377532959,-0.01615155301988125,-2.967100143432617
1773048324941083100,10.940083251953125,9.833304405212402,-0.753140926361084,-1.5445669889450073
1773048324951067000,10.95006689453125,10.402796745300293,-0.7968099117279053,-0.836291491985321
1773048324960947000,10.959947021484375,8.482556343078613,-0.06400800496339798,-3.685544967651367
1773048324970808800,10.969808837890625,10.570294380187988,-0.2315055876970291,-1.5589239597320557
1773048324980801500,10.979801513671875,10.350153923034668,-0.26500511169433594,-0.9607182741165161
1773048324990767900,10.989767822265625,8.295916557312012,-0.05922235921025276,-3.187239646911621
1773048325000951800,10.999951904296875,9.378069877624512,-0.21714866161346436,-0.8027920126914978
1773048325010940200,11.009940185546874,9.473783493041992,-0.19800607860088348,-3.005385160446167
1773048325020908000,11.019907958984374,9.559925079345703,0.5826523303985596,-2.0380866527557373
1773048325030894600,11.02989453125,10.139585494995117,-0.020937198773026466,-0.7070791125297546
1773048325040864500,11.039864501953126,10.53200912475586,-0.5282155871391296,-2.737389087677002
1773048325050849000,11.04984912109375,9.497711181640625,-0.4181457459926605,-2.4017956256866455
1773048325060820700,11.05982080078125,9.306285858154297,1.2526426315307617,-2.651247501373291
1773048325070804200,11.06980419921875,10.579865455627441,0.4534398913383484,0.14057832956314087
1773048325080777000,11.07977685546875,9.962516784667969,-2.6494529247283936,-2.9383862018585205
1773048325090759400,11.089759521484375,5.581258773803711,1.0707881450653076,-3.297309637069702
1773048325100733400,11.0997333984375,11.978469848632812,0.6017948985099792,-2.1337995529174805
1773048325110715000,11.10971484375,12.3278226852417,-1.9459630250930786,-0.44805604219436646
1773048325120689700,11.119689697265626,7.232904434204102,-0.09272187948226929,-1.9280169010162354
1773048325130670300,11.12967041015625,7.9657063484191895,0.09870393574237823,-4.609174728393555
1773048325140646000,11.13964599609375,11.623734474182129,-1.007378339767456,-0.012562318705022335
1773048325150626000,11.1496259765625,10.896316528320312,-0.5808576941490173,-0.8267202377319336
1773048325160506000,11.159506103515625,7.33340311050415,-0.2027917206287384,-4.825126647949219
1773048325170368800,11.16936865234375,10.38365364074707,-0.48514479398727417,-0.8793623447418213
1773048325180558300,11.179558349609374,9.742377281188965,-0.34636107087135315,-1.3196417093276978
1773048325190542000,11.1895419921875,9.253643035888672,-0.5138586759567261,-1.8418751955032349
1773048325200514600,11.1995146484375,8.655437469482422,0.09870393574237823,-2.531008243560791
1773048325210497300,11.209497314453126,9.095717430114746,-0.6813562512397766,-1.846660852432251
1773048325220470800,11.219470703125,10.608579635620117,-0.9260223507881165,-0.4576273262500763
1773048325230452700,11.22945263671875,7.692924976348877,0.28594231605529785,-2.909672260284424
1773048325240427300,11.23942724609375,11.08774185180664,-0.4468596279621124,-1.7461622953414917
1773048325250408200,11.249408203125,8.971290588378906,-0.3655036687850952,-2.2534406185150146
1773048325260383500,11.259383544921874,8.669795036315918,-1.0648061037063599,-1.4536397457122803
1773048325270364000,11.269364013671876,9.92423152923584,-0.3415754437446594,-2.3778674602508545
1773048325280339700,11.279339599609376,8.952147483825684,-0.04007977992296219,-3.5844483375549316
1773048325290319600,11.289319580078125,10.992029190063477,-0.8255237936973572,-0.12741780281066895
1773048325300296000,11.2992958984375,7.462615489959717,-0.21236300468444824,-2.761317253112793
1773048325310275600,11.309275634765624,9.100502967834473,-0.13100704550743103,-2.7326035499572754
1773048325320252200,11.319252197265625,10.848459243774414,-0.9786644577980042,-1.674377679824829
1773048325330231600,11.3292314453125,8.95693302154541,-0.50907301902771,-0.39062830805778503
1773048325340208400,11.33920849609375,9.210572242736816,0.898504912853241,-4.844269275665283
1773048325350187500,11.3491875,10.469795227050781,-1.1078768968582153,-1.8801604509353638
1773048325360164900,11.359164794921876,10.86281681060791,-1.6342978477478027,-0.3332005441188812
1773048325370143500,11.3691435546875,6.241677761077881,0.9272187948226929,-4.384249210357666
1773048325380121000,11.37912109375,11.609376907348633,-0.3032902777194977,-1.0372886657714844
1773048325390099700,11.389099609375,10.982458114624023,-1.2035897970199585,-2.272583246231079
1773048325400077300,11.399077392578125,6.5868425369262695,-0.3128615617752075,-2.641676187515259
1773048325410056000,11.409055908203126,10.130014419555664,0.4007977843284607,-1.4057832956314087
1773048325420033500,11.419033447265624,10.709675788879395,-1.2610175609588623,-2.286940336227417
1773048325430012000,11.429011962890625,10.61815071105957,-0.7435696125030518,-2.5405795574188232
1773048325439989800,11.43898974609375,6.739983081817627,0.8267202377319336,-1.7030915021896362
1773048325449968000,11.448968017578125,13.242478370666504,-1.00259268283844,-2.406581401824951
1773048325459848200,11.45884814453125,9.742377281188965,-0.3415754437446594,-2.809173822402954
1773048325469711000,11.468711181640625,7.290332317352295,0.6496513485908508,-1.2574282884597778
1773048325479902200,11.478902099609375,11.231310844421387,-0.9595218896865845,-2.4783661365509033
1773048325489884700,11.488884765625,8.496912956237793,-0.05922235921025276,-2.5645077228546143
1773048325499858400,11.4988583984375,9.239286422729492,0.18484555184841156,-1.482353687286377
1773048325509840100,11.508840087890626,10.130014419555664,0.022133609279990196,-1.4632110595703125
1773048325519814700,11.518814697265626,9.962516784667969,-0.389431893825531,-3.1680972576141357
1773048325529795600,11.528795654296875,8.655437469482422,0.10348957777023315,-1.3722838163375854
1773048325539771000,11.53877099609375,10.599007606506348,-0.29850462079048157,-1.1473584175109863
1773048325549751300,11.548751220703124,10.039087295532227,0.1178465187549591,-4.422534465789795
1773048325559727000,11.55872705078125,8.617152214050293,-0.2267199456691742,-0.45284169912338257
1773048325569707300,11.568707275390626,10.24487018585205,-0.8255237936973572,-2.68953275680542
1773048325579587000,11.578587158203124,7.956135272979736,0.3242274820804596,-2.8139593601226807
1773048325589449700,11.58844970703125,11.22652530670166,-0.7824530005455017,-1.4009976387023926
1773048325599639600,11.5986396484375,9.095717430114746,-0.1453639715909958,-1.8323038816452026
1773048325609623000,11.608623046875,9.201001167297363,-0.32721850275993347,-1.7748762369155884
1773048325619595800,11.618595703125,10.98724365234375,-0.8111668825149536,-2.325225353240967
1773048325629578200,11.628578125,8.94257640838623,0.22791635990142822,-1.2430713176727295
1773048325639552300,11.63855224609375,10.240084648132324,-0.42771705985069275,-2.794816732406616
1773048325649533700,11.64853369140625,10.546365737915039,-0.9308080077171326,-2.8426733016967773
1773048325659508500,11.658508544921874,8.382058143615723,0.5204389095306396,-0.4049852192401886
1773048325669489400,11.668489501953125,11.25045394897461,-1.2418749332427979,-3.0867412090301514
1773048325679369200,11.678369140625,7.980063438415527,0.022133609279990196,-1.913659930229187
1773048325689232000,11.68823193359375,9.181859016418457,-0.21236300468444824,-3.469592809677124
1773048325699420700,11.698420654296875,9.881160736083984,-0.6909275650978088,-0.6400800347328186
1773048325709405000,11.708405029296875,8.569295883178711,0.0364905446767807,-1.9902302026748657
1773048325719377200,11.718377197265625,9.368498802185059,-0.24586252868175507,-3.0580272674560547
1773048325729360100,11.728360107421874,9.57906723022461,-0.5377869009971619,-1.674377679824829
1773048325739333400,11.73833349609375,8.645866394042969,0.2955136001110077,-1.2047861814498901
1773048325749315300,11.7483154296875,10.153943061828613,-0.4612165689468384,-2.454437732696533
1773048325759289600,11.75828955078125,8.727222442626953,0.0077766734175384045,-3.326023578643799
1773048325769270800,11.768270751953125,8.751151084899902,-0.600000262260437,-0.13220344483852386
1773048325779245800,11.778245849609375,9.627521514892578,-0.19800607860088348,-3.0580272674560547
1773048325789226500,11.7882265625,8.37727165222168,0.46779683232307434,-3.2542388439178467
1773048325799202000,11.7982021484375,10.700104713439941,-0.8303094506263733,-0.8027920126914978
1773048325809182200,11.80818212890625,7.467401027679443,0.33858439326286316,-2.4400808811187744
1773048325819062300,11.818062255859376,8.81814956665039,-0.26500511169433594,-1.8035900592803955
1773048325828925000,11.827925048828124,10.795817375183105,-0.7148557901382446,-1.7030915021896362
1773048325839114500,11.838114501953125,7.007979393005371,1.0660024881362915,-3.0484559535980225
1773048325849098200,11.84809814453125,10.958529472351074,-1.0887342691421509,-0.6209374666213989
1773048325859070700,11.85807080078125,8.631509780883789,-0.21714866161346436,-2.7900311946868896
1773048325869053400,11.868053466796875,8.09970474243164,0.3002992272377014,-3.053241729736328
1773048325879027000,11.87802685546875,11.696117401123047,-0.37028929591178894,-0.898504912853241
1773048325889008600,11.888008544921876,9.08135986328125,-0.19322042167186737,-1.8801604509353638
1773048325898983200,11.897983154296876,9.129216194152832,-0.4325026869773865,-3.321237802505493
1773048325908964400,11.90796435546875,8.305487632751465,-0.025722842663526535,-1.2717852592468262
1773048325918939600,11.917939697265625,10.795817375183105,-0.42771705985069275,-1.8323038816452026
1773048325928920000,11.927920166015625,9.296713829040527,0.03170489892363548,-1.693520188331604
1773048325938896000,11.937895751953125,8.598010063171387,-0.18364913761615753,-2.2199411392211914
1773048325948875800,11.947875732421876,9.90987491607666,-0.666999340057373,-2.7038896083831787
1773048325958852000,11.95785205078125,8.736793518066406,0.2470589429140091,-0.6640082597732544
1773048325968831700,11.967831787109375,11.710474014282227,-0.48514479398727417,-2.578864574432373
1773048325978808300,11.977808349609376,8.434700012207031,-0.6143572330474854,-4.633102893829346
1773048325988787500,11.987787353515625,9.622735977172852,-0.28893333673477173,-0.08434699475765228
1773048325998764500,11.9977646484375,10.599007606506348,-0.3655036687850952,-1.290927767753601
1773048326008743700,12.00774365234375,9.263215065002441,0.4534398913383484,-4.618745803833008
1773048326018720800,12.017720703125,9.248857498168945,-0.7968099117279053,-0.4911268353462219
1773048326028699600,12.02769970703125,8.889934539794922,-0.40378883481025696,-1.1186445951461792
1773048326038677000,12.037677001953124,10.354940414428711,-0.2745763957500458,-3.675973892211914
1773048326048655600,12.047655517578125,10.340582847595215,0.06520441919565201,-2.2295124530792236
1773048326058633200,12.05763330078125,9.742377281188965,-0.4899304509162903,-1.420140266418457
1773048326068611800,12.06761181640625,9.82373332977295,-0.3846462368965149,-1.6839489936828613
1773048326078589400,12.07758935546875,8.094919204711914,0.15613168478012085,-2.0093727111816406
1773048326088568000,12.087568115234374,9.90987491607666,-0.4133601188659668,-3.397808074951172
1773048326098546000,12.0975458984375,9.559925079345703,-0.5665007829666138,-0.5395814776420593
1773048326108524300,12.107524169921875,9.492925643920898,0.23270200192928314,-1.3435698747634888
1773048326118404400,12.117404296875,9.775876998901367,-0.2554338276386261,-4.034897327423096
1773048326128267300,12.127267333984374,9.637093544006348,-0.3415754437446594,-0.534795880317688
1773048326138458000,12.1374580078125,8.559126853942871,-0.20757736265659332,-2.349153518676758
1773048326148440600,12.147440673828125,9.7998046875,-0.24586252868175507,-2.919243574142456
1773048326158414300,12.157414306640625,9.89551830291748,-0.4325026869773865,-1.2430713176727295
1773048326168396000,12.16739599609375,9.215357780456543,-0.26500511169433594,-3.570091485977173
1773048326178276000,12.177276123046875,9.622735977172852,-0.15493527054786682,-1.9854445457458496
1773048326188138200,12.18713818359375,10.915458679199219,-0.19800607860088348,0.24586252868175507
1773048326198326800,12.197326904296874,8.880363464355469,-0.4325026869773865,-5.298905849456787
1773048326208311300,12.207311279296874,8.578866958618164,-0.32243284583091736,-1.578664779663086
1773048326218283000,12.217282958984375,11.006385803222656,0.13698910176753998,0.6245267391204834
1773048326228266200,12.227266357421875,10.398011207580566,-0.7100701332092285,-3.929612874984741
1773048326238239200,12.2372392578125,9.492925643920898,-0.06400800496339798,-2.3682961463928223
1773048326248221400,12.247221435546875,8.09970474243164,-0.049651071429252625,-1.1330015659332275
1773048326258195500,12.257195556640625,11.537592887878418,-0.7339983582496643,-1.9184455871582031
1773048326268177000,12.267177001953126,8.875576972961426,-0.1501496136188507,-2.675175666809082
1773048326278151700,12.277151611328126,8.995218276977539,-0.15972091257572174,-2.430509567260742
1773048326288132600,12.287132568359375,10.264012336730957,-0.6574280261993408,-0.9415757060050964
1773048326298012700,12.2970126953125,9.354142189025879,0.12263216078281403,-2.8522446155548096
1773048326307875000,12.306875,9.339784622192383,-0.3846462368965149,-2.651247501373291
1773048326317870000,12.3168701171875,9.885947227478027,-0.3655036687850952,-0.3044866919517517
1773048326327834600,12.326834716796874,9.124430656433105,0.251844584941864,-2.468794822692871
1773048326337826300,12.336826416015626,9.93380355834961,-0.8063812255859375,-2.4161527156829834
1773048326347793400,12.34679345703125,9.244071960449219,-0.6239284873008728,-1.113858938217163
1773048326357782300,12.3567822265625,7.802994728088379,1.089930772781372,-1.5206388235092163
1773048326367751700,12.366751708984374,11.796615600585938,-1.490728497505188,-2.770888566970825
1773048326377932500,12.3769326171875,9.19143009185791,-0.666999340057373,-2.459223508834839
1773048326387923500,12.38692333984375,6.687341213226318,0.6305087804794312,-1.5643078088760376
1773048326397889000,12.396888916015625,12.2799654006958,-0.5952146053314209,-1.333998680114746
1773048326407877000,12.406877197265626,9.502496719360352,-0.0975075215101242,-1.7413766384124756
1773048326417757200,12.416757080078124,8.612366676330566,-0.600000262260437,-3.014956474304199
1773048326427618000,12.4266181640625,8.334200859069824,-0.4181457459926605,0.672383189201355
1773048326437801500,12.436801513671876,10.819746017456055,0.19920247793197632,-2.7038896083831787
1773048326447790000,12.4467900390625,11.925827980041504,-1.6342978477478027,-2.823530673980713
1773048326457757700,12.4567578125,6.52462911605835,0.8554341197013855,-3.1585259437561035
1773048326467744300,12.466744140625,9.689735412597656,0.8602197170257568,-0.1704886108636856
1773048326477714000,12.4767138671875,12.265608787536621,-1.9124635457992554,0.8446664214134216
1773048326487699000,12.486698974609375,5.983253002166748,0.19920247793197632,-7.022934436798096
1773048326497670100,12.496670166015624,10.110872268676758,-0.4085744619369507,-0.5826523303985596
1773048326507654000,12.50665380859375,10.896316528320312,0.4630111753940582,1.3040883541107178
1773048326517626400,12.51662646484375,11.686545372009277,-0.14057832956314087,-4.231108665466309
1773048326527609000,12.526609130859375,7.409973621368408,-1.3471591472625732,-3.8195431232452393
1773048326537582800,12.536582763671875,6.850052833557129,0.2763710021972656,1.4189438819885254
1773048326547564300,12.546564208984375,11.389237403869629,0.7932206988334656,-0.9128618240356445
1773048326557539000,12.5565390625,11.787044525146484,-1.6582261323928833,-6.6729841232299805
1773048326567520000,12.56652001953125,7.06062126159668,-1.4572290182113647,0.8063812255859375
1773048326577495300,12.576495361328124,8.070990562438965,0.7836494445800781,-1.6121642589569092
1773048326587475700,12.586475830078125,13.036696434020996,0.12263216078281403,-3.6370904445648193
1773048326597451500,12.596451416015626,11.734402656555176,-2.448455810546875,-1.578664779663086
1773048326607431400,12.606431396484375,5.173880577087402,0.2470589429140091,-2.675175666809082
1773048326617311200,12.616311279296875,8.176275253295898,1.1856436729431152,0.12143574655056
1773048326627174000,12.626173828125,14.133207321166992,-1.576870083808899,-1.3148560523986816
1773048326637363700,12.63636376953125,7.630711555480957,-1.3280165195465088,-3.6370904445648193
1773048326647347500,12.646347412109375,6.5868425369262695,1.171286702156067,-2.430509567260742
1773048326657320000,12.65631982421875,13.16112232208252,-1.0504491329193115,1.160519003868103
1773048326667302400,12.666302490234376,10.934600830078125,-1.5385849475860596,-3.105883836746216
1773048326677276400,12.6762763671875,6.055037498474121,0.6161518096923828,-4.058825492858887
1773048326687257900,12.6862578125,11.044671058654785,-0.8015955686569214,-0.36670008301734924
1773048326697232400,12.696232421875,10.498509407043457,-1.7491533756256104,-0.19920247793197632
1773048326707213300,12.70621337890625,8.085348129272461,-0.9834501147270203,-3.507878065109253
1773048326717093400,12.71609326171875,8.171489715576172,-1.0839486122131348,-2.2917258739471436
1773048326726955800,12.725955810546875,10.14437198638916,-2.2474586963653564,-0.37148571014404297
1773048326737144800,12.736144775390626,9.162715911865234,-0.8590233325958252,-1.511067509651184
1773048326747129000,12.746129150390624,9.905089378356934,-1.7491533756256104,-1.8705891370773315
1773048326757101000,12.75610107421875,10.000802040100098,-2.4675984382629395,-2.531008243560791
1773048326767084000,12.766083984375,8.525627136230469,-1.0552347898483276,-1.693520188331604
1773048326777057300,12.776057373046875,11.049456596374512,-0.8733802437782288,-0.5395814776420593
1773048326787039500,12.78603955078125,9.775876998901367,-1.6821542978286743,-2.129014015197754
1773048326797013500,12.796013427734374,6.582056999206543,-1.3950155973434448,-3.2542388439178467
1773048326806994700,12.80599462890625,9.153144836425781,-0.7627122402191162,-0.6017948985099792
1773048326816970000,12.815969970703126,11.3509521484375,-0.1501496136188507,-1.2526426315307617
1773048326826950400,12.825950439453125,11.427522659301758,-1.8161523342132568,-2.9144580364227295
1773048326836926200,12.83592626953125,6.99840784072876,-0.9978070259094238,-2.981456995010376
1773048326846906000,12.845906005859375,8.741579055786133,0.3768695592880249,-1.5978072881698608
1773048326856882400,12.85588232421875,12.988839149475098,-0.025722842663526535,-0.3762713670730591
1773048326866862000,12.865862060546876,10.50808048248291,-0.5712863802909851,-2.612962245941162
1773048326876838700,12.875838623046874,7.328617572784424,-0.8925228714942932,-3.7716867923736572
