time,seconds_elapsed,z,y,x
1771681478235207700,0.149207763671875,10.229316711425781,0.4043870270252228,0.3397808074951172
1771681478245565700,0.159565673828125,9.810572624206543,1.4093725681304932,0.5216353535652161
1771681478255923500,0.16992333984375,9.994820594787598,-0.4307080805301666,0.6484549641609192
1771681478266281500,0.180281494140625,9.980463027954102,0.2847459018230438,0.2392822653055191
1771681478286997200,0.200997314453125,9.990034103393555,-0.009571290574967861,0.7776673436164856
1771681478297355000,0.21135498046875,10.01874828338623,0.16271193325519562,0.605384111404419
1771681478328428800,0.2424287109375,10.466206550598145,0.20578274130821228,0.35413774847984314
1771681478338786600,0.25278662109375,9.753145217895508,0.4905286431312561,0.5551348328590393
1771681478349144600,0.26314453125,10.442277908325195,1.0719845294952393,0.6317051649093628
1771681478359502300,0.27350244140625,9.585647583007812,-1.7443677186965942,0.6699903607368469
1771681478369860400,0.2838603515625,10.195816993713379,1.8975083827972412,0.0933200865983963
1771681478380218000,0.294218017578125,10.39202880859375,-1.00259268283844,0.27756741642951965
1771681478390576000,0.304576171875,9.55214786529541,0.9403793215751648,0.23688943684101105
1771681478400934000,0.314933837890625,10.552348136901855,-0.4163511395454407,0.5120640397071838
1771681478411292000,0.3252919921875,10.114460945129395,0.17228323221206665,0.25363919138908386
1771681478421649700,0.335649658203125,9.231510162353516,-0.07896314561367035,0.6269195079803467
1771681478432007700,0.346007568359375,10.126425743103027,-0.1579262912273407,0.6340979933738708
1771681478442365400,0.356365478515625,9.573683738708496,0.6867401003837585,0.20099709928035736
1771681478452723500,0.366723388671875,9.607182502746582,-0.916451096534729,0.41156548261642456
1771681478463081200,0.377081298828125,9.726823806762695,1.4476577043533325,0.08374879509210587
1771681478473439200,0.387439208984375,10.088140487670898,0.48095735907554626,0.39481574296951294
1771681478483797000,0.397796875,9.53779125213623,0.031106693670153618,0.37088751792907715
1771681478494155000,0.408155029296875,9.580862045288086,-0.5886343717575073,0.5647061467170715
1771681478504513000,0.418512939453125,9.858428955078125,1.1389836072921753,0.6532405614852905
1771681478514870800,0.428870849609375,9.973284721374512,0.15074782073497772,0.1339980661869049
1771681478525228800,0.439228759765625,9.336793899536133,-0.1579262912273407,0.23688943684101105
1771681478535586600,0.449586669921875,9.616754531860352,0.11964113265275955,0.2727817893028259
1771681478545944600,0.459944580078125,9.65503978729248,0.15074782073497772,0.7680960893630981
1771681478556302300,0.47030224609375,9.949356079101562,0.6173482537269592,0.7657032608985901
1771681478566660400,0.480660400390625,9.903892517089844,0.1579262912273407,0.4091726839542389
1771681478577018000,0.49101806640625,9.183652877807617,0.1986042857170105,0.24167509377002716
1771681478587376000,0.501376220703125,9.860821723937988,0.42831525206565857,0.727418065071106
1771681478597734000,0.51173388671875,9.650253295898438,0.46420758962631226,0.6939185857772827
1771681478608092000,0.522091796875,10.207781791687012,-0.02632104977965355,0.5000999569892883
1771681478618449700,0.53244970703125,9.09272575378418,0.040677983313798904,0.47617170214653015
1771681478628807700,0.5428076171875,10.090533256530762,0.0023928226437419653,0.6508477330207825
1771681478639165400,0.55316552734375,9.628718376159668,1.2251251935958862,0.5168496966362
1771681478649523500,0.5635234375,9.820143699645996,-0.5359922647476196,0.5455635786056519
1771681478659881200,0.573881103515625,9.844072341918945,0.7082754969596863,0.5240281820297241
1771681478670239200,0.5842392578125,9.760323524475098,-0.2560320198535919,0.8757730722427368
1771681478680597000,0.594596923828125,10.430314064025879,0.8350951075553894,0.16271193325519562
1771681478690955000,0.604955078125,8.812766075134277,0.08374879509210587,0.7345965504646301
1771681478701312800,0.615312744140625,10.724631309509277,-0.004785645287483931,0.4498506486415863
1771681478711670800,0.6256708984375,9.66939640045166,0.27756741642951965,0.8207381963729858
1771681478722028500,0.636028564453125,10.777273178100586,-0.12203395366668701,0.6891329288482666
1771681478732386600,0.646386474609375,9.736394882202148,0.17706887423992157,0.42352959513664246
1771681478742744300,0.656744384765625,10.676774978637695,0.3924229145050049,0.363709032535553
1771681478753102300,0.667102294921875,9.506684303283691,-0.275174617767334,0.19142581522464752
1771681478763460000,0.677460205078125,10.016355514526367,0.6436693072319031,0.49292147159576416
1771681478773818000,0.687818115234375,9.410971641540527,-0.30149564146995544,0.885344386100769
1771681478784176000,0.698176025390625,10.198209762573242,0.6675975322723389,0.2991028428077698
1771681478794534000,0.708533935546875,9.554540634155273,-0.02153540402650833,0.349352091550827
1771681478804892000,0.718891845703125,10.269994735717773,0.5024927258491516,-0.007178467698395252
1771681478815249700,0.729249755859375,9.621540069580078,0.38763725757598877,0.5814558863639832
1771681478825607700,0.739607666015625,10.06421184539795,-0.4498506486415863,0.34695929288864136
1771681478835965400,0.74996533203125,9.382257461547852,0.7561319470405579,0.45224347710609436
1771681478846323500,0.760323486328125,10.358529090881348,-0.038285162299871445,0.08853443711996078
1771681478856681200,0.77068115234375,9.90149974822998,0.397208571434021,0.11006984114646912
1771681478867039200,0.781039306640625,9.798608779907227,0.16271193325519562,0.09092725813388824
1771681478877397000,0.79139697265625,9.489934921264648,0.19381862878799438,0.8135597109794617
1771681478887755000,0.801755126953125,9.724431037902832,0.5742774605751038,0.5910272002220154
1771681478898112800,0.81211279296875,9.719645500183105,-0.46420758962631226,0.5694918036460876
1771681478908470800,0.822470703125,10.193424224853516,0.7776673436164856,-0.016749758273363113
1771681478918828500,0.83282861328125,9.844072341918945,-0.09810572862625122,0.16749759018421173
1771681478929186300,0.843186279296875,10.028319358825684,0.47617170214653015,0.20578274130821228
1771681478939544300,0.85354443359375,9.970891952514648,-0.13878370821475983,0.6269195079803467
1771681478949902000,0.863902099609375,10.219745635986328,0.13639089465141296,0.4331009089946747
1771681478960260000,0.874260009765625,9.540184020996094,0.550349235534668,0.059820566326379776
1771681478970617900,0.884617919921875,9.705288887023926,-0.2153540402650833,0.41156548261642456
1771681478980975900,0.894975830078125,9.745966911315918,0.7058826684951782,0.4211367964744568
1771681478991334000,0.905333984375,10.277173042297363,-0.12442677468061447,0.672383189201355
1771681479001691600,0.915691650390625,9.856036186218262,0.21296121180057526,0.31345975399017334
1771681479012049700,0.926049560546875,10.284351348876953,0.4737788736820221,0.6675975322723389
1771681479022407400,0.936407470703125,10.210174560546875,-0.02153540402650833,0.16749759018421173
1771681479032765400,0.946765380859375,9.600004196166992,0.6580262184143066,0.24406790733337402
1771681479043123200,0.957123291015625,9.602396965026855,0.014356935396790504,0.48813581466674805
1771681479053481200,0.967481201171875,9.686145782470703,0.26081767678260803,0.9260223507881165
1771681479063839000,0.9778388671875,9.269794464111328,0.33738797903060913,0.5623133182525635
1771681479074197000,0.988197021484375,9.944570541381836,-0.3756731450557709,0.4737788736820221
1771681479084554800,0.9985546875,10.17428207397461,1.1365907192230225,-0.062213387340307236
1771681479094912800,1.008912841796875,9.7938232421875,-0.23449662327766418,0.31824541091918945
1771681479105270500,1.0192705078125,9.934999465942383,0.7513462901115417,0.28235307335853577
1771681479115628500,1.029628662109375,9.554540634155273,-0.3038884699344635,0.7704889178276062
1771681479125986300,1.039986328125,9.841679573059082,0.4737788736820221,0.5431707501411438
1771681479136344300,1.05034423828125,9.473184585571289,0.23449662327766418,0.23449662327766418
1771681479146702000,1.0607021484375,10.198209762573242,0.34217363595962524,0.12442677468061447
1771681479157060000,1.07106005859375,8.8438720703125,0.1052841991186142,0.06699903309345245
1771681479167417900,1.08141796875,10.557133674621582,0.3852444589138031,0.5240281820297241
1771681479177775900,1.09177587890625,9.21715259552002,0.13639089465141296,0.27756741642951965
1771681479188133600,1.102133544921875,10.095318794250488,0.040677983313798904,0.4091726839542389
1771681479198491600,1.11249169921875,9.389435768127441,0.6293123364448547,0.1459621787071228
1771681479208849400,1.122849365234375,10.171889305114746,0.007178467698395252,0.007178467698395252
1771681479219207400,1.13320751953125,9.602396965026855,0.23688943684101105,0.02153540402650833
1771681479229565200,1.143565185546875,10.317851066589355,0.34217363595962524,0.8662018179893494
1771681479239923200,1.153923095703125,10.030712127685547,0.349352091550827,0.5838487148284912
1771681479250281000,1.164281005859375,9.638289451599121,-0.040677983313798904,0.8063812255859375
1771681479260639000,1.174638916015625,9.839286804199219,0.13639089465141296,0.04546362906694412
1771681479270996700,1.184996826171875,10.12881851196289,0.4977070987224579,0.5599204897880554
1771681479281354800,1.195354736328125,9.4660062789917,0.12442677468061447,0.380458801984787
1771681479291712500,1.20571240234375,10.169496536254883,0.08614161610603333,0.4953143000602722
1771681479302070500,1.216070556640625,10.138389587402344,0.2967100143432617,0.7322037220001221
1771681479312428300,1.22642822265625,10.030712127685547,-0.16510476171970367,0.7920243144035339
1771681479322786300,1.236786376953125,9.69093132019043,0.698704183101654,0.19621145725250244
1771681479333144000,1.24714404296875,10.51645565032959,-0.02632104977965355,0.3086741268634796
1771681479343501800,1.257501708984375,9.035298347473145,-0.0933200865983963,0.7202396392822266
1771681479353859800,1.26785986328125,10.559526443481445,0.5862415432929993,0.9643075466156006
1771681479364217600,1.278217529296875,9.791430473327637,0.4977070987224579,0.914058268070221
1771681479374575600,1.28857568359375,9.623932838439941,-0.7250252366065979,0.8111668825149536
1771681479384933400,1.298933349609375,10.293923377990723,0.882951557636261,0.5216353535652161
1771681479395291400,1.30929150390625,10.03310489654541,0.5694918036460876,0.2632105052471161
1771681479405649400,1.3196494140625,10.092926025390625,-0.15314064919948578,0.44745782017707825
1771681479416007200,1.330007080078125,8.95394229888916,-0.20817556977272034,0.8255237936973572
1771681479426365200,1.340365234375,11.085947036743164,0.8374879360198975,1.062413215637207
1771681479436723000,1.350722900390625,9.664610862731934,-0.007178467698395252,0.5647061467170715
1771681479447081000,1.3610810546875,9.726823806762695,-0.05024927482008934,0.32303106784820557
1771681479457438700,1.371438720703125,10.03310489654541,0.6867401003837585,0.7704889178276062
1771681479467796700,1.381796630859375,10.423135757446289,0.5168496966362,0.380458801984787
1771681479478154500,1.392154541015625,9.08554744720459,-0.36610186100006104,0.7920243144035339
1771681479488512300,1.40251220703125,9.781859397888184,0.36610186100006104,0.6939185857772827
1771681479498870300,1.412870361328125,9.781859397888184,0.5862415432929993,0.6508477330207825
1771681479509228000,1.42322802734375,10.04267692565918,0.8303094506263733,0.6556333899497986
1771681479519586000,1.4335859375,10.25324535369873,1.8951154947280884,-0.09092725813388824
1771681479529943800,1.44394384765625,9.487542152404785,-1.4811571836471558,0.17706887423992157
1771681479540301800,1.4543017578125,8.805587768554688,-0.19621145725250244,0.24646073579788208
1771681479550659600,1.46465966796875,10.28195858001709,1.8687944412231445,0.8015955686569214
1771681479561017600,1.475017578125,11.13619613647461,2.084148406982422,0.882951557636261
1771681479571375400,1.485375244140625,9.425328254699707,-0.9690931439399719,0.9978070259094238
1771681479581733400,1.4957333984375,8.516056060791016,-1.3639088869094849,0.25363919138908386
1771681479592091100,1.506091064453125,9.923035621643066,2.0027925968170166,0.17228323221206665
1771681479602449200,1.51644921875,10.619346618652344,1.4261223077774048,0.6699903607368469
1771681479612807000,1.526806884765625,9.686145782470703,0.38763725757598877,0.6460621356964111
1771681479623165000,1.5371650390625,9.200403213500977,0.2799602448940277,0.4426721930503845
1771681479633522700,1.547522705078125,9.743574142456055,-0.15314064919948578,0.49292147159576416
1771681479643880700,1.557880615234375,9.781859397888184,0.727418065071106,0.5910272002220154
1771681479654238500,1.568238525390625,10.013962745666504,0.9212366938591003,0.064606212079525
1771681479664596500,1.578596435546875,9.997213363647461,1.160519003868103,0.31345975399017334
1771681479674954200,1.588954345703125,10.1814603805542,0.7058826684951782,0.4091726839542389
1771681479685312300,1.599312255859375,9.365508079528809,-0.4546363055706024,0.8685946464538574
1771681479695670000,1.609669921875,9.635896682739258,0.6795616149902344,0.7250252366065979
1771681479706028000,1.620028076171875,9.836894035339355,2.0243279933929443,-0.014356935396790504
1771681479716385800,1.6303857421875,9.66939640045166,1.0959128141403198,0.21774685382843018
1771681479726743800,1.640743896484375,9.513862609863281,-0.009571290574967861,0.2225325107574463
1771681479737101600,1.6511015625,9.391828536987305,-0.2847459018230438,0.004785645287483931
1771681479747459600,1.66145947265625,10.552348136901855,1.6247265338897705,0.5958128571510315
1771681479757817300,1.6718173828125,9.915857315063477,0.6795616149902344,0.6149554252624512
1771681479768175400,1.68217529296875,9.81535816192627,0.3038884699344635,0.13878370821475983
1771681479778533000,1.692533203125,9.647860527038574,0.10289137065410614,0.05503492057323456
1771681479788891100,1.70289111328125,9.76989459991455,0.638883650302887,0.004785645287483931
1771681479799249000,1.713248779296875,9.461220741271973,0.2105683982372284,0.6436693072319031
1771681479809606700,1.723606689453125,9.834501266479492,0.17706887423992157,0.275174617767334
1771681479819964700,1.733964599609375,9.078369140625,-0.05742774158716202,0.5718846321105957
1771681479830322700,1.74432275390625,10.64088249206543,0.9690931439399719,0.38763725757598877
1771681479840680400,1.754680419921875,9.659825325012207,-0.15314064919948578,0.48095735907554626
1771681479851038500,1.76503857421875,10.016355514526367,0.07657032459974289,0.39960137009620667
1771681479861396200,1.775396240234375,10.016355514526367,0.41874396800994873,0.607776939868927
1771681479871754200,1.785754150390625,10.124032974243164,0.11006984114646912,0.10289137065410614
1771681479882112000,1.796112060546875,9.442078590393066,0.2225325107574463,0.4043870270252228
1771681479892469800,1.8064697265625,10.669595718383789,0.7968099117279053,-0.0933200865983963
1771681479902827800,1.816827880859375,9.250652313232422,0.06939185410737991,0.12921242415905
1771681479913185500,1.827185546875,9.501898765563965,0.12681959569454193,0.5886343717575073
1771681479923543600,1.83754345703125,10.1216402053833,0.6197410821914673,1.1413763761520386
1771681479933901300,1.8479013671875,10.289137840270996,-0.01196411345154047,0.5359922647476196
1771681479944259300,1.85825927734375,9.588040351867676,-0.16749759018421173,0.6149554252624512
1771681479954617000,1.8686171875,10.494919776916504,0.39960137009620667,0.1986042857170105
1771681479964975000,1.87897509765625,9.975677490234375,0.4977070987224579,0.5599204897880554
1771681479975332900,1.889332763671875,9.848857879638672,-0.26560330390930176,0.6317051649093628
1771681479985691000,1.89969091796875,10.01156997680664,0.1698904037475586,0.9188438653945923
1771681479996048600,1.910048583984375,9.853643417358398,0.8566305041313171,0.6963114142417908
1771681480006406700,1.92040673828125,10.478170394897461,0.7154539823532104,0.5407779216766357
1771681480016764400,1.930764404296875,9.501898765563965,0.33499518036842346,0.4259224236011505
1771681480027122400,1.941122314453125,9.757930755615234,0.062213387340307236,1.1078768968582153
1771681480037480200,1.951480224609375,10.021141052246094,1.2921242713928223,0.7992027401924133
1771681480047838200,1.961838134765625,10.72702407836914,1.698904037475586,0.44745782017707825
1771681480058196000,1.972196044921875,9.990034103393555,-0.38763725757598877,0.12203395366668701
1771681480068554000,1.982553955078125,9.78664493560791,0.7082754969596863,0.5647061467170715
1771681480078911700,1.992911865234375,10.444670677185059,0.519242525100708,0.6747759580612183
1771681480089269800,2.003269775390625,10.198209762573242,1.6773686408996582,0.5168496966362
1771681480099627500,2.01362744140625,9.006584167480469,0.8063812255859375,0.8446664214134216
1771681480109985500,2.023985595703125,10.351350784301758,1.0408778190612793,0.44745782017707825
1771681480120343300,2.03434326171875,8.22413158416748,0.48813581466674805,0.48813581466674805
1771681480130701300,2.044701416015625,10.171889305114746,0.14835500717163086,-0.031106693670153618
1771681480141059000,2.05505908203125,8.559126853942871,0.6747759580612183,0.6029912829399109
1771681480151416800,2.065416748046875,9.992427825927734,1.0815558433532715,0.35413774847984314
1771681480161774800,2.07577490234375,9.418149948120117,0.6269195079803467,0.15074782073497772
1771681480172132600,2.086132568359375,9.91107177734375,0.6269195079803467,0.12681959569454193
1771681480182490600,2.09649072265625,8.951549530029297,0.18424734473228455,0.5240281820297241
1771681480192848400,2.106848388671875,9.729216575622559,0.28235307335853577,0.24406790733337402
1771681480203206400,2.117206298828125,8.93958568572998,1.28255295753479,0.885344386100769
1771681480213564200,2.127564208984375,8.72901725769043,0.016749758273363113,0.4498506486415863
1771681480223922200,2.137922119140625,9.573683738708496,1.1054840087890625,0.4163511395454407
1771681480234280000,2.148280029296875,9.248259544372559,0.31345975399017334,-0.11964113265275955
1771681480244638000,2.158637939453125,9.645467758178711,0.3900300860404968,0.040677983313798904
1771681480254995700,2.16899560546875,9.114261627197266,0.2871387302875519,0.5431707501411438
1771681480265353700,2.179353759765625,10.820343971252441,1.6582261323928833,0.3158525824546814
1771681480275711500,2.18971142578125,9.908679008483887,0.8015955686569214,0.12681959569454193
1771681480286069500,2.200069580078125,9.970891952514648,0,0.3397808074951172
1771681480296427300,2.21042724609375,9.578469276428223,0.6795616149902344,0.4259224236011505
1771681480306785300,2.220785400390625,10.04267692565918,1.2969099283218384,0.44745782017707825
1771681480317143000,2.23114306640625,10.1814603805542,1.6007983684539795,0.32542386651039124
1771681480327501000,2.2415009765625,10.40638542175293,0.7992027401924133,-0.009571290574967861
1771681480337858800,2.25185888671875,10.365707397460938,0.9451649188995361,0.46899324655532837
1771681480348216800,2.262216796875,10.116853713989258,0.2153540402650833,0.4450650215148926
1771681480358574600,2.27257470703125,9.868000984191895,0.6149554252624512,0.8063812255859375
1771681480368932400,2.282932373046875,10.53081226348877,2.3258235454559326,0.5120640397071838
1771681480379290400,2.293290283203125,10.583454132080078,1.7228323221206665,0.1746760457754135
1771681480389648100,2.303648193359375,10.138389587402344,0.2512463629245758,-0.42352959513664246
1771681480400006100,2.314006103515625,9.198010444641113,0.3900300860404968,-0.016749758273363113
1771681480410364000,2.324364013671875,9.961320877075195,0.5527420043945312,0.28235307335853577
1771681480420722000,2.334721923828125,9.391828536987305,2.210968017578125,1.0863415002822876
1771681480431079700,2.34507958984375,10.073782920837402,1.5026925802230835,0.641276478767395
1771681480441437700,2.355437744140625,9.578469276428223,0.5886343717575073,0.4211367964744568
1771681480451795500,2.36579541015625,9.06401252746582,0.5431707501411438,-0.09810572862625122
1771681480462153500,2.376153564453125,10.217352867126465,0.12442677468061447,-0.05503492057323456
1771681480472511200,2.38651123046875,9.154939651489258,1.3710874319076538,0.5790630578994751
1771681480482869200,2.396869140625,9.896714210510254,1.797009825706482,0.6149554252624512
1771681480493227000,2.40722705078125,9.253045082092285,0.9044869542121887,0.3086741268634796
1771681480503585000,2.4175849609375,9.22433090209961,0.5742774605751038,0.4378865361213684
1771681480513942800,2.42794287109375,9.43489933013916,0.2105683982372284,0.3445664644241333
1771681480524300800,2.43830078125,9.839286804199219,0.7728816866874695,0.7992027401924133
1771681480534658600,2.448658447265625,9.430113792419434,1.8161523342132568,0.7800601720809937
1771681480545016600,2.4590166015625,9.736394882202148,1.1341979503631592,0.3565305769443512
1771681480555374300,2.469374267578125,9.963713645935059,0.9930213689804077,-0.2991028428077698
1771681480565732000,2.479732177734375,9.123832702636719,-0.4019941985607147,0.24167509377002716
1771681480576090000,2.490090087890625,10.334601402282715,1.179661512374878,0.275174617767334
1771681480586448000,2.50044775390625,10.490134239196777,2.8139593601226807,0.7513462901115417
1771681480596806000,2.510805908203125,9.260223388671875,0.12203395366668701,0.9020941257476807
1771681480607163600,2.52116357421875,10.372885704040527,1.007378339767456,0.4331009089946747
1771681480617521700,2.531521728515625,9.008976936340332,0.031106693670153618,0.6556333899497986
1771681480627879400,2.54187939453125,9.839286804199219,1.057627558708191,0.02392822690308094
1771681480638237400,2.552237548828125,10.183853149414062,2.227717876434326,-0.014356935396790504
1771681480648595200,2.56259521484375,10.84427261352539,1.0408778190612793,0.17946170270442963
1771681480658953200,2.572953125,9.542576789855957,0.7082754969596863,0.1052841991186142
1771681480669311000,2.58331103515625,10.02592658996582,-0.5479564070701599,0.6747759580612183
1771681480679669000,2.5936689453125,9.698110580444336,1.6558332443237305,0.6939185857772827
1771681480690026800,2.60402685546875,10.877771377563477,2.258824586868286,0.5264210104942322
1771681480700384800,2.614384765625,9.858428955078125,0.882951557636261,0.44745782017707825
1771681480710742500,2.624742431640625,9.32722282409668,0.7537391185760498,-0.2153540402650833
1771681480721100500,2.6351005859375,9.035298347473145,-0.0933200865983963,0.5407779216766357
1771681480731458300,2.645458251953125,10.238887786865234,1.5122638940811157,0.6245267391204834
1771681480741816300,2.65581640625,10.001998901367188,3.211168050765991,1.179661512374878
1771681480752174000,2.666174072265625,9.980463027954102,0.3924229145050049,0.5742774605751038
1771681480762531800,2.67653173828125,9.449256896972656,0.48574298620224,0.48574298620224
1771681480772889900,2.686889892578125,9.152546882629395,0.5670989751815796,0.3732803463935852
1771681480783247600,2.69724755859375,9.81535816192627,1.1413763761520386,0.397208571434021
1771681480793605600,2.707605712890625,9.315258979797363,2.974278450012207,-0.1459621787071228
1771681480803963400,2.71796337890625,10.29153060913086,0.4666004180908203,0.0023928226437419653
1771681480814321400,2.7283212890625,9.016156196594238,0.7752745151519775,0.4259224236011505
1771681480824679200,2.73867919921875,9.556933403015137,-0.059820566326379776,0.849452018737793
1771681480835037200,2.749037109375,10.224531173706055,1.8161523342132568,0.7728816866874695
1771681480845395000,2.75939501953125,8.886942863464355,2.5148565769195557,0.4331009089946747
1771681480855753000,2.7697529296875,10.679167747497559,0.16749759018421173,-0.19142581522464752
1771681480866110700,2.78011083984375,9.600004196166992,0.698704183101654,0.11724831163883209
1771681480876468500,2.790468505859375,9.300901412963867,-0.27756741642951965,0.4426721930503845
1771681480886826500,2.800826416015625,11.050054550170898,2.2540390491485596,0.5264210104942322
1771681480897184500,2.8111845703125,9.975677490234375,1.9621145725250244,1.2370892763137817
1771681480907542300,2.821542236328125,9.990034103393555,-0.1052841991186142,0.8015955686569214
1771681480917900000,2.831900146484375,9.135796546936035,0.13639089465141296,0.9667003750801086
1771681480928258000,2.842258056640625,10.784451484680176,1.0241280794143677,0.46420758962631226
1771681480938615800,2.85261572265625,9.879964828491211,2.3952155113220215,0.26560330390930176
1771681480948973800,2.862973876953125,10.588240623474121,1.5098711252212524,0
1771681480959331600,2.87333154296875,9.741181373596191,-0.06699903309345245,0.15553347766399384
1771681480969689600,2.883689697265625,9.8871431350708,0.035892341285943985,0.7968099117279053
1771681480980047400,2.89404736328125,10.423135757446289,0.763310432434082,0.9786644577980042
1771681480990405400,2.9044052734375,9.961320877075195,2.957528829574585,1.100698471069336
1771681481000763100,2.91476318359375,9.647860527038574,0.32542386651039124,0.6340979933738708
1771681481011121200,2.92512109375,9.059226989746094,0.15074782073497772,-0.5623133182525635
1771681481021479000,2.93547900390625,9.396614074707031,0.28953152894973755,0.39960137009620667
1771681481031837000,2.9458369140625,10.217352867126465,2.091326951980591,0.08135596662759781
1771681481042194700,2.956194580078125,9.367900848388672,2.007578134536743,0.7585247755050659
1771681481052552400,2.966552490234375,10.494919776916504,-0.06699903309345245,0.24885354936122894
1771681481062910500,2.976910400390625,8.444271087646484,0.5144568681716919,0.363709032535553
1771681481073268200,2.987268310546875,10.028319358825684,0.02153540402650833,0.4331009089946747
1771681481083626200,2.997626220703125,9.401400566101074,2.2444677352905273,0
1771681481093984000,3.00798388671875,10.119247436523438,1.7539390325546265,0.0933200865983963
1771681481104342000,3.018342041015625,10.289137840270996,-0.24646073579788208,0.20099709928035736
1771681481114699800,3.02869970703125,8.475378036499023,0.2153540402650833,0.6747759580612183
1771681481125057800,3.039057861328125,11.23908805847168,0.8111668825149536,0.6532405614852905
1771681481135415600,3.04941552734375,9.243474006652832,3.0556344985961914,0.6436693072319031
1771681481145773600,3.059773681640625,9.578469276428223,0.27038896083831787,0.12203395366668701
1771681481156131300,3.07013134765625,9.20279598236084,-0.059820566326379776,-0.48574298620224
1771681481166489300,3.0804892578125,9.09272575378418,1.038485050201416,0.5982056856155396
1771681481176847000,3.09084716796875,10.705488204956055,1.4524433612823486,0.19142581522464752
1771681481187205000,3.101205078125,9.91107177734375,2.2707886695861816,0.698704183101654
1771681481197563000,3.11156298828125,10.494919776916504,-0.22971096634864807,0.09092725813388824
1771681481207920600,3.121920654296875,8.504091262817383,-0.1746760457754135,0.8350951075553894
1771681481218278700,3.132278564453125,10.664810180664062,1.3184453248977661,-0.12442677468061447
1771681481228636400,3.142636474609375,9.403793334960938,2.8833513259887695,0.16510476171970367
1771681481238994400,3.152994384765625,9.183652877807617,0.8398807644844055,-0.05024927482008934
1771681481249352200,3.163352294921875,9.346364974975586,-0.5144568681716919,0.27756741642951965
1771681481259710200,3.173710205078125,9.150154113769531,0.7537391185760498,0.7800601720809937
1771681481270068000,3.18406787109375,10.638489723205566,2.3018953800201416,0.8422735929489136
1771681481280426000,3.194426025390625,9.930213928222656,2.0171494483947754,0.5599204897880554
1771681481290783700,3.20478369140625,10.222138404846191,0.11006984114646912,0.09092725813388824
1771681481301141800,3.215141845703125,8.774480819702148,-0.6915257573127747,0.19142581522464752
1771681481311499500,3.22549951171875,11.109875679016113,2.2947168350219727,0.47617170214653015
1771681481321857500,3.235857421875,10.52363395690918,3.541377544403076,0.6245267391204834
1771681481332215300,3.24621533203125,9.55214786529541,-0.15314064919948578,0.7920243144035339
1771681481342573300,3.2565732421875,8.551948547363281,-0.6843472719192505,0.550349235534668
1771681481352931000,3.26693115234375,10.341779708862305,1.8424733877182007,0.40677985548973083
1771681481363288800,3.277288818359375,10.351350784301758,3.6993038654327393,-0.20817556977272034
1771681481373646800,3.287646728515625,8.688339233398438,1.588834285736084,0.1698904037475586
1771681481384004600,3.298004638671875,9.590433120727539,-0.9403793215751648,-0.2273181527853012
1771681481394362600,3.308362548828125,8.975478172302246,1.0911271572113037,0.6436693072319031
1771681481404720400,3.318720458984375,11.3778715133667,2.9862427711486816,0.576670229434967
1771681481415078400,3.329078369140625,10.013962745666504,2.00518536567688,0.28235307335853577
1771681481425436200,3.339436279296875,9.410971641540527,-0.5575276613235474,-0.2727817893028259
1771681481435794200,3.349794189453125,8.539983749389648,0.3038884699344635,0.14356936514377594
1771681481446152000,3.36015185546875,10.667202949523926,2.964707374572754,0.5216353535652161
1771681481456510000,3.370510009765625,10.006784439086914,3.0388846397399902,0.729810893535614
1771681481466867700,3.38086767578125,9.011369705200195,-0.12921242415905,0.5599204897880554
1771681481477225500,3.3912255859375,9.030512809753418,-0.4833501875400543,0.6173482537269592
1771681481487583500,3.40158349609375,10.05703353881836,2.0961127281188965,1.0671988725662231
1771681481497941200,3.411941162109375,11.150553703308105,3.014956474304199,-0.0933200865983963
1771681481508299300,3.42229931640625,9.990034103393555,0.5814558863639832,-0.004785645287483931
1771681481518657000,3.432656982421875,9.05444049835205,-1.155733346939087,0.1698904037475586
1771681481529015000,3.44301513671875,9.65503978729248,1.3399807214736938,1.1318050622940063
1771681481539372800,3.453372802734375,11.777473449707031,3.555734395980835,0.5312066078186035
1771681481549730800,3.463730712890625,9.111868858337402,0.6867401003837585,0.16271193325519562
1771681481560088600,3.474088623046875,9.253045082092285,-0.9667003750801086,0.15553347766399384
1771681481570446600,3.484446533203125,9.671789169311523,1.0121639966964722,0.41156548261642456
1771681481580804400,3.494804443359375,11.26062297821045,3.548556089401245,0.3684946894645691
1771681481591162400,3.505162353515625,9.19561767578125,2.5387847423553467,0.41874396800994873
1771681481601520000,3.51552001953125,9.820143699645996,-0.4091726839542389,0.08374879509210587
1771681481611878000,3.5258779296875,8.635697364807129,-0.6604190468788147,0.17228323221206665
1771681481622236000,3.53623583984375,9.942177772521973,2.7828526496887207,0.37088751792907715
1771681481632593700,3.54659375,9.951749801635742,2.8211379051208496,-0.15553347766399384
1771681481642951700,3.55695166015625,9.30329418182373,0.7322037220001221,0.4139583110809326
1771681481653309400,3.567309326171875,8.24566650390625,-0.6221339106559753,0.6364908218383789
1771681481663667500,3.57766748046875,10.097711563110352,2.2444677352905273,0.8183453679084778
1771681481674025200,3.588025146484375,9.604789733886719,2.6943182945251465,0.02632104977965355
1771681481684383200,3.59838330078125,7.9489569664001465,1.0241280794143677,0.08135596662759781
1771681481694741000,3.608740966796875,7.800601959228516,-0.5312066078186035,0.22492532432079315
1771681481705099000,3.61909912109375,9.870393753051758,1.9214365482330322,0.8422735929489136
1771681481715456800,3.629456787109375,10.71984577178955,2.761317253112793,0.18903298676013947
1771681481725814500,3.639814453125,8.288737297058105,1.5409778356552124,0.6221339106559753
1771681481736172500,3.650172607421875,9.736394882202148,-0.1986042857170105,0.9092726111412048
1771681481746530300,3.6605302734375,10.973484992980957,0.4546363055706024,0.2871387302875519
1771681481756888300,3.670888427734375,10.246066093444824,2.3162522315979004,-0.038285162299871445
1771681481767246000,3.68124609375,9.116654396057129,1.4572290182113647,0.851844847202301
1771681481777604000,3.69160400390625,9.906285285949707,-0.07657032459974289,0.9858429431915283
1771681481787961900,3.7019619140625,11.095519065856934,1.5170495510101318,1.4715858697891235
1771681481798319900,3.71231982421875,10.277173042297363,2.4837498664855957,0.5048855543136597
1771681481808677600,3.722677734375,8.62612533569336,1.3256237506866455,0.638883650302887
1771681481819035600,3.73303564453125,10.62413215637207,0.6867401003837585,0.7154539823532104
1771681481829393400,3.743393310546875,11.803793907165527,2.342573404312134,1.2035897970199585
1771681481839751400,3.75375146484375,11.375478744506836,2.912065267562866,0.9667003750801086
1771681481850109200,3.764109130859375,9.07119083404541,-0.20099709928035736,0.8949156403541565
1771681481860467000,3.774467041015625,9.707681655883789,-0.8901300430297852,0.8805587291717529
1771681481870825000,3.784824951171875,9.956535339355469,2.579462766647339,0.4378865361213684
1771681481881182700,3.7951826171875,10.078569412231445,2.495713949203491,0.6029912829399109
1771681481891540700,3.805540771484375,8.805587768554688,0.19142581522464752,0.7752745151519775
1771681481901898500,3.8158984375,10.100104331970215,0.038285162299871445,1.0145567655563354
1771681481912256500,3.826256591796875,10.39202880859375,3.077169895172119,0.6508477330207825
1771681481922614300,3.8366142578125,10.427921295166016,0.8470591902732849,-0.04307080805301666
1771681481932972300,3.84697216796875,9.772287368774414,-0.6173482537269592,0.7226324677467346
1771681481943330000,3.857330078125,11.023734092712402,1.8185452222824097,0.27038896083831787
1771681481953687800,3.867687744140625,10.289137840270996,2.2947168350219727,1.6821542978286743
1771681481964045800,3.8780458984375,9.233902931213379,-0.22013968229293823,0.8207381963729858
1771681481974403600,3.888403564453125,10.40638542175293,-0.3278166949748993,0.7417750358581543
1771681481984761600,3.89876171875,9.896714210510254,1.038485050201416,-0.014356935396790504
1771681481995119400,3.909119384765625,9.724431037902832,1.3160524368286133,0.4139583110809326
1771681482005477400,3.919477294921875,9.906285285949707,0.8327022790908813,0.08853443711996078
1771681482015835100,3.929835205078125,9.829715728759766,-0.6364908218383789,0.6652047038078308
1771681482026193200,3.940193115234375,9.028120040893555,-0.08135596662759781,0.33738797903060913
1771681482036551000,3.950551025390625,9.841679573059082,1.031306505203247,0.28235307335853577
1771681482046909000,3.960908935546875,10.626524925231934,0.6532405614852905,-0.14835500717163086
1771681482057266700,3.9712666015625,9.640682220458984,-0.23210379481315613,0.04546362906694412
1771681482067624400,3.98162451171875,9.449256896972656,-0.7226324677467346,0.5168496966362
1771681482077982500,3.991982421875,10.133604049682617,0.9260223507881165,0.5264210104942322
1771681482088340200,4.00234033203125,9.65503978729248,0.4163511395454407,0.28953152894973755
1771681482098698200,4.0126982421875,9.523433685302734,-0.2632105052471161,-0.39960137009620667
1771681482109056000,4.023055908203125,9.241081237792969,0.11724831163883209,-0.2799602448940277
1771681482119414000,4.0334140625,10.023533821105957,0.5264210104942322,-0.28235307335853577
1771681482129771800,4.043771728515625,10.600204467773438,0.6005984544754028,-0.3326023519039154
1771681482140129800,4.0541298828125,10.109675407409668,-0.27756741642951965,0.0023928226437419653
1771681482150487600,4.064487548828125,9.17886734008789,-0.5335994362831116,-0.12921242415905
1771681482160845300,4.07484521484375,10.403992652893066,0.4307080805301666,0.5359922647476196
1771681482171203300,4.085203369140625,9.190832138061523,0.04546362906694412,0.3565305769443512
1771681482181561000,4.09556103515625,10.358529090881348,-0.4307080805301666,0.5742774605751038
1771681482191919000,4.105919189453125,9.760323524475098,0.07417750358581543,-0.019142581149935722
1771681482202276900,4.11627685546875,10.643275260925293,-0.5240281820297241,0.016749758273363113
1771681482212635000,4.126634765625,9.760323524475098,0.33738797903060913,0.06939185410737991
1771681482222992600,4.13699267578125,9.906285285949707,0.6221339106559753,0.7345965504646301
1771681482233350700,4.1473505859375,8.963513374328613,-0.9523434042930603,0.4905286431312561
1771681482243708400,4.15770849609375,10.621739387512207,-0.031106693670153618,0.6628118753433228
1771681482254066400,4.16806640625,10.183853149414062,-0.2584248483181,-0.11246266216039658
1771681482264424200,4.178424072265625,10.475777626037598,0.05503492057323456,-0.397208571434021
1771681482274782200,4.1887822265625,9.547362327575684,-1.1054840087890625,-0.09571290761232376
1771681482285140000,4.199139892578125,9.580862045288086,-0.26560330390930176,-0.07178468257188797
1771681482295497700,4.209497802734375,10.17428207397461,0.031106693670153618,0.4833501875400543
1771681482305855700,4.219855712890625,9.365508079528809,-0.1818545162677765,0.5599204897880554
1771681482316213500,4.230213623046875,9.65503978729248,-0.7202396392822266,0.6173482537269592
1771681482326571500,4.240571533203125,9.915857315063477,0.31106695532798767,0.6795616149902344
1771681482336929300,4.25092919921875,9.454042434692383,-0.6293123364448547,0.1818545162677765
1771681482347287300,4.261287353515625,9.741181373596191,-0.009571290574967861,0.15314064919948578
1771681482357645000,4.27164501953125,9.834501266479492,-0.8231309652328491,0.009571290574967861
1771681482368002800,4.2820029296875,9.937392234802246,0.3086741268634796,0.4977070987224579
1771681482378360800,4.29236083984375,10.490134239196777,-1.1150553226470947,0.2871387302875519
1771681482388718600,4.302718505859375,9.638289451599121,0.3613162338733673,0.2392822653055191
1771681482399076600,4.31307666015625,10.468599319458008,0.3397808074951172,0.1052841991186142
1771681482409434400,4.323434326171875,9.43489933013916,-0.8207381963729858,0.33020952343940735
1771681482419792400,4.33379248046875,9.686145782470703,0.27038896083831787,0.7369893789291382
1771681482430150100,4.344150146484375,9.942177772521973,-0.7082754969596863,0.7202396392822266
1771681482440508200,4.354508056640625,9.619147300720215,0.064606212079525,1.100698471069336
1771681482450866000,4.364865966796875,10.162318229675293,-0.914058268070221,0.45224347710609436
1771681482461224000,4.375223876953125,9.949356079101562,-0.45224347710609436,0.34695929288864136
1771681482471581700,4.385581787109375,10.882556915283203,0.22971096634864807,0.17946170270442963
1771681482481939700,4.395939697265625,10.071390151977539,-0.8973084688186646,0.6604190468788147
1771681482492297500,4.40629736328125,10.29153060913086,-0.4977070987224579,0.7465606927871704
1771681482502655200,4.4166552734375,10.396814346313477,-0.21774685382843018,0.729810893535614
1771681482513013200,4.42701318359375,9.379864692687988,-0.5383850932121277,0.5288137793540955
1771681482523371000,4.43737109375,9.437292098999023,-0.03349951654672623,0.30628129839897156
1771681482533729000,4.44772900390625,9.994820594787598,-0.004785645287483931,0.45224347710609436
1771681482544086800,4.458086669921875,10.01156997680664,-0.4905286431312561,0.8159525394439697
1771681482554444800,4.46844482421875,10.265209197998047,-1.179661512374878,0.8781659007072449
1771681482564802600,4.478802490234375,10.334601402282715,-0.35413774847984314,0.7322037220001221
1771681482575160300,4.489160400390625,10.41356372833252,-0.13160525262355804,0.7369893789291382
1771681482585518300,4.499518310546875,10.750951766967773,-0.9954141974449158,0.34217363595962524
1771681482595876000,4.5098759765625,9.047262191772461,-0.29431718587875366,0.4043870270252228
1771681482606234000,4.520234130859375,9.839286804199219,-0.10289137065410614,0.5120640397071838
1771681482616592000,4.530591796875,8.896514892578125,-0.6939185857772827,0.7441678643226624
1771681482626950000,4.540949951171875,10.195816993713379,-1.1461620330810547,0.9116654396057129
1771681482637307600,4.5513076171875,9.322437286376953,-0.2919243574142456,0.35892340540885925
1771681482647665400,4.56166552734375,11.042876243591309,-0.7585247755050659,0.18903298676013947
1771681482658023400,4.5720234375,9.860821723937988,-0.6867401003837585,-0.08853443711996078
1771681482668381400,4.58238134765625,9.695717811584473,-0.9906286001205444,0.11724831163883209
1771681482678739200,4.5927392578125,10.892128944396973,-0.22971096634864807,0.7800601720809937
1771681482689097000,4.603096923828125,9.028120040893555,-1.0169496536254883,0.8398807644844055
1771681482699455000,4.613455078125,9.978070259094238,-1.3710874319076538,0.7106683254241943
1771681482709812700,4.623812744140625,9.57607650756836,0.4139583110809326,0.1818545162677765
1771681482720170800,4.634170654296875,9.69093132019043,-1.0528420209884644,0.3852444589138031
1771681482730528500,4.644528564453125,9.33440113067627,-1.2562319040298462,-0.33020952343940735
1771681482740886500,4.654886474609375,10.255638122558594,-1.2610175609588623,-0.19381862878799438
1771681482751244300,4.665244384765625,10.85145092010498,-0.13160525262355804,0.35892340540885925
1771681482761602000,4.67560205078125,10.360921859741211,-1.6917256116867065,0.7154539823532104
1771681482771960000,4.6859599609375,9.659825325012207,-0.23688943684101105,0.45224347710609436
1771681482782317800,4.69631787109375,9.65503978729248,-0.7896314859390259,0.5790630578994751
1771681482792675800,4.70667578125,9.250652313232422,-0.8039883971214294,0.4618147611618042
1771681482803033600,4.71703369140625,10.229316711425781,-1.2418749332427979,0.15314064919948578
1771681482813391600,4.7273916015625,10.401599884033203,-0.8087740540504456,0.9332008361816406
1771681482823749400,4.737749267578125,10.162318229675293,-0.9930213689804077,0.8685946464538574
1771681482834107100,4.748107177734375,10.202995300292969,-1.00259268283844,0.7369893789291382
1771681482844465200,4.758465087890625,9.836894035339355,-0.5790630578994751,0.6293123364448547
1771681482854823000,4.768822998046875,9.78664493560791,-1.3040883541107178,0.04307080805301666
1771681482865181000,4.779180908203125,10.169496536254883,-0.7968099117279053,0.2727817893028259
1771681482875538700,4.78953857421875,9.856036186218262,-0.7680960893630981,0.4043870270252228
1771681482885896700,4.799896728515625,10.301101684570312,-0.8709874153137207,1.25144624710083
1771681482896254500,4.81025439453125,9.633503913879395,-1.2945170402526855,0.9092726111412048
1771681482906612500,4.820612548828125,9.91825008392334,-0.6197410821914673,0.7369893789291382
1771681482916970200,4.83097021484375,10.913663864135742,-0.1818545162677765,-0.17228323221206665
1771681482927328300,4.841328369140625,9.595218658447266,-1.5792629718780518,0.3158525824546814
1771681482937686000,4.85168603515625,9.664610862731934,-0.916451096534729,0.08374879509210587
1771681482948043800,4.862043701171875,10.74138069152832,0.03349951654672623,0.5647061467170715
1771681482958401800,4.87240185546875,9.226723670959473,-1.5074782371520996,0.7513462901115417
1771681482968759600,4.882759521484375,9.820143699645996,-1.124626636505127,0.638883650302887
1771681482979117600,4.89311767578125,10.080962181091309,-0.1818545162677765,0.04307080805301666
1771681482989475300,4.903475341796875,9.832108497619629,-0.7561319470405579,0.17946170270442963
1771681482999833300,4.913833251953125,10.01156997680664,-0.8446664214134216,-0.363709032535553
1771681483010191000,4.924191162109375,9.439684867858887,-0.12681959569454193,0.30628129839897156
1771681483020548900,4.934548828125,10.28195858001709,-1.3184453248977661,0.4043870270252228
1771681483030907000,4.944906982421875,9.346364974975586,-0.4713860750198364,0.8949156403541565
1771681483041264600,4.9552646484375,10.468599319458008,-0.7226324677467346,0.05742774158716202
1771681483051622700,4.96562255859375,9.858428955078125,-0.1579262912273407,0.1818545162677765
1771681483061980400,4.97598046875,8.9850492477417,-1.1748759746551514,0.1459621787071228
1771681483072338400,4.98633837890625,10.02592658996582,0.08135596662759781,-0.1698904037475586
1771681483082696200,4.9966962890625,9.571290969848633,-0.2727817893028259,0.004785645287483931
1771681483093054000,5.007053955078125,9.882357597351074,-1.0121639966964722,0.4618147611618042
1771681483103412000,5.017411865234375,10.248459815979004,-0.3206382393836975,-0.15314064919948578
1771681483113769700,5.027769775390625,9.678967475891113,-0.9068797826766968,0.20099709928035736
1771681483124127700,5.038127685546875,9.884750366210938,-0.7393822073936462,0.007178467698395252
1771681483134485500,5.048485595703125,10.073782920837402,0.07178468257188797,0.33020952343940735
1771681483144843500,5.058843505859375,9.714859962463379,-0.14835500717163086,0.42831525206565857
1771681483155201300,5.069201171875,10.198209762573242,-0.4833501875400543,1.0887342691421509
1771681483165559300,5.079559326171875,9.961320877075195,-0.5240281820297241,1.124626636505127
1771681483175917000,5.0899169921875,10.02592658996582,0.14117653667926788,0.7992027401924133
1771681483186274800,5.10027490234375,11.030912399291992,0.380458801984787,0.8470591902732849
1771681483196632800,5.1106328125,10.016355514526367,0.08614161610603333,-0.07896314561367035
1771681483206990600,5.120990478515625,10.604990005493164,0.11724831163883209,0.2560320198535919
1771681483217348600,5.1313486328125,10.200602531433105,-0.19142581522464752,0.6508477330207825
1771681483227706400,5.141706298828125,9.564111709594727,0.4043870270252228,1.0480563640594482
1771681483238064400,5.152064453125,9.78664493560791,-0.19621145725250244,1.155733346939087
1771681483248422100,5.162422119140625,9.343972206115723,0.5168496966362,0.9667003750801086
1771681483258780000,5.17277978515625,10.370492935180664,-0.019142581149935722,0.9786644577980042
1771681483269138000,5.183137939453125,9.954142570495605,-0.04307080805301666,0.3756731450557709
1771681483279495700,5.19349560546875,10.332208633422852,0.6867401003837585,0.09810572862625122
1771681483289853700,5.203853759765625,9.688538551330566,0.17706887423992157,0.5718846321105957
1771681483300211500,5.21421142578125,9.743574142456055,0.04307080805301666,0.9188438653945923
1771681483310569200,5.2245693359375,9.482755661010742,0.4259224236011505,0.9451649188995361
1771681483320927200,5.23492724609375,10.234102249145508,0.4211367964744568,0.5168496966362
1771681483331285000,5.245284912109375,9.394221305847168,0.4618147611618042,0.2847459018230438
1771681483341643000,5.25564306640625,9.997213363647461,-0.22013968229293823,0.3924229145050049
1771681483352000800,5.266000732421875,9.896714210510254,0.8542376756668091,0.14117653667926788
1771681483362358800,5.27635888671875,9.45164966583252,-0.33738797903060913,1.1676974296569824
1771681483372716500,5.286716552734375,10.286744117736816,0.6101697683334351,0.8757730722427368
1771681483383074600,5.297074462890625,9.274580955505371,0.2584248483181,0.8470591902732849
1771681483393432300,5.307432373046875,10.317851066589355,0.21296121180057526,0.5216353535652161
1771681483403790000,5.3177900390625,9.446864128112793,0.11724831163883209,0.42352959513664246
1771681483414148000,5.328148193359375,10.774880409240723,0.5120640397071838,0.16031911969184875
1771681483424505900,5.338505859375,9.358329772949219,0.4977070987224579,0.275174617767334
1771681483434863900,5.34886376953125,9.789037704467773,-0.2871387302875519,0.5288137793540955
1771681483445221600,5.3592216796875,9.300901412963867,0.5120640397071838,1.1030912399291992
1771681483455579600,5.36957958984375,10.205389022827148,-0.30628129839897156,0.5982056856155396
1771681483465937400,5.3799375,9.796216011047363,0.8757730722427368,0.6508477330207825
1771681483476295200,5.390295166015625,10.03549861907959,-0.2225325107574463,0.09092725813388824
1771681483486653200,5.400653076171875,9.602396965026855,0.2225325107574463,-0.009571290574967861
1771681483497011000,5.411010986328125,10.466206550598145,0.30628129839897156,0.5312066078186035
1771681483507369000,5.421368896484375,9.856036186218262,0.09810572862625122,0.4713860750198364
1771681483517726700,5.431726806640625,9.748359680175781,0.607776939868927,0.6819544434547424
1771681483528084700,5.442084716796875,10.06421184539795,-0.29431718587875366,0.27756741642951965
1771681483538442500,5.4524423828125,9.437292098999023,0.5144568681716919,0.23449662327766418
1771681483548800300,5.46280029296875,10.15753173828125,-0.42831525206565857,0.2392822653055191
1771681483559158300,5.473158203125,9.29611587524414,0.8231309652328491,0.1052841991186142
1771681483569516000,5.48351611328125,9.509077072143555,-0.4163511395454407,0.607776939868927
1771681483579874000,5.4938740234375,10.329814910888672,0.4498506486415863,0.5670989751815796
1771681483590231800,5.504231689453125,10.504491806030273,-0.17706887423992157,0.5000999569892883
1771681483600589800,5.51458984375,9.573683738708496,0.39960137009620667,0.4450650215148926
1771681483610947600,5.524947509765625,10.159924507141113,-0.004785645287483931,0.2512463629245758
1771681483621305300,5.535305419921875,9.817750930786133,0.4546363055706024,0.06939185410737991
1771681483631663400,5.545663330078125,9.906285285949707,0.06939185410737991,0.10767702013254166
1771681483642021000,5.556021240234375,10.001998901367188,-0.5000999569892883,0.6532405614852905
1771681483652379100,5.566379150390625,10.272387504577637,1.0145567655563354,0.5407779216766357
1771681483662737000,5.57673681640625,10.06421184539795,-0.36610186100006104,0.8374879360198975
1771681483673095000,5.587094970703125,9.10229778289795,0.21774685382843018,0.8614161610603333
1771681483683452700,5.59745263671875,10.487741470336914,0.02632104977965355,0.4833501875400543
1771681483693810400,5.607810546875,9.784252166748047,0.9954141974449158,0.24406790733337402
1771681483704168400,5.61816845703125,10.315458297729492,-0.42352959513664246,0.31824541091918945
1771681483714526200,5.628526123046875,9.858428955078125,0.35413774847984314,0.47617170214653015
1771681483724884200,5.63888427734375,10.246066093444824,0.6843472719192505,1.124626636505127
1771681483735242000,5.649241943359375,10.12881851196289,-0.4091726839542389,0.5383850932121277
1771681483745599700,5.659599853515625,8.922835350036621,0.5431707501411438,0.849452018737793
1771681483755957800,5.669957763671875,10.210174560546875,1.0360921621322632,0.6795616149902344
1771681483766315500,5.6803154296875,9.255437850952148,0.3732803463935852,0.19621145725250244
1771681483776673500,5.690673583984375,8.700303077697754,-0.2512463629245758,0.8039883971214294
1771681483787031300,5.70103125,10.693524360656738,0.3206382393836975,0.30628129839897156
1771681483797389000,5.71138916015625,9.119047164916992,0.672383189201355,1.1054840087890625
1771681483807747000,5.7217470703125,10.303494453430176,-0.07896314561367035,0.7010970115661621
1771681483818105000,5.73210498046875,9.291330337524414,0.8183453679084778,0.8901300430297852
1771681483828462800,5.742462890625,10.358529090881348,-0.07417750358581543,0.18903298676013947
1771681483838820600,5.752820556640625,9.097511291503906,0.5120640397071838,0.02392822690308094
1771681483849178600,5.7631787109375,9.760323524475098,0.5838487148284912,-0.04785645380616188
1771681483859536400,5.773536376953125,10.088140487670898,0.4307080805301666,0.6747759580612183
1771681483869894400,5.783894287109375,9.312865257263184,-0.41874396800994873,0.9523434042930603
1771681483880252200,5.794252197265625,10.080962181091309,0.7226324677467346,0.9786644577980042
1771681483890610000,5.80460986328125,9.889535903930664,0.6747759580612183,0.1986042857170105
1771681483900968000,5.814968017578125,10.037891387939453,0.7058826684951782,0.7800601720809937
1771681483911325700,5.82532568359375,9.336793899536133,-0.04546362906694412,0.07657032459974289
1771681483921683700,5.83568359375,10.090533256530762,0.7920243144035339,0.8662018179893494
1771681483932041500,5.84604150390625,9.609575271606445,0.3565305769443512,0.8925228714942932
1771681483942399200,5.856399169921875,10.068997383117676,0.9595218896865845,0.9427721500396729
1771681483952757200,5.86675732421875,9.913464546203613,0.07178468257188797,0.8087740540504456
1771681483963115000,5.877114990234375,9.32004451751709,-0.2225325107574463,0.8949156403541565
1771681483973473000,5.88747314453125,10.1814603805542,0.5240281820297241,0.5575276613235474
1771681483983830800,5.897830810546875,9.990034103393555,1.1150553226470947,0.3900300860404968
1771681483994188500,5.9081884765625,9.365508079528809,-0.519242525100708,0.5120640397071838
1771681484004546600,5.918546630859375,9.724431037902832,0.23449662327766418,0.8183453679084778
1771681484014904300,5.928904296875,9.674181938171387,0.46420758962631226,1.2490534782409668
1771681484025262300,5.939262451171875,10.133604049682617,0.4019941985607147,0.8877372145652771
1771681484035620000,5.9496201171875,9.186046600341797,0.45942193269729614,0.6747759580612183
1771681484045978000,5.95997802734375,10.415956497192383,0.05742774158716202,0.1339980661869049
1771681484056336000,5.9703359375,9.611968994140625,0.7585247755050659,0.10767702013254166
1771681484066694000,5.98069384765625,10.102497100830078,-0.44745782017707825,0.2153540402650833
1771681484077051600,5.9910517578125,9.533005714416504,1.1413763761520386,0.5264210104942322
1771681484087409400,6.001409423828125,9.798608779907227,0.12921242415905,0.794417142868042
1771681484097767400,6.011767333984375,9.33440113067627,0.2871387302875519,0.4618147611618042
1771681484108125200,6.022125244140625,9.32004451751709,0.641276478767395,0.5312066078186035
1771681484118483200,6.032483154296875,9.707681655883789,0.27038896083831787,0.5694918036460876
1771681484128841000,6.042841064453125,9.219545364379883,0.15553347766399384,0.064606212079525
1771681484139198700,6.05319873046875,9.693324089050293,0.7154539823532104,0.1698904037475586
1771681484149556700,6.063556640625,9.884750366210938,0.0526420995593071,0.4259224236011505
1771681484159914500,6.07391455078125,9.315258979797363,0.32542386651039124,0.7585247755050659
1771681484170272500,6.0842724609375,10.100104331970215,-0.004785645287483931,0.7824530005455017
1771681484180630300,6.09463037109375,9.927821159362793,0.9810572862625122,0.15074782073497772
1771681484190988000,6.104988037109375,9.882357597351074,0.380458801984787,0.035892341285943985
1771681484201346000,6.115345947265625,9.664610862731934,0.7968099117279053,-0.0023928226437419653
1771681484211703800,6.125703857421875,9.757930755615234,-0.2105683982372284,0.04785645380616188
1771681484222061800,6.136061767578125,9.293723106384277,2.1128623485565186,0.36610186100006104
1771681484232419600,6.146419677734375,10.159924507141113,1.399801254272461,0.4953143000602722
1771681484242777300,6.15677734375,9.686145782470703,0.4139583110809326,0.27756741642951965
1771681484253135400,6.16713525390625,8.944371223449707,0.3517449200153351,0.11006984114646912
1771681484263493000,6.1774931640625,10.243673324584961,1.7084753513336182,0.397208571434021
1771681484273851100,6.18785107421875,9.860821723937988,2.943171739578247,0.12442677468061447
1771681484284209000,6.198208984375,9.425328254699707,0.8901300430297852,0.24646073579788208
1771681484294567000,6.20856689453125,8.798408508300781,0.23210379481315613,0.4378865361213684
1771681484304924700,6.218924560546875,9.978070259094238,1.277767300605774,0.8542376756668091
1771681484315282400,6.229282470703125,9.927821159362793,2.53399920463562,0.3852444589138031
1771681484325640400,6.239640380859375,10.375279426574707,2.1296122074127197,0
1771681484335998200,6.249998291015625,8.982656478881836,0.38285163044929504,-0.19381862878799438
1771681484346356200,6.260356201171875,8.896514892578125,-0.25363919138908386,0.4259224236011505
1771681484356714000,6.2707138671875,9.736394882202148,2.148754835128784,0.3900300860404968
1771681484367071700,6.28107177734375,10.442277908325195,3.3619158267974854,1.0504491329193115
1771681484377429800,6.2914296875,9.286544799804688,0.35413774847984314,0.5144568681716919
1771681484387787500,6.30178759765625,8.338987350463867,-0.1866401731967926,0.2967100143432617
1771681484398145500,6.3121455078125,9.80100154876709,-0.16749759018421173,0.6125625967979431
1771681484408503300,6.32250341796875,8.72901725769043,3.6945180892944336,0.5288137793540955
1771681484418861000,6.332861083984375,10.514062881469727,2.9694929122924805,0.2584248483181
1771681484429219000,6.343218994140625,7.800601959228516,-0.019142581149935722,-0.14356936514377594
1771681484439576800,6.353576904296875,8.60459041595459,0.1579262912273407,0.97148597240448
1771681484449934800,6.363934814453125,10.403992652893066,2.3976082801818848,1.2203395366668701
1771681484460292600,6.374292724609375,8.707481384277344,2.857030153274536,0.8685946464538574
1771681484470650400,6.384650390625,9.126225471496582,0.9236295223236084,0.7393822073936462
1771681484481008400,6.39500830078125,8.283951759338379,0.7369893789291382,0.6340979933738708
1771681484491366100,6.4053662109375,8.700303077697754,0.3684946894645691,0.9906286001205444
1771681484501724200,6.41572412109375,10.119247436523438,3.1441688537597656,0.6891329288482666
1771681484512082000,6.42608203125,10.705488204956055,2.9862427711486816,0.8542376756668091
1771681484522439700,6.436439697265625,9.269794464111328,-0.18903298676013947,0.49292147159576416
1771681484532797700,6.446797607421875,8.812766075134277,-0.5312066078186035,0.9954141974449158
1771681484543155500,6.457155517578125,10.724631309509277,2.170290231704712,1.1700903177261353
1771681484553513500,6.467513427734375,10.351350784301758,3.1800613403320312,0.6197410821914673
1771681484563871200,6.477871337890625,9.489934921264648,-0.15074782073497772,0.4546363055706024
1771681484574229200,6.488229248046875,9.619147300720215,-0.8542376756668091,0.6915257573127747
1771681484584587000,6.4985869140625,10.585846900939941,0.7034898400306702,1.552941918373108
1771681484594944800,6.50894482421875,11.394621849060059,2.3401806354522705,1.4572290182113647
1771681484605302800,6.519302734375,10.626524925231934,1.4691931009292603,0.9044869542121887
1771681484615660500,6.52966064453125,10.671989440917969,-1.277767300605774,0.4737788736820221
1771681484626018600,6.5400185546875,9.53779125213623,-0.8638089895248413,0.3756731450557709
1771681484636376300,6.550376220703125,12.167503356933594,2.3880369663238525,0.48813581466674805
1771681484646734000,6.560734130859375,10.949556350708008,2.53399920463562,0.8949156403541565
1771681484657092000,6.571092041015625,10.468599319458008,-0.6364908218383789,0.9020941257476807
1771681484667449900,6.581449951171875,9.961320877075195,-1.435693621635437,0.7585247755050659
1771681484677807900,6.591807861328125,11.48076343536377,1.832902193069458,1.0959128141403198
1771681484688165600,6.60216552734375,11.784651756286621,2.8594231605529785,0.02392822690308094
1771681484698523400,6.6125234375,10.535597801208496,0.24885354936122894,0.37088751792907715
1771681484708881400,6.62288134765625,10.092926025390625,-1.155733346939087,0.14356936514377594
1771681484719239200,6.6332392578125,10.686346054077148,0.6293123364448547,0.8757730722427368
1771681484729597000,6.643596923828125,11.483156204223633,2.6799614429473877,0.16510476171970367
1771681484739955000,6.653954833984375,10.494919776916504,1.1940184831619263,0.04785645380616188
1771681484750312700,6.664312744140625,9.973284721374512,-0.973878800868988,-0.5168496966362
1771681484760670700,6.674670654296875,9.042476654052734,-0.02871387079358101,0.34217363595962524
1771681484771028500,6.685028564453125,11.186446189880371,3.0652058124542236,0.17228323221206665
1771681484781386200,6.69538623046875,9.978070259094238,1.97407865524292,0.3326023519039154
1771681484791744300,6.705744140625,9.54496955871582,-0.7034898400306702,-0.06939185410737991
1771681484802102000,6.71610205078125,8.276773452758789,-1.069591760635376,0.34695929288864136
1771681484812460000,6.7264599609375,11.22233772277832,3.012563705444336,-0.32303106784820557
1771681484822817800,6.73681787109375,10.059426307678223,3.177668571472168,-0.34695929288864136
1771681484833175800,6.74717578125,9.250652313232422,-0.4905286431312561,-0.12921242415905
1771681484843533600,6.757533447265625,8.190631866455078,-1.2490534782409668,0.3445664644241333
1771681484853891300,6.767891357421875,10.743773460388184,2.1128623485565186,0.31106695532798767
1771681484864249300,6.778249267578125,10.564311981201172,2.6464617252349854,-0.17946170270442963
1771681484874607000,6.788607177734375,9.432506561279297,-0.09810572862625122,-0.02392822690308094
1771681484884965000,6.798965087890625,8.834300994873047,-0.8973084688186646,0.3086741268634796
1771681484895323000,6.809322998046875,10.971092224121094,2.306680917739868,0.2919243574142456
1771681484905680600,6.8196806640625,10.317851066589355,2.878565549850464,0.760917603969574
1771681484916038700,6.83003857421875,9.336793899536133,0,0.12442677468061447
1771681484926396400,6.840396484375,8.774480819702148,-1.0719845294952393,0.6747759580612183
1771681484936754200,6.850754150390625,10.13599681854248,1.8616160154342651,0.3158525824546814
1771681484947112200,6.8611123046875,11.45683479309082,3.1513473987579346,0.07417750358581543
1771681484957470000,6.871469970703125,8.855836868286133,1.007378339767456,0.48813581466674805
1771681484967828000,6.881827880859375,8.949156761169434,-0.22013968229293823,0.6867401003837585
1771681484978185700,6.892185791015625,10.3681001663208,-0.03349951654672623,0.8949156403541565
1771681484988543500,6.90254345703125,10.619346618652344,2.5603201389312744,0.6699903607368469
1771681484998901500,6.912901611328125,8.717052459716797,2.00518536567688,-0.37806597352027893
1771681485009259300,6.92325927734375,8.606983184814453,0.01196411345154047,0.5264210104942322
1771681485019617300,6.9336171875,9.851250648498535,1.4380863904953003,0.6149554252624512
1771681485029975000,6.94397509765625,10.229316711425781,2.825923442840576,0.4737788736820221
1771681485040332800,6.954332763671875,8.35573673248291,0.4953143000602722,0.32303106784820557
1771681485050690800,6.96469091796875,9.281759262084961,-0.02392822690308094,0.3732803463935852
1771681485061048600,6.975048583984375,10.827522277832031,2.2444677352905273,-0.02871387079358101
1771681485071406600,6.985406494140625,11.164910316467285,3.0628130435943604,0.3206382393836975
1771681485081764400,6.995764404296875,8.303094863891602,0.04785645380616188,0.8231309652328491
1771681485092122000,7.0061220703125,9.272188186645508,-0.0933200865983963,0.7178468108177185
1771681485102480100,7.016480224609375,10.660024642944336,2.5674986839294434,0.8111668825149536
1771681485112838000,7.026837890625,10.39920711517334,2.2683959007263184,0.49292147159576416
1771681485123196000,7.03719580078125,9.090332984924316,-0.32542386651039124,0.1986042857170105
1771681485133553700,7.0475537109375,9.678967475891113,1.2083754539489746,0.39481574296951294
1771681485143911400,7.057911376953125,10.29153060913086,3.0173492431640625,0.2105683982372284
1771681485154269400,7.06826953125,9.497113227844238,0.38763725757598877,0.15314064919948578
1771681485164627200,7.078627197265625,9.023334503173828,-0.08853443711996078,-0.0933200865983963
1771681485174985000,7.08898486328125,10.394421577453613,2.342573404312134,-0.09571290761232376
1771681485185343000,7.099343017578125,10.001998901367188,2.8833513259887695,-0.20817556977272034
1771681485195700700,7.10970068359375,9.415757179260254,0.32303106784820557,-0.2847459018230438
1771681485206058800,7.120058837890625,9.482755661010742,0.8039883971214294,0.4570291340351105
1771681485216416500,7.13041650390625,10.53081226348877,2.9934210777282715,0.2225325107574463
1771681485226774300,7.140774169921875,9.853643417358398,1.9884356260299683,0.4211367964744568
1771681485237132300,7.15113232421875,9.360722541809082,0.44027936458587646,0.09810572862625122
1771681485247490000,7.161489990234375,9.963713645935059,2.155933141708374,0.28235307335853577
1771681485257848000,7.17184814453125,10.078569412231445,2.548356056213379,0.5623133182525635
1771681485268205800,7.182205810546875,9.193224906921387,0.7178468108177185,0.44745782017707825
1771681485278563600,7.1925634765625,9.154939651489258,0.9834501147270203,0.29431718587875366
1771681485288921600,7.202921630859375,10.798809051513672,3.0580272674560547,-0.02153540402650833
1771681485299279400,7.213279296875,9.45164966583252,1.887937068939209,0.3613162338733673
1771681485309637400,7.223637451171875,9.454042434692383,0.49292147159576416,0.23688943684101105
1771681485319995100,7.2339951171875,10.102497100830078,1.7563318014144897,0.5814558863639832
1771681485330353000,7.244352783203125,10.39920711517334,2.493321180343628,0.22492532432079315
1771681485340711000,7.2547109375,9.652647018432617,1.0815558433532715,0.13639089465141296
1771681485351068700,7.265068603515625,9.712467193603516,1.4380863904953003,0.2679961323738098
1771681485361426400,7.275426513671875,10.801201820373535,2.5052852630615234,0.4498506486415863
1771681485371784400,7.285784423828125,9.540184020996094,2.076970100402832,0.9044869542121887
1771681485382142200,7.29614208984375,9.370293617248535,0.6364908218383789,0.5479564070701599
1771681485392500200,7.306500244140625,10.080962181091309,2.1678972244262695,0.44027936458587646
1771681485402858000,7.31685791015625,10.660024642944336,2.9359934329986572,0.20338992774486542
1771681485413215700,7.3272158203125,9.468399047851562,0.8470591902732849,0.3086741268634796
1771681485423573800,7.33757373046875,9.518648147583008,0.638883650302887,0.6125625967979431
1771681485433931500,7.347931640625,11.097911834716797,2.5387847423553467,0.4666004180908203
1771681485444289300,7.358289306640625,9.903892517089844,1.8089739084243774,0.27756741642951965
1771681485454647300,7.368647216796875,9.497113227844238,0.4043870270252228,0.08853443711996078
1771681485465005000,7.379005126953125,9.750752449035645,1.911865234375,0.45224347710609436
1771681485475363000,7.389363037109375,10.336994171142578,2.2468605041503906,0.7058826684951782
1771681485485720800,7.399720947265625,9.262616157531738,0.44745782017707825,0.5718846321105957
1771681485496078600,7.41007861328125,9.611968994140625,0.8997012972831726,0.5216353535652161
1771681485506436600,7.4204365234375,11.030912399291992,2.7804598808288574,0.41156548261642456
1771681485516794400,7.43079443359375,9.513862609863281,1.100698471069336,0.7920243144035339
1771681485527152000,7.441152099609375,9.353543281555176,0.2847459018230438,0.9403793215751648
1771681485537510100,7.45151025390625,10.63370418548584,2.0506489276885986,0.8590233325958252
1771681485547868000,7.461867919921875,10.104889869689941,1.8113667964935303,0.8015955686569214
1771681485558226000,7.472225830078125,9.475577354431152,0.24167509377002716,0.5288137793540955
1771681485568583700,7.482583740234375,10.478170394897461,1.7611174583435059,0.36610186100006104
1771681485578941700,7.492941650390625,10.911271095275879,1.8831514120101929,0.4378865361213684
1771681485589299500,7.503299560546875,8.858229637145996,0.040677983313798904,0.6939185857772827
1771681485599657200,7.5136572265625,10.040284156799316,1.4404792785644531,0.10767702013254166
1771681485610015200,7.52401513671875,10.722238540649414,2.0554347038269043,-0.2105683982372284
1771681485620373000,7.534373046875,9.449256896972656,0.7680960893630981,0.397208571434021
1771681485630730800,7.544730712890625,10.116853713989258,0.45942193269729614,0.1459621787071228
1771681485641088800,7.5550888671875,10.669595718383789,2.5674986839294434,0.7752745151519775
1771681485651446500,7.565446533203125,9.963713645935059,1.191625714302063,0.48813581466674805
1771681485661804500,7.575804443359375,9.346364974975586,0.4426721930503845,0.1746760457754135
1771681485672162300,7.586162353515625,10.293923377990723,2.4358935356140137,0.32542386651039124
1771681485682520000,7.59652001953125,10.258030891418457,1.6582261323928833,0.6484549641609192
1771681485692878000,7.606878173828125,8.941978454589844,-0.02871387079358101,0.31345975399017334
1771681485703235800,7.61723583984375,10.138389587402344,1.490728497505188,-0.3206382393836975
1771681485713593600,7.627593505859375,10.571490287780762,2.210968017578125,-0.914058268070221
1771681485723951600,7.63795166015625,9.226723670959473,0.275174617767334,-0.2991028428077698
1771681485734309400,7.648309326171875,9.755537986755371,0.8039883971214294,-0.7968099117279053
1771681485744667400,7.65866748046875,10.97587776184082,2.4430718421936035,-0.4833501875400543
1771681485755025200,7.669025146484375,9.370293617248535,0.37806597352027893,-0.48095735907554626
1771681485765383000,7.6793828125,9.856036186218262,0.2225325107574463,-0.9068797826766968
1771681485775741000,7.689740966796875,11.088339805603027,2.8450660705566406,-0.26560330390930176
1771681485786098700,7.7000986328125,9.934999465942383,1.3663017749786377,0.39960137009620667
1771681485796456400,7.71045654296875,9.408578872680664,-0.11724831163883209,-0.016749758273363113
1771681485806814500,7.720814453125,9.858428955078125,2.6608188152313232,-0.38763725757598877
1771681485817172200,7.731172119140625,9.980463027954102,2.163111686706543,-0.1579262912273407
1771681485827530200,7.7415302734375,9.365508079528809,0.02871387079358101,-0.04546362906694412
1771681485837888000,7.751887939453125,9.585647583007812,1.919043779373169,0.05024927482008934
1771681485848245800,7.762245849609375,10.870593070983887,2.4741785526275635,-0.19381862878799438
1771681485858603800,7.772603759765625,8.37966537475586,-0.059820566326379776,-0.4019941985607147
1771681485868961500,7.78296142578125,10.009177207946777,2.1918256282806396,-0.7465606927871704
1771681485879319600,7.793319580078125,9.956535339355469,1.856830358505249,-0.02392822690308094
1771681485889677300,7.80367724609375,9.518648147583008,0.0933200865983963,-0.2799602448940277
1771681485900035000,7.81403515625,10.114460945129395,2.0865414142608643,-0.6101697683334351
1771681485910393000,7.82439306640625,10.296316146850586,2.2612173557281494,-0.6436693072319031
1771681485920750800,7.834750732421875,8.592626571655273,0.02632104977965355,-0.031106693670153618
1771681485931108600,7.845108642578125,9.877572059631348,1.8711873292922974,-0.3684946894645691
1771681485941466600,7.855466552734375,9.982855796813965,2.63449764251709,-0.2679961323738098
1771681485951824400,7.865824462890625,8.798408508300781,-0.5240281820297241,0.23688943684101105
1771681485962182400,7.876182373046875,10.581061363220215,1.8616160154342651,-0.14356936514377594
1771681485972540200,7.8865400390625,11.073983192443848,2.5292134284973145,0.16749759018421173
1771681485982898000,7.89689794921875,9.131011009216309,-0.5168496966362,1.0241280794143677
1771681485993256000,7.907255859375,10.561919212341309,1.184447169303894,0.23449662327766418
1771681486003613700,7.91761376953125,11.143375396728516,2.9048867225646973,0.37088751792907715
1771681486013971500,7.927971435546875,8.408378601074219,-0.24646073579788208,1.5601203441619873
1771681486024329500,7.93832958984375,10.155138969421387,1.3088740110397339,1.210768222808838
1771681486034687200,7.948687255859375,9.449256896972656,3.304488182067871,0.7992027401924133
1771681486045045000,7.959044921875,7.7838521003723145,0.5335994362831116,1.3878371715545654
1771681486055403000,7.969403076171875,9.600004196166992,0.8781659007072449,1.0121639966964722
1771681486065760800,7.9797607421875,10.39920711517334,3.266202926635742,0.7417750358581543
1771681486076118800,7.990118896484375,9.111868858337402,-0.3852444589138031,0.9834501147270203
1771681486086476500,8.0004765625,9.990034103393555,1.0887342691421509,-0.5958128571510315
1771681486096834600,8.01083447265625,9.626325607299805,2.68953275680542,-0.9978070259094238
1771681486107192300,8.0211923828125,8.343772888183594,0.851844847202301,-0.17228323221206665
1771681486117550000,8.031550048828125,8.420342445373535,0.4905286431312561,-0.49292147159576416
1771681486127908000,8.041908203125,9.193224906921387,2.794816732406616,-0.035892341285943985
1771681486138265900,8.052265869140625,7.800601959228516,0.4259224236011505,-0.040677983313798904
1771681486148623600,8.06262353515625,10.06421184539795,2.4526431560516357,-0.15553347766399384
1771681486158981600,8.072981689453124,9.418149948120117,1.4524433612823486,0.1459621787071228
1771681486169339400,8.08333935546875,8.85344409942627,0.2273181527853012,0.10049854964017868
1771681486179697200,8.093697265625,10.164710998535156,2.1296122074127197,-0.2919243574142456
1771681486190055200,8.10405517578125,9.856036186218262,1.9836499691009521,-0.550349235534668
1771681486200413000,8.114412841796875,7.788637638092041,-0.32303106784820557,-0.5575276613235474
1771681486210771000,8.12477099609375,10.171889305114746,1.8616160154342651,-0.5599204897880554
1771681486221128700,8.135128662109375,9.686145782470703,2.0889341831207275,-1.2634103298187256
1771681486231486500,8.145486572265625,8.391629219055176,-0.11964113265275955,-1.1270195245742798
1771681486241844500,8.155844482421875,9.980463027954102,1.5337992906570435,-0.9858429431915283
1771681486252202200,8.1662021484375,9.755537986755371,1.435693621635437,-0.47617170214653015
1771681486262560000,8.17656005859375,9.365508079528809,-0.33499518036842346,-0.22971096634864807
1771681486272918000,8.18691796875,10.459028244018555,0.9260223507881165,-0.38285163044929504
1771681486283275800,8.19727587890625,10.542776107788086,1.3543375730514526,-0.05742774158716202
1771681486293633800,8.2076337890625,9.93978500366211,-0.06939185410737991,0.34217363595962524
1771681486303991600,8.217991455078124,10.657631874084473,0,-0.20338992774486542
1771681486314349600,8.228349609375,10.138389587402344,0.9595218896865845,-0.031106693670153618
1771681486324707300,8.238707275390626,10.923234939575195,0.04546362906694412,-0.397208571434021
1771681486335065000,8.249065185546876,10.8969144821167,-0.24885354936122894,-1.0432707071304321
1771681486345423000,8.259423095703125,10.363314628601074,-0.8542376756668091,-0.8015955686569214
1771681486355780900,8.26978076171875,11.557332992553711,0.27756741642951965,-0.8757730722427368
1771681486366138600,8.280138671875,10.846665382385254,0.33020952343940735,-0.760917603969574
1771681486376496600,8.29049658203125,10.351350784301758,-0.5742774605751038,0.062213387340307236
1771681486386854400,8.3008544921875,9.784252166748047,0.04307080805301666,0.4785645306110382
1771681486397212200,8.311212158203125,11.203195571899414,1.0169496536254883,0.48813581466674805
1771681486407570200,8.321570068359375,9.7938232421875,0.07417750358581543,0.48574298620224
1771681486417928000,8.331927978515624,10.504491806030273,-0.062213387340307236,0.550349235534668
1771681486428286000,8.342285888671874,10.631311416625977,0.8470591902732849,0.7154539823532104
1771681486438643700,8.352643798828124,10.107282638549805,0.04785645380616188,0.48813581466674805
1771681486449001500,8.36300146484375,9.702896118164062,0.21774685382843018,0.6269195079803467
1771681486459359500,8.373359375,9.994820594787598,0.10767702013254166,0.5814558863639832
1771681486469717200,8.38371728515625,9.379864692687988,1.038485050201416,0.45942193269729614
1771681486480075000,8.394074951171875,8.944371223449707,-0.6005984544754028,1.1413763761520386
1771681486490433000,8.40443310546875,9.229117393493652,0.519242525100708,0.914058268070221
1771681486500790800,8.414790771484375,8.817551612854004,0.4211367964744568,1.2275179624557495
1771681486511148800,8.425148681640625,9.358329772949219,0.3613162338733673,0.916451096534729
1771681486521506600,8.435506591796875,9.267401695251465,0.06939185410737991,0.8542376756668091
1771681486531864300,8.4458642578125,10.511670112609863,0.4977070987224579,0.7106683254241943
1771681486542222300,8.456222412109375,9.748359680175781,0.18903298676013947,1.0049854516983032
1771681486552580000,8.466580078125,9.757930755615234,-1.4572290182113647,0.9308080077171326
1771681486562937900,8.476937744140624,9.671789169311523,0.8015955686569214,-0.07417750358581543
1771681486573295900,8.4872958984375,10.511670112609863,2.1535403728485107,-0.4618147611618042
1771681486583653600,8.497653564453126,8.839086532592773,-0.8590233325958252,0.3684946894645691
1771681486594011600,8.50801171875,7.989634990692139,-0.8997012972831726,-0.05503492057323456
1771681486604369400,8.518369384765625,10.861021995544434,0.8901300430297852,0.22492532432079315
1771681486614727200,8.52872705078125,10.095318794250488,0.275174617767334,0.09092725813388824
1771681486625085200,8.539085205078125,9.841679573059082,-1.4069796800613403,0.3158525824546814
1771681486635443000,8.54944287109375,10.959127426147461,0.5527420043945312,-0.0023928226437419653
1771681486645801000,8.559801025390625,10.478170394897461,0.6771687865257263,0.31106695532798767
1771681486656158700,8.57015869140625,9.518648147583008,-0.6652047038078308,0.019142581149935722
1771681486666516500,8.5805166015625,9.899106979370117,-0.10049854964017868,-0.5599204897880554
1771681486676874500,8.59087451171875,9.750752449035645,0.6101697683334351,-0.6963114142417908
1771681486687232300,8.601232177734374,9.279366493225098,-0.26081767678260803,-0.6101697683334351
1771681486697590000,8.611590087890624,9.827322959899902,-0.4977070987224579,-0.8949156403541565
1771681486707948000,8.621947998046876,9.92542839050293,0.33020952343940735,-0.8949156403541565
1771681486718305800,8.632305908203126,10.191031455993652,0.10049854964017868,-0.6221339106559753
1771681486728663800,8.642663818359376,10.317851066589355,-0.3038884699344635,-0.42831525206565857
1771681486739021600,8.653021484375,9.836894035339355,0.3397808074951172,-0.24646073579788208
1771681486749379300,8.66337939453125,10.478170394897461,0.16271193325519562,0.30628129839897156
1771681486759737300,8.6737373046875,9.738788604736328,-0.25363919138908386,0.13878370821475983
1771681486770095000,8.68409521484375,9.633503913879395,-0.11246266216039658,-0.040677983313798904
1771681486780452900,8.694452880859375,10.188638687133789,0.6029912829399109,-0.32542386651039124
1771681486790811000,8.704810791015625,8.989834785461426,0.5623133182525635,-0.275174617767334
1771681486801168600,8.715168701171875,9.745966911315918,-0.5886343717575073,-0.12921242415905
1771681486811526700,8.725526611328124,9.501898765563965,0.059820566326379776,-0.1818545162677765
1771681486821884400,8.735884521484374,10.037891387939453,0.8685946464538574,-0.4546363055706024
1771681486832242200,8.7462421875,9.870393753051758,0.31345975399017334,-0.5958128571510315
1771681486842600200,8.75660009765625,9.643074989318848,0.035892341285943985,-0.4546363055706024
1771681486852958000,8.7669580078125,9.734002113342285,0.28953152894973755,0.004785645287483931
1771681486863316000,8.77731591796875,9.753145217895508,0.6149554252624512,0.8327022790908813
1771681486873673700,8.787673828125,9.511469841003418,-0.46420758962631226,0.7465606927871704
1771681486884031500,8.798031494140625,9.674181938171387,-0.39960137009620667,1.179661512374878
1771681486894389500,8.808389404296875,9.657432556152344,0.2512463629245758,0.9643075466156006
1771681486904747300,8.818747314453125,9.659825325012207,0.06699903309345245,1.0959128141403198
1771681486915105000,8.82910498046875,9.432506561279297,-0.4785645306110382,1.6079767942428589
1771681486925463000,8.839463134765625,10.195816993713379,-0.035892341285943985,1.0815558433532715
1771681486935820800,8.84982080078125,9.906285285949707,-0.24406790733337402,0.7824530005455017
1771681486946178800,8.8601787109375,10.224531173706055,-0.42831525206565857,0.6269195079803467
1771681486956536600,8.87053662109375,10.269994735717773,0.37088751792907715,0.44027936458587646
1771681486966894300,8.880894287109374,10.604990005493164,-0.24406790733337402,0.8997012972831726
1771681486977252400,8.89125244140625,9.77707290649414,-0.8327022790908813,1.2059825658798218
1771681486987610000,8.901610107421876,10.076175689697266,-0.5335994362831116,1.1485549211502075
1771681486997968000,8.9119677734375,9.937392234802246,-0.4163511395454407,0.9020941257476807
1771681487008326000,8.922325927734375,9.954142570495605,-0.39960137009620667,0.8231309652328491
1771681487018683600,8.93268359375,9.425328254699707,-0.7728816866874695,0.7417750358581543
1771681487029041700,8.943041748046875,10.269994735717773,-0.7657032608985901,0.7896314859390259
1771681487039399400,8.9533994140625,9.89432144165039,-0.18903298676013947,0.7704889178276062
1771681487049757200,8.963757080078125,10.310672760009766,-0.7489534616470337,0.37088751792907715
1771681487060115200,8.974115234375,9.494720458984375,-0.8231309652328491,0.17946170270442963
1771681487070473000,8.984472900390625,10.114460945129395,-0.7106683254241943,-0.05503492057323456
1771681487080830700,8.994830810546874,10.112068176269531,-0.22492532432079315,0.1579262912273407
1771681487091188700,9.005188720703124,9.882357597351074,-1.0600204467773438,0.5527420043945312
1771681487101546500,9.01554638671875,9.609575271606445,-1.4931213855743408,0.37088751792907715
1771681487111904500,9.025904541015626,9.906285285949707,-0.35892340540885925,0.23449662327766418
1771681487122262300,9.03626220703125,9.77707290649414,-0.3278166949748993,0.038285162299871445
1771681487132620000,9.0466201171875,9.262616157531738,-1.3423734903335571,-0.11485548317432404
1771681487142978000,9.05697802734375,9.219545364379883,-1.0648061037063599,0.09571290761232376
1771681487153335800,9.067335693359375,9.810572624206543,-1.0600204467773438,0.21296121180057526
1771681487163693800,9.07769384765625,9.966106414794922,-1.3256237506866455,0.11246266216039658
1771681487174051600,9.088051513671875,9.882357597351074,-1.3878371715545654,0.014356935396790504
1771681487184409300,9.098409423828125,9.76989459991455,-0.8015955686569214,-0.5312066078186035
1771681487194767400,9.108767333984375,10.332208633422852,-1.5696916580200195,-0.2225325107574463
1771681487205125000,9.119125,9.822537422180176,-1.1892328262329102,-0.09571290761232376
1771681487215483000,9.12948291015625,9.722038269042969,-1.0671988725662231,0.31106695532798767
1771681487225841000,9.1398408203125,9.899106979370117,-1.428515076637268,0.37088751792907715
1771681487236198700,9.15019873046875,9.614361763000488,-1.3423734903335571,0.4977070987224579
1771681487246556700,9.160556640625,10.104889869689941,-1.2490534782409668,0.05503492057323456
1771681487256914400,9.17091455078125,9.77707290649414,-1.3088740110397339,0.004785645287483931
1771681487267272200,9.181272216796875,9.949356079101562,-1.28255295753479,0.08614161610603333
1771681487277630200,9.191630126953125,10.229316711425781,-1.423729419708252,0.7369893789291382
1771681487287988000,9.201988037109375,10.179067611694336,-1.8065811395645142,0.4618147611618042
1771681487298345700,9.212345703125,10.198209762573242,-1.852044701576233,0.01196411345154047
1771681487308703700,9.222703857421875,10.542776107788086,-1.069591760635376,-0.27756741642951965
1771681487319061500,9.2330615234375,9.970891952514648,-1.6007983684539795,-0.0933200865983963
1771681487329419500,9.24341943359375,10.15035343170166,-1.2035897970199585,0.2799602448940277
1771681487339777300,9.25377734375,9.45882797241211,-1.337587833404541,0.638883650302887
1771681487350135300,9.26413525390625,9.76989459991455,-1.8783657550811768,0.40677985548973083
1771681487360493000,9.2744931640625,10.207781791687012,-1.8735800981521606,0.5718846321105957
1771681487370850800,9.284850830078126,10.310672760009766,-1.526620864868164,-0.07417750358581543
1771681487381208800,9.295208740234376,9.877572059631348,-1.576870083808899,0.10289137065410614
1771681487391566600,9.305566650390626,9.67657470703125,-2.03629207611084,0.4905286431312561
1771681487401924400,9.31592431640625,9.738788604736328,-1.3351950645446777,0.6293123364448547
1771681487412282400,9.326282470703125,9.619147300720215,-1.710868239402771,0.6484549641609192
1771681487422640000,9.33664013671875,10.195816993713379,-1.7084753513336182,0.38763725757598877
1771681487432998100,9.346998046875,9.812965393066406,-1.0432707071304321,0.02153540402650833
1771681487443356000,9.35735595703125,9.592825889587402,-1.6869399547576904,0.08135596662759781
1771681487453713700,9.367713623046875,9.817750930786133,-1.6654045581817627,0.4977070987224579
1771681487464071700,9.37807177734375,10.01874828338623,-1.0911271572113037,0.519242525100708
1771681487474429400,9.388429443359374,9.767501831054688,-1.6773686408996582,0.42831525206565857
1771681487484787200,9.398787109375,9.678967475891113,-2.0267207622528076,0.5000999569892883
1771681487495145200,9.409145263671874,10.155138969421387,-1.373480200767517,0.31345975399017334
1771681487505503000,9.4195029296875,9.841679573059082,-1.0863415002822876,-0.06699903309345245
1771681487515861000,9.429861083984376,9.827322959899902,-1.679761528968811,0.25363919138908386
1771681487526218800,9.44021875,9.836894035339355,-2.1750757694244385,0.7561319470405579
1771681487536576500,9.450576416015625,9.851250648498535,-1.2394821643829346,0.6795616149902344
1771681487546934500,9.4609345703125,10.073782920837402,-1.454836130142212,0.7848458290100098
1771681487557292300,9.471292236328125,9.58325481414795,-1.5361921787261963,0.607776939868927
1771681487567650000,9.481650146484375,9.80817985534668,-1.8544375896453857,0.02153540402650833
1771681487578008000,9.492008056640625,10.00439167022705,-1.1222338676452637,0.30628129839897156
1771681487588365800,9.50236572265625,9.848857879638672,-1.9214365482330322,0.6460621356964111
1771681487598723800,9.512723876953125,10.131211280822754,-1.6462619304656982,0.4713860750198364
1771681487609081600,9.52308154296875,10.585846900939941,-1.6462619304656982,0.19621145725250244
1771681487619439600,9.533439697265624,9.899106979370117,-2.2157537937164307,0.2799602448940277
1771681487629797400,9.54379736328125,10.02592658996582,-2.053041934967041,-0.13160525262355804
1771681487640155100,9.554155029296876,10.241280555725098,-1.1676974296569824,-0.20338992774486542
1771681487650513200,9.56451318359375,9.906285285949707,-1.5433706045150757,0.15314064919948578
1771681487660871000,9.574870849609376,9.80817985534668,-2.306680917739868,0.7704889178276062
1771681487671228700,9.585228759765625,9.89432144165039,-1.7850457429885864,0.5527420043945312
1771681487681586700,9.595586669921875,10.423135757446289,-1.4715858697891235,0.3756731450557709
1771681487691944400,9.6059443359375,10.396814346313477,-1.794616937637329,0.21296121180057526
1771681487702302500,9.616302490234375,9.975677490234375,-2.287538528442383,0.064606212079525
1771681487712660200,9.62666015625,10.305887222290039,-1.399801254272461,0.18424734473228455
1771681487723018000,9.63701806640625,10.490134239196777,-1.3351950645446777,0.7202396392822266
1771681487733376000,9.6473759765625,9.4061861038208,-2.0793628692626953,0.5168496966362
1771681487743733800,9.657733642578124,9.67657470703125,-1.6510475873947144,0.37806597352027893
1771681487754091500,9.668091552734374,9.937392234802246,-0.8877372145652771,0.19142581522464752
1771681487764449500,9.678449462890624,9.19561767578125,-2.1200408935546875,-0.01196411345154047
1771681487774807300,9.688807373046876,9.518648147583008,-1.3710874319076538,-0.11485548317432404
1771681487785165300,9.699165283203126,10.325029373168945,-0.9571290612220764,0.13160525262355804
1771681487795523000,9.709523193359376,9.839286804199219,-2.297109842300415,0.8709874153137207
1771681487805880800,9.719880859375,10.155138969421387,-1.9262222051620483,0.6460621356964111
1771681487816238800,9.73023876953125,10.619346618652344,-1.3758729696273804,0.48095735907554626
1771681487826596600,9.7405966796875,10.04267692565918,-1.4069796800613403,0.08374879509210587
1771681487836954600,9.75095458984375,9.698110580444336,-2.383251428604126,-0.12681959569454193
1771681487847312400,9.7613125,9.966106414794922,-0.9619147181510925,0.17706887423992157
1771681487857670100,9.771670166015625,9.755537986755371,-1.7539390325546265,0.6747759580612183
1771681487868028200,9.782028076171875,10.126425743103027,-2.0099709033966064,0.550349235534668
1771681487878386000,9.792385986328124,9.781859397888184,-1.6223337650299072,0.33499518036842346
1771681487888744000,9.802743896484374,10.224531173706055,-1.576870083808899,0.14835500717163086
1771681487899101700,9.813101806640624,9.760323524475098,-1.6654045581817627,-0.12203395366668701
1771681487909459500,9.82345947265625,10.02592658996582,-1.7276179790496826,-0.2799602448940277
1771681487919817500,9.8338173828125,10.131211280822754,-1.1892328262329102,-0.031106693670153618
1771681487930175200,9.84417529296875,9.564111709594727,-2.0410776138305664,0.41874396800994873
1771681487940533000,9.854532958984375,9.951749801635742,-1.6342978477478027,0.5096712112426758
1771681487950891000,9.86489111328125,9.705288887023926,-1.1988041400909424,0.2727817893028259
1771681487961248800,9.875248779296875,9.480362892150879,-1.6342978477478027,-0.0023928226437419653
1771681487971606800,9.885606689453125,9.06401252746582,-1.430907964706421,-0.05024927482008934
1771681487981964500,9.895964599609375,9.511469841003418,-1.8161523342132568,-0.0023928226437419653
1771681487992322300,9.906322265625,9.56650447845459,-1.153340458869934,0.07896314561367035
1771681488002680300,9.916680419921875,9.76989459991455,-1.8305093050003052,0.6819544434547424
1771681488013038000,9.9270380859375,10.198209762573242,-1.4883357286453247,0.4498506486415863
1771681488023396000,9.93739599609375,9.480362892150879,-1.7180466651916504,0.3445664644241333
1771681488033753900,9.94775390625,10.13599681854248,-1.5409778356552124,0.17228323221206665
1771681488044111600,9.958111572265626,9.260223388671875,-1.179661512374878,0.19621145725250244
1771681488054469600,9.9684697265625,9.860821723937988,-1.8137595653533936,0.2847459018230438
1771681488064827400,9.978827392578125,8.872586250305176,-1.581655740737915,0.550349235534668
1771681488075185200,9.98918505859375,9.942177772521973,-1.5242279767990112,0.8662018179893494
1771681488085543200,9.999543212890625,9.511469841003418,-1.7611174583435059,0.794417142868042
1771681488095901000,10.00990087890625,9.66939640045166,-1.6606189012527466,0.5551348328590393
1771681488106259000,10.020259033203125,9.923035621643066,-1.4524433612823486,0.34217363595962524
1771681488116616700,10.03061669921875,9.805787086486816,-1.8233308792114258,0.26560330390930176
1771681488126974700,10.040974609375,9.968499183654785,-1.7850457429885864,0.5862415432929993
1771681488137332500,10.05133251953125,10.186245918273926,-1.6582261323928833,0.8877372145652771
1771681488147690200,10.061690185546874,9.724431037902832,-1.8783657550811768,1.0145567655563354
1771681488158048300,10.07204833984375,9.930213928222656,-1.643869161605835,0.9595218896865845
1771681488168406000,10.082406005859376,9.884750366210938,-1.5720844268798828,0.8207381963729858
1771681488178763800,10.092763671875,9.982855796813965,-1.7324036359786987,0.5335994362831116
1771681488189121800,10.103121826171876,10.068997383117676,-1.5194423198699951,0.6269195079803467
1771681488199479600,10.1134794921875,10.085747718811035,-1.8711873292922974,0.7106683254241943
1771681488209837600,10.123837646484375,9.829715728759766,-1.8831514120101929,0.97148597240448
1771681488220195300,10.1341953125,10.487741470336914,-1.6199408769607544,1.2059825658798218
1771681488230553000,10.144552978515625,9.970891952514648,-1.9405791759490967,0.8398807644844055
1771681488240911000,10.1549111328125,10.37767219543457,-1.6869399547576904,0.6795616149902344
1771681488251268900,10.165268798828125,9.896714210510254,-1.6917256116867065,0.43549370765686035
1771681488261627000,10.175626953125,9.879964828491211,-1.5696916580200195,0.7154539823532104
1771681488271984600,10.185984619140624,10.040284156799316,-1.9094724655151367,1.0097711086273193
1771681488282342400,10.19634228515625,9.7005033493042,-1.4452649354934692,1.1509476900100708
1771681488292700400,10.206700439453124,10.53799057006836,-1.581655740737915,0.9619147181510925
1771681488303058200,10.21705810546875,9.738788604736328,-1.789831280708313,0.8374879360198975
1771681488313416000,10.227416015625,10.521241188049316,-1.6199408769607544,0.7369893789291382
1771681488323774000,10.23777392578125,10.00439167022705,-1.3543375730514526,0.6675975322723389
1771681488334131700,10.248131591796875,10.171889305114746,-1.2897313833236694,0.3924229145050049
1771681488344489700,10.25848974609375,10.212567329406738,-0.9379864931106567,0.6556333899497986
1771681488354847500,10.268847412109375,10.435099601745605,-0.8231309652328491,0.8566305041313171
1771681488365205500,10.27920556640625,10.133604049682617,-0.7680960893630981,0.7178468108177185
1771681488375563300,10.289563232421875,10.494919776916504,-0.11485548317432404,0.24167509377002716
1771681488385921000,10.299921142578125,10.169496536254883,0.24406790733337402,0.13878370821475983
1771681488396279000,10.310279052734375,9.820143699645996,-0.37088751792907715,0.019142581149935722
1771681488406636800,10.32063671875,10.320243835449219,0.016749758273363113,0.38285163044929504
1771681488416994600,10.33099462890625,10.289137840270996,-0.05503492057323456,0.760917603969574
1771681488427352600,10.3413525390625,10.444670677185059,-0.20578274130821228,0.4713860750198364
1771681488437710300,10.35171044921875,10.009177207946777,0.02392822690308094,0.4331009089946747
1771681488448068400,10.362068359375,10.38485050201416,-0.04307080805301666,0.2584248483181
1771681488458426000,10.372426025390626,10.001998901367188,0.08853443711996078,0.07657032459974289
1771681488468783900,10.382783935546875,10.1216402053833,-0.05503492057323456,0.02392822690308094
1771681488479142000,10.393141845703125,9.757930755615234,0.24885354936122894,0.09571290761232376
1771681488489499600,10.403499755859375,10.045069694519043,0.09810572862625122,0.4498506486415863
1771681488499857700,10.413857666015625,9.628718376159668,-0.06699903309345245,0.5670989751815796
1771681488510215400,10.42421533203125,9.91107177734375,0.16031911969184875,0.44745782017707825
1771681488520573200,10.4345732421875,9.710074424743652,0.09092725813388824,0.15553347766399384
1771681488530931200,10.44493115234375,9.827322959899902,0.23210379481315613,0.019142581149935722
1771681488541289000,10.4552890625,9.533005714416504,-0.07178468257188797,0.07417750358581543
1771681488551646700,10.465646728515624,9.628718376159668,0.1698904037475586,0.3086741268634796
1771681488562004700,10.476004638671874,9.942177772521973,0.1866401731967926,0.5216353535652161
1771681488572362500,10.486362548828126,9.963713645935059,0.31345975399017334,0.38763725757598877
1771681488582720500,10.496720458984376,9.80817985534668,0.2727817893028259,0.3684946894645691
1771681488593078300,10.507078369140626,9.879964828491211,0.19142581522464752,0.2991028428077698
1771681488603436000,10.51743603515625,9.671789169311523,0.24646073579788208,0.12203395366668701
1771681488613794000,10.5277939453125,9.647860527038574,0.16271193325519562,0.23688943684101105
1771681488624151800,10.53815185546875,9.616754531860352,0.11724831163883209,0.5096712112426758
1771681488634509800,10.548509765625,9.65503978729248,-0.07178468257188797,0.8709874153137207
1771681488644867600,10.55886767578125,10.12881851196289,0.10289137065410614,0.9020941257476807
1771681488655225600,10.5692255859375,9.856036186218262,0.4713860750198364,0.5168496966362
1771681488665583400,10.579583251953125,9.858428955078125,0.2632105052471161,0.18424734473228455
1771681488675941000,10.589941162109374,9.626325607299805,0.3278166949748993,-0.016749758273363113
1771681488686299100,10.600299072265624,9.695717811584473,0.2105683982372284,0.2871387302875519
1771681488696657000,10.610656982421874,9.822537422180176,0.1339980661869049,0.6197410821914673
1771681488707014700,10.6210146484375,9.55214786529541,0.32542386651039124,0.6819544434547424
1771681488717372700,10.63137255859375,9.848857879638672,0.0933200865983963,0.5551348328590393
1771681488727730400,10.64173046875,9.44447135925293,0.32542386651039124,0.48813581466674805
1771681488738088400,10.65208837890625,9.882357597351074,0.07896314561367035,0.2871387302875519
1771681488748446200,10.6624462890625,9.717252731323242,0.41156548261642456,0.14356936514377594
1771681488758804000,10.672803955078125,9.645467758178711,0.18424734473228455,0.15553347766399384
1771681488769162000,10.683161865234375,9.67657470703125,0.3038884699344635,0.46420758962631226
1771681488779519700,10.693519775390625,9.439684867858887,-0.02871387079358101,0.6675975322723389
1771681488789877800,10.703877685546875,9.896714210510254,0.38763725757598877,0.641276478767395
1771681488800235500,10.714235595703125,9.851250648498535,0.040677983313798904,0.38763725757598877
1771681488810593300,10.72459326171875,9.53779125213623,0.1818545162677765,0.014356935396790504
1771681488820951300,10.734951416015624,9.968499183654785,0.31824541091918945,0.04546362906694412
1771681488831309000,10.74530908203125,9.571290969848633,-0.1866401731967926,0.3086741268634796
1771681488841666800,10.755666748046876,10.071390151977539,0.2392822653055191,0.4091726839542389
1771681488852024800,10.76602490234375,9.860821723937988,0.4139583110809326,0.6604190468788147
1771681488862382600,10.776382568359375,9.829715728759766,0.10289137065410614,0.5264210104942322
1771681488872740600,10.78674072265625,9.755537986755371,0.05024927482008934,0.3206382393836975
1771681488883098400,10.797098388671875,9.757930755615234,0.45224347710609436,0.21774685382843018
1771681488893456400,10.807456298828125,9.93978500366211,0.11724831163883209,-0.02632104977965355
1771681488903814100,10.817814208984375,9.477970123291016,0.14356936514377594,0.13160525262355804
1771681488914172000,10.828171875,9.719645500183105,0.10289137065410614,0.5479564070701599
1771681488924530000,10.838530029296875,9.7005033493042,-0.03349951654672623,0.7824530005455017
1771681488934887700,10.8488876953125,9.760323524475098,0.26081767678260803,0.7752745151519775
1771681488945245400,10.859245361328124,9.863214492797852,0.42352959513664246,0.31106695532798767
1771681488955603500,10.869603515625,9.607182502746582,0.30149564146995544,0.0933200865983963
1771681488965961200,10.879961181640626,9.820143699645996,0.16271193325519562,0.2584248483181
1771681488976319200,10.8903193359375,9.56889820098877,0.23449662327766418,0.4307080805301666
1771681488986677000,10.900677001953126,10.054640769958496,0.19621145725250244,0.7992027401924133
1771681488997034800,10.91103466796875,9.616754531860352,0.32542386651039124,0.6891329288482666
1771681489007392800,10.921392822265625,9.884750366210938,0.2392822653055191,0.6340979933738708
1771681489017750500,10.93175048828125,9.645467758178711,0.24885354936122894,0.6005984544754028
1771681489028108500,10.942108642578125,9.58325481414795,0.1818545162677765,0.4259224236011505
1771681489038466300,10.95246630859375,9.748359680175781,0.4905286431312561,0.22492532432079315
1771681489048824000,10.962823974609375,9.80100154876709,0.40677985548973083,0.363709032535553
1771681489059182000,10.97318212890625,9.834501266479492,0.08135596662759781,0.7369893789291382
1771681489069539800,10.983539794921874,10.076175689697266,0.2632105052471161,0.8350951075553894
1771681489079897900,10.99389794921875,10.04267692565918,0.42352959513664246,0.7465606927871704
1771681489090255600,11.004255615234374,9.934999465942383,0.32542386651039124,0.397208571434021
1771681489100613400,11.01461328125,9.511469841003418,0.32542386651039124,0.20099709928035736
1771681489110971400,11.024971435546876,9.66221809387207,0.31824541091918945,0.28235307335853577
1771681489121329200,11.0353291015625,9.384650230407715,0.20338992774486542,0.5551348328590393
1771681489131687200,11.045687255859375,10.3681001663208,0.28235307335853577,0.7513462901115417
1771681489142045000,11.056044921875,9.56889820098877,0.23688943684101105,0.6508477330207825
1771681489152402700,11.066402587890625,10.090533256530762,0.3397808074951172,0.41874396800994873
1771681489162760700,11.0767607421875,9.822537422180176,0.11006984114646912,0.2871387302875519
1771681489173118500,11.087118408203125,9.681360244750977,0.3326023519039154,0.1746760457754135
1771681489183476500,11.0974765625,10.06421184539795,0.12921242415905,0.16031911969184875
1771681489193834200,11.107834228515625,9.856036186218262,0.5431707501411438,0.20578274130821228
1771681489204192000,11.11819189453125,9.975677490234375,-0.08614161610603333,0.576670229434967
1771681489214550000,11.128550048828124,9.884750366210938,0.519242525100708,0.7106683254241943
1771681489224907800,11.13890771484375,9.774680137634277,0.08853443711996078,0.5455635786056519
1771681489235265800,11.149265869140624,9.731609344482422,0.6508477330207825,0.25363919138908386
1771681489245623600,11.15962353515625,9.55214786529541,0.1459621787071228,0.23449662327766418
1771681489255981300,11.169981201171876,9.748359680175781,0.035892341285943985,0.22971096634864807
1771681489266339300,11.18033935546875,10.092926025390625,0.5048855543136597,0.42352959513664246
1771681489276697000,11.190697021484375,10.169496536254883,0.16271193325519562,0.5886343717575073
1771681489287054800,11.201054931640625,9.891928672790527,0.42831525206565857,0.42352959513664246
1771681489297412900,11.211412841796875,9.650253295898438,0.2991028428077698,0.44745782017707825
1771681489307770600,11.2217705078125,9.664610862731934,0.2679961323738098,0.17228323221206665
1771681489318128600,11.232128662109375,9.609575271606445,0.3158525824546814,0.09571290761232376
1771681489328486400,11.242486328125,9.652647018432617,0.2799602448940277,0.07178468257188797
1771681489338844200,11.25284423828125,9.542576789855957,0.5718846321105957,0.33020952343940735
1771681489349202200,11.2632021484375,9.829715728759766,-0.031106693670153618,0.5718846321105957
1771681489359560000,11.273559814453124,9.884750366210938,0.576670229434967,0.5790630578994751
1771681489369918000,11.28391796875,9.81535816192627,0.32303106784820557,0.32542386651039124
1771681489380275700,11.294275634765626,9.820143699645996,0.5694918036460876,0.01196411345154047
1771681489390633500,11.304633544921876,9.482755661010742,0.35892340540885925,-0.05742774158716202
1771681489400991500,11.314991455078125,9.633503913879395,0.07178468257188797,0.19621145725250244
1771681489411349200,11.325349365234375,9.714859962463379,0.6939185857772827,0.4307080805301666
1771681489421707300,11.335707275390625,9.631111145019531,0.18424734473228455,0.7130611538887024
1771681489432065000,11.34606494140625,9.602396965026855,0.4737788736820221,0.4378865361213684
1771681489442422800,11.3564228515625,9.839286804199219,0.1339980661869049,0.41156548261642456
1771681489452780800,11.36678076171875,9.688538551330566,0.4307080805301666,0.4378865361213684
1771681489463138600,11.377138671875,9.90149974822998,0.22492532432079315,0.349352091550827
1771681489473496600,11.38749658203125,9.891928672790527,0.23688943684101105,0.38763725757598877
1771681489483854300,11.397854248046874,9.791430473327637,0.12681959569454193,0.7154539823532104
1771681489494212000,11.408212158203124,10.090533256530762,0.16031911969184875,1.038485050201416
1771681489504570000,11.418570068359376,10.155138969421387,0.23449662327766418,0.9332008361816406
1771681489514927900,11.428927978515626,10.1216402053833,0.18903298676013947,0.576670229434967
1771681489525285600,11.43928564453125,9.877572059631348,0.33020952343940735,0.23688943684101105
1771681489535643600,11.4496435546875,9.927821159362793,-0.004785645287483931,0.4737788736820221
1771681489546001400,11.46000146484375,10.097711563110352,0.03349951654672623,0.7393822073936462
1771681489556359400,11.470359375,10.341779708862305,0.2225325107574463,1.0456634759902954
1771681489566717200,11.48071728515625,10.293923377990723,0.16749759018421173,1.0911271572113037
1771681489577075000,11.491074951171875,10.054640769958496,-0.004785645287483931,1.0600204467773438
1771681489587433000,11.501432861328125,10.01874828338623,0.349352091550827,0.8590233325958252
1771681489597790700,11.511790771484375,10.140782356262207,0.10767702013254166,0.6819544434547424
1771681489608148700,11.522148681640624,9.968499183654785,0.17228323221206665,0.5647061467170715
1771681489618506500,11.532506591796874,10.186245918273926,0.23688943684101105,0.5838487148284912
1771681489628864500,11.542864501953124,10.023533821105957,0.2392822653055191,1.038485050201416
1771681489639222300,11.55322216796875,10.109675407409668,-0.17228323221206665,1.153340458869934
1771681489649580000,11.563580078125,10.047462463378906,0.3445664644241333,0.914058268070221
1771681489659938000,11.57393798828125,10.095318794250488,0.25363919138908386,0.3565305769443512
1771681489670295800,11.5842958984375,10.06421184539795,0.12921242415905,0.1459621787071228
1771681489680653600,11.594653564453125,9.80100154876709,0.09571290761232376,0.38285163044929504
1771681489691011600,11.605011474609375,10.246066093444824,0.11485548317432404,0.5335994362831116
1771681489701369300,11.615369384765625,10.054640769958496,0.09571290761232376,0.6867401003837585
1771681489711727400,11.625727294921875,10.183853149414062,0.26560330390930176,0.5431707501411438
1771681489722085000,11.636085205078125,9.930213928222656,0.16271193325519562,0.5168496966362
1771681489732443000,11.64644287109375,9.841679573059082,-0.07417750358581543,0.25363919138908386
1771681489742801000,11.65680078125,9.882357597351074,0.22013968229293823,0.02871387079358101
1771681489753158700,11.66715869140625,10.02592658996582,0.40677985548973083,0.01196411345154047
1771681489763516700,11.6775166015625,9.559326171875,-0.2273181527853012,0.20338992774486542
1771681489773874400,11.68787451171875,9.949356079101562,0.03349951654672623,0.5024927258491516
1771681489784232200,11.698232177734376,9.963713645935059,0.2919243574142456,0.5240281820297241
1771681489794590200,11.708590087890625,10.095318794250488,0.02871387079358101,0.2799602448940277
1771681489804948000,11.718947998046875,9.779465675354004,0.24646073579788208,-0.06939185410737991
1771681489815306000,11.729305908203125,9.822537422180176,0.27756741642951965,-0.15314064919948578
1771681489825663700,11.739663818359375,9.633503913879395,-0.02153540402650833,0.064606212079525
1771681489836021500,11.750021484375,9.870393753051758,0.07178468257188797,0.2105683982372284
1771681489846379500,11.760379638671875,10.009177207946777,0.37806597352027893,0.42831525206565857
1771681489856737300,11.7707373046875,9.714859962463379,0.064606212079525,0.2512463629245758
1771681489867095300,11.78109521484375,9.561718940734863,-0.07657032459974289,0.2512463629245758
1771681489877453000,11.791453125,9.707681655883789,0.363709032535553,-0.09810572862625122
1771681489887810800,11.801810791015624,9.93260669708252,0.16510476171970367,-0.06939185410737991
1771681489898168800,11.8121689453125,9.463613510131836,0.08135596662759781,-0.05742774158716202
1771681489908526600,11.822526611328126,9.882357597351074,0.17228323221206665,0.20578274130821228
1771681489918884600,11.832884521484376,9.870393753051758,0.2512463629245758,0.4833501875400543
1771681489929242400,11.843242431640626,9.626325607299805,0.016749758273363113,0.45942193269729614
1771681489939600100,11.85360009765625,9.944570541381836,0.44745782017707825,0.22013968229293823
1771681489949958100,11.863958251953125,9.736394882202148,0.4785645306110382,0.040677983313798904
1771681489960316000,11.87431591796875,9.343972206115723,-0.24406790733337402,0.038285162299871445
1771681489970673700,11.884673583984375,9.425328254699707,0.33020952343940735,0.14356936514377594
1771681489981031700,11.89503173828125,9.80100154876709,0.5072783827781677,0.5838487148284912
1771681489991389400,11.905389404296875,9.671789169311523,0.48813581466674805,0.5862415432929993
1771681490001747500,11.91574755859375,10.097711563110352,1.6462619304656982,0.5718846321105957
1771681490012105200,11.926105224609374,10.023533821105957,-0.638883650302887,0.17228323221206665
1771681490022463000,11.936462890625,8.71226692199707,-0.8446664214134216,-0.064606212079525
1771681490032821000,11.946821044921874,9.382257461547852,1.0815558433532715,-0.08135596662759781
1771681490043178800,11.9571787109375,10.791629791259766,2.2229323387145996,0.1746760457754135
1771681490053536800,11.967536865234376,9.600004196166992,0.882951557636261,0.760917603969574
1771681490063894500,11.97789453125,9.53061294555664,-2.4430718421936035,1.428515076637268
1771681490074252300,11.988252197265625,8.97787094116211,0.2392822653055191,0.794417142868042
1771681490084610300,11.9986103515625,11.145768165588379,2.3712873458862305,0.23688943684101105
1771681490094968000,12.008968017578125,10.095318794250488,1.3639088869094849,-0.09571290761232376
1771681490105325800,12.019325927734375,9.456435203552246,-0.5910272002220154,0.22492532432079315
1771681490115683800,12.029683837890625,9.229117393493652,-0.7178468108177185,0.6269195079803467
1771681490126041600,12.04004150390625,10.427921295166016,0.9379864931106567,0.7010970115661621
1771681490136399600,12.050399658203125,9.719645500183105,1.5002998113632202,0.9116654396057129
1771681490146757400,12.06075732421875,10.470992088317871,1.215553879737854,0.6580262184143066
1771681490157115400,12.071115478515624,9.164510726928711,-0.13878370821475983,0.638883650302887
1771681490167473200,12.08147314453125,9.506684303283691,-0.363709032535553,0.363709032535553
1771681490177831000,12.091830810546876,9.135796546936035,0.5575276613235474,0.28235307335853577
1771681490188189000,12.10218896484375,10.731809616088867,2.256431818008423,0.04546362906694412
1771681490198546700,12.112546630859375,9.430113792419434,0.6771687865257263,0.3397808074951172
1771681490208904700,12.12290478515625,9.872786521911621,0.20817556977272034,0.851844847202301
1771681490219262500,12.133262451171875,8.930013656616211,-0.5312066078186035,1.1437692642211914
1771681490229620200,12.1436201171875,10.248459815979004,1.3280165195465088,0.6484549641609192
1771681490239978200,12.153978271484375,9.198010444641113,1.3926228284835815,0.4091726839542389
1771681490250336000,12.1643359375,9.951749801635742,0.7585247755050659,-0.031106693670153618
1771681490260693800,12.17469384765625,8.583054542541504,0.4019941985607147,0.5359922647476196
1771681490271051800,12.1850517578125,9.80817985534668,0.27038896083831787,0.641276478767395
1771681490281409500,12.195409423828124,9.22433090209961,0.6245267391204834,1.3304094076156616
1771681490291767600,12.205767578125,10.461421012878418,0.9332008361816406,1.0217353105545044
1771681490302125300,12.216125244140626,9.31047248840332,0.11964113265275955,0.9786644577980042
1771681490312483000,12.226483154296876,9.990034103393555,0.9810572862625122,0.519242525100708
1771681490322841000,12.236841064453126,9.351150512695312,0.47617170214653015,0.8087740540504456
1771681490333198800,12.24719873046875,9.561718940734863,0.1746760457754135,0.34695929288864136
1771681490343556900,12.257556884765625,9.198010444641113,-0.20578274130821228,1.0887342691421509
1771681490353914600,12.26791455078125,10.279565811157227,0.851844847202301,0.39481574296951294
1771681490364272600,12.278272705078125,9.556933403015137,0.38763725757598877,0.5312066078186035
1771681490374630400,12.28863037109375,10.74855899810791,0.5575276613235474,-0.05024927482008934
1771681490384988200,12.29898828125,8.81515884399414,0.2632105052471161,0.605384111404419
1771681490395346200,12.30934619140625,10.250852584838867,-0.02871387079358101,0.5407779216766357
1771681490405704000,12.319703857421874,9.358329772949219,0.5623133182525635,0.8159525394439697
1771681490416061700,12.330061767578124,9.927821159362793,0.031106693670153618,0.6939185857772827
1771681490426419700,12.340419677734374,10.152746200561523,0.5072783827781677,0.33738797903060913
1771681490436777500,12.350777587890626,9.80817985534668,0.9810572862625122,0.14117653667926788
1771681490447135500,12.361135498046876,10.210174560546875,0.2584248483181,0.21774685382843018
1771681490457493200,12.3714931640625,9.489934921264648,-0.16271193325519562,0.38285163044929504
1771681490467851000,12.38185107421875,10.789237022399902,0.916451096534729,0.6125625967979431
1771681490478209000,12.392208984375,9.695717811584473,0.8135597109794617,0.16510476171970367
1771681490488566800,12.40256689453125,10.116853713989258,1.0504491329193115,0.11246266216039658
1771681490498924800,12.4129248046875,10.04985523223877,0.15074782073497772,-0.16271193325519562
1771681490509282600,12.423282470703125,9.755537986755371,0.37806597352027893,-0.014356935396790504
1771681490519640300,12.433640380859375,10.147960662841797,0.9619147181510925,0.3517449200153351
1771681490529998300,12.443998291015625,10.774880409240723,1.730010747909546,0.2991028428077698
1771681490540356000,12.454356201171874,9.860821723937988,0.05503492057323456,0.20099709928035736
1771681490550713900,12.4647138671875,10.619346618652344,0.607776939868927,0.4378865361213684
1771681490561071900,12.47507177734375,9.743574142456055,0.17228323221206665,0.7010970115661621
1771681490571429600,12.4854296875,10.059426307678223,0.5551348328590393,0.7728816866874695
1771681490581787600,12.49578759765625,9.56650447845459,1.2179467678070068,0.8135597109794617
1771681490592145400,12.5061455078125,10.554740905761719,1.1365907192230225,0.2512463629245758
1771681490602503200,12.516503173828125,9.844072341918945,0.8207381963729858,0.19142581522464752
1771681490612861200,12.526861083984375,9.640682220458984,0.794417142868042,0.12921242415905
1771681490623219000,12.537218994140625,9.891928672790527,-0.5312066078186035,0.43549370765686035
1771681490633577000,12.547576904296875,9.516255378723145,0.6005984544754028,0.8063812255859375
1771681490643934700,12.557934814453125,10.29153060913086,1.062413215637207,0.916451096534729
1771681490654292700,12.568292724609375,10.224531173706055,0.5575276613235474,0.8255237936973572
1771681490664650500,12.578650390625,9.611968994140625,0.5407779216766357,0.7130611538887024
1771681490675008300,12.58900830078125,9.628718376159668,0.32303106784820557,0.550349235534668
1771681490685366300,12.5993662109375,9.820143699645996,0.44745782017707825,0.8422735929489136
1771681490695724000,12.60972412109375,9.66939640045166,1.074377417564392,0.97148597240448
1771681490706081800,12.620081787109376,9.882357597351074,0.45224347710609436,0.8039883971214294
1771681490716439800,12.630439697265626,9.913464546203613,1.155733346939087,0.45942193269729614
1771681490726797600,12.640797607421876,9.643074989318848,0.4043870270252228,0.3565305769443512
1771681490737155600,12.651155517578125,9.489934921264648,-0.02153540402650833,0.5647061467170715
1771681490747513300,12.661513427734375,9.7938232421875,0.8159525394439697,0.763310432434082
1771681490757871000,12.67187109375,9.829715728759766,0.8470591902732849,0.6364908218383789
1771681490768229000,12.68222900390625,9.970891952514648,0.9427721500396729,0.11964113265275955
1771681490778587000,12.6925869140625,9.906285285949707,0.7417750358581543,0.3206382393836975
1771681490788944600,12.702944580078125,9.20279598236084,0.27756741642951965,0.3038884699344635
1771681490799302700,12.713302734375,9.628718376159668,0.6245267391204834,0.7800601720809937
1771681490809660400,12.723660400390624,9.767501831054688,1.7252250909805298,0.7752745151519775
1771681490820018400,12.734018310546874,9.4061861038208,0.5479564070701599,0.5814558863639832
1771681490830376200,12.744376220703124,9.597611427307129,0.6029912829399109,0.4211367964744568
1771681490840734000,12.75473388671875,9.19561767578125,0.5742774605751038,0.4546363055706024
1771681490851092000,12.765092041015626,9.7005033493042,0.2847459018230438,0.4307080805301666
1771681490861449700,12.77544970703125,9.810572624206543,0.7968099117279053,0.32542386651039124
1771681490871807700,12.785807861328125,10.191031455993652,1.2562319040298462,0.15314064919948578
1771681490882165500,12.79616552734375,9.89432144165039,0.5479564070701599,0.32303106784820557
1771681490892523300,12.806523193359375,9.592825889587402,0.2967100143432617,0.24167509377002716
1771681490902881300,12.81688134765625,9.573683738708496,0.02153540402650833,0.9379864931106567
1771681490913239000,12.827239013671875,9.767501831054688,0.3038884699344635,0.8757730722427368
1771681490923597000,12.83759716796875,9.116654396057129,1.1820544004440308,0.24406790733337402
1771681490933954800,12.847954833984375,10.28195858001709,0.7082754969596863,0.1746760457754135
1771681490944312600,12.8583125,9.506684303283691,0.7537391185760498,-0.2679961323738098
1771681490954670600,12.868670654296874,9.257830619812012,0.1746760457754135,0.0933200865983963
1771681490965028400,12.8790283203125,9.985248565673828,0.1052841991186142,0.2584248483181
1771681490975386400,12.889386474609376,9.982855796813965,1.246660590171814,0.22971096634864807
1771681490985744100,12.899744140625,9.913464546203613,0.4211367964744568,0.763310432434082
1771681490996102000,12.910101806640625,10.432706832885742,0.7872386574745178,0.40677985548973083
1771681491006460000,12.9204599609375,9.267401695251465,0.08374879509210587,0.20817556977272034
1771681491016817700,12.930817626953125,9.757930755615234,-0.14835500717163086,0.35892340540885925
1771681491027175400,12.941175537109375,9.686145782470703,1.7635103464126587,0.3684946894645691
1771681491037533400,12.951533447265625,10.076175689697266,0.7465606927871704,0.25363919138908386
1771681491047891200,12.96189111328125,10.17428207397461,0.727418065071106,0.5838487148284912
1771681491058249200,12.972249267578125,9.846465110778809,0.4785645306110382,0.7920243144035339
1771681491068607000,12.98260693359375,10.100104331970215,-0.2225325107574463,0.9308080077171326
1771681491078964700,12.99296484375,9.987641334533691,1.1030912399291992,0.916451096534729
1771681491089322800,13.00332275390625,10.691131591796875,1.2969099283218384,0.605384111404419
1771681491099680500,13.013680419921876,9.745966911315918,0.5647061467170715,0.30628129839897156
1771681491110038300,13.024038330078126,9.923035621643066,0.2273181527853012,0.12681959569454193
1771681491120396300,13.034396240234376,9.844072341918945,0.13639089465141296,0.6029912829399109
1771681491130754000,13.044754150390625,9.836894035339355,0.8303094506263733,0.9403793215751648
1771681491141112000,13.055112060546875,10.255638122558594,1.3040883541107178,1.1102696657180786
1771681491151469800,13.0654697265625,10.085747718811035,0.4570291340351105,0.973878800868988
1771681491161827800,13.075827880859375,10.061819076538086,0.5527420043945312,0.4977070987224579
1771681491172185600,13.086185546875,9.762716293334961,-0.1339980661869049,0.5024927258491516
1771681491182543400,13.09654345703125,10.006784439086914,0.31106695532798767,0.6843472719192505
1771681491192901400,13.1069013671875,10.262816429138184,1.3950155973434448,0.6604190468788147
1771681491203259100,13.117259033203124,10.229316711425781,0.6005984544754028,0.6652047038078308
1771681491213617000,13.127616943359374,10.133604049682617,0.4019941985607147,0.5910272002220154
1771681491223975000,13.137974853515624,9.485149383544922,0.1052841991186142,0.8279166221618652
1771681491234332700,13.148332763671876,10.248459815979004,0.5000999569892883,0.97148597240448
1771681491244690700,13.158690673828126,9.750752449035645,1.423729419708252,0.5742774605751038
1771681491255048400,13.16904833984375,9.712467193603516,0.727418065071106,0.2392822653055191
1771681491265406200,13.17940625,9.798608779907227,0.7920243144035339,0
1771681491275764200,13.18976416015625,9.10229778289795,-0.009571290574967861,0.16749759018421173
1771681491286122000,13.2001220703125,9.710074424743652,0.8805587291717529,0.47617170214653015
1771681491296479700,13.210479736328125,10.045069694519043,1.794616937637329,0.6221339106559753
1771681491306837800,13.220837646484375,9.399007797241211,0.13160525262355804,0.7824530005455017
1771681491317195500,13.231195556640625,9.604789733886719,1.34476637840271,0.24885354936122894
1771681491327553500,13.241553466796875,8.934800148010254,0.0933200865983963,0.30149564146995544
1771681491337911300,13.251911376953124,9.226723670959473,0.3900300860404968,-0.02871387079358101
1771681491348269000,13.26226904296875,9.437292098999023,1.892722725868225,0.20817556977272034
1771681491358627000,13.272626953125,10.100104331970215,1.2993026971817017,-0.2991028428077698
1771681491368984800,13.28298486328125,9.040083885192871,0.349352091550827,-0.035892341285943985
1771681491379342800,13.2933427734375,9.336793899536133,0.02153540402650833,0.48813581466674805
1771681491389700600,13.30370068359375,9.829715728759766,1.1653046607971191,0.5407779216766357
1771681491400058400,13.314058349609375,9.518648147583008,1.129412293434143,0.49292147159576416
1771681491410416400,13.32441650390625,9.76989459991455,0.5096712112426758,0.15553347766399384
1771681491420774100,13.334774169921875,9.750752449035645,1.0456634759902954,-0.1052841991186142
