time,seconds_elapsed,z,y,x
1771681478201634000,0.115634033203125,0,0,0
1771681478222349800,0.136349853515625,-0.06302642822265625,0.4130798578262329,0.009802758693695068
1771681478232707600,0.14670751953125,-0.1945629119873047,-0.40505272150039673,-0.11401110887527466
1771681478243065600,0.157065673828125,0.40326595306396484,0.1704963594675064,-0.10085982084274292
1771681478253423400,0.16742333984375,-0.01300048828125,0.9828452467918396,0.0680350661277771
1771681478263781400,0.177781494140625,0.14660167694091797,-0.7315025329589844,0.16788846254348755
1771681478284497200,0.1984970703125,0.2940502166748047,0.15090787410736084,-0.03337752819061279
1771681478294855000,0.20885498046875,0.07932281494140625,-0.28554046154022217,0.3000964820384979
1771681478325928700,0.2399287109375,0.16673564910888672,-0.23603111505508423,-0.46640509366989136
1771681478336286700,0.25028662109375,0.4413890838623047,0.002996504306793213,-0.06382530927658081
1771681478346644500,0.26064453125,-0.2536172866821289,0.27024245262145996,0.12857896089553833
1771681478357002500,0.27100244140625,0.4082298278808594,0.8006295561790466,0.19276192784309387
1771681478367360300,0.2813603515625,-0.42206287384033203,-1.896163821220398,0.21771055459976196
1771681478377718300,0.29171826171875,0.1776409149169922,1.6502383947372437,-0.3391735553741455
1771681478388076000,0.302075927734375,0.35416316986083984,-1.1830912828445435,-0.14705494046211243
1771681478398434000,0.31243408203125,-0.46141529083251953,0.7225082516670227,-0.17898710072040558
1771681478408791800,0.322791748046875,0.5131187438964844,-0.6032713055610657,0.09144547581672668
1771681478419149800,0.33314990234375,0.07184696197509766,-0.013832062482833862,-0.16027581691741943
1771681478429507600,0.343507568359375,-0.7758617401123047,-0.253000408411026,0.2040761411190033
1771681478439865600,0.353865478515625,0.11412715911865234,-0.3185408115386963,0.2018088400363922
1771681478450223400,0.364223388671875,-0.42104625701904297,0.5051516890525818,-0.22262269258499146
1771681478460581400,0.374581298828125,-0.37261295318603516,-1.0562119483947754,-0.012055128812789917
1771681478470939100,0.384939208984375,-0.24355602264404297,1.2588030099868774,-0.3281725347042084
1771681478481297200,0.395297119140625,0.11359786987304688,0.28157469630241394,-0.01750907301902771
1771681478491655000,0.405655029296875,-0.4216146469116211,-0.16275453567504883,-0.04169374704360962
1771681478502013000,0.416012939453125,-0.3658714294433594,-0.757307767868042,0.14616361260414124
1771681478512370700,0.42637060546875,-0.0853872299194336,0.9384827017784119,0.22568738460540771
1771681478522728700,0.436728759765625,0.02861309051513672,-0.04878431558609009,-0.28564056754112244
1771681478533086500,0.44708642578125,-0.5893659591674805,-0.3476349413394928,-0.1789012998342514
1771681478543444500,0.457444580078125,-0.30023193359375,-0.06882639974355698,-0.14018860459327698
1771681478553802200,0.46780224609375,-0.25436878204345703,-0.03770551085472107,0.3432278633117676
1771681478564160300,0.47816015625,0.038887977600097656,0.4164639115333557,0.3304705023765564
1771681478574518000,0.48851806640625,-0.0063228607177734375,-0.04226154088973999,-0.026860147714614868
1771681478584876000,0.4988759765625,-0.7073917388916016,-0.001881927251815796,-0.19026128947734833
1771681478595233800,0.50923388671875,-0.029374122619628906,0.22146201133728027,0.286462664604187
1771681478605591800,0.519591796875,-0.23390579223632812,0.25106337666511536,0.24574607610702515
1771681478615949800,0.52994970703125,0.3157968521118164,-0.2335483431816101,0.049099355936050415
1771681478626307600,0.5403076171875,-0.780181884765625,-0.16219918429851532,0.023373305797576904
1771681478636665600,0.55066552734375,0.21261215209960938,-0.19598132371902466,0.19248813390731812
1771681478647023400,0.5610234375,-0.243499755859375,1.003794550895691,0.056148260831832886
1771681478657381400,0.57138134765625,-0.0509185791015625,-0.7399811744689941,0.08275291323661804
1771681478667739100,0.5817392578125,-0.026375770568847656,0.49332743883132935,0.05930548906326294
1771681478678097200,0.59209716796875,-0.10782241821289062,-0.460330069065094,0.4028783142566681
1771681478688455000,0.602454833984375,0.5504865646362305,0.6179702281951904,-0.30448824167251587
1771681478698813000,0.61281298828125,-1.0453729629516602,-0.12984879314899445,0.2634366750717163
1771681478709170700,0.623170654296875,0.8491859436035156,-0.21393363177776337,-0.02141094207763672
1771681478719528700,0.63352880859375,-0.2020730972290039,0.06744877994060516,0.34381812810897827
1771681478729886500,0.643886474609375,0.8883628845214844,-0.32550808787345886,0.20846432447433472
1771681478740244500,0.654244384765625,-0.14969444274902344,-0.026085272431373596,-0.05480453372001648
1771681478750602200,0.664602294921875,0.7760152816772461,0.18577872216701508,-0.11192503571510315
1771681478760960300,0.674960205078125,-0.38695335388183594,-0.47316643595695496,-0.2780933380126953
1771681478771318000,0.685318115234375,0.12051200866699219,0.43723925948143005,0.023502320051193237
1771681478781676000,0.695676025390625,-0.47640323638916016,-0.49929842352867126,0.4095105826854706
1771681478792033800,0.70603369140625,0.30548954010009766,0.4612823724746704,-0.17378327250480652
1771681478802391800,0.716391845703125,-0.3324775695800781,-0.2241552472114563,-0.12073969841003418
1771681478812749600,0.72674951171875,0.3766355514526367,0.2943481504917145,-0.4699726104736328
1771681478823107600,0.737107666015625,-0.26738548278808594,0.17663276195526123,0.11716985702514648
1771681478833465300,0.74746533203125,0.1725015640258789,-0.6507177352905273,-0.1160944402217865
1771681478843823400,0.7578232421875,-0.5013666152954102,0.5461727976799011,-0.01049688458442688
1771681478854181000,0.76818115234375,0.467498779296875,-0.24457059800624847,-0.36859196424484253
1771681478864539100,0.7785390625,0.010320663452148438,0.18765993416309357,-0.3418283760547638
1771681478874897000,0.78889697265625,-0.09118175506591797,-0.04625995457172394,-0.3551238179206848
1771681478885255000,0.7992548828125,-0.3939056396484375,-0.015421897172927856,0.3626439869403839
1771681478895612700,0.80961279296875,-0.1571054458618164,0.3597290813922882,0.13891777396202087
1771681478905970700,0.819970703125,-0.15959453582763672,-0.6690348982810974,0.1168515682220459
1771681478916328400,0.830328369140625,0.30966949462890625,0.5646668672561646,-0.46213051676750183
1771681478926686500,0.8406865234375,-0.03906822204589844,-0.30590352416038513,-0.27221184968948364
1771681478937044200,0.851044189453125,0.14273357391357422,0.2634875178337097,-0.22923336923122406
1771681478947402200,0.86140234375,0.08382225036621094,-0.34565263986587524,0.1901129186153412
1771681478957760000,0.871760009765625,0.3271064758300781,-0.06970657408237457,-0.0029156506061553955
1771681478968118000,0.882117919921875,-0.34664058685302734,0.3386029601097107,-0.3685816824436188
1771681478978475800,0.892475830078125,-0.17855548858642578,-0.4201938509941101,-0.015401899814605713
1771681478988833800,0.902833740234375,-0.13562297821044922,0.4922340214252472,-0.004516929388046265
1771681478999191600,0.913191650390625,0.38893699645996094,-0.33240190148353577,0.24382945895195007
1771681479009549600,0.923549560546875,-0.031683921813964844,0.004386097192764282,-0.11245265603065491
1771681479019907600,0.933907470703125,0.3899679183959961,0.26044028997421265,0.23906180262565613
1771681479030265300,0.944265380859375,0.31050872802734375,-0.23110997676849365,-0.2562097907066345
1771681479040623400,0.954623291015625,-0.2946891784667969,0.4403279721736908,-0.17579472064971924
1771681479050981000,0.964981201171875,-0.2874460220336914,-0.20023535192012787,0.06780099868774414
1771681479061339100,0.975339111328125,-0.20032310485839844,0.04511067271232605,0.4979252517223358
1771681479071697000,0.98569677734375,-0.6064300537109375,0.11966843903064728,0.13277310132980347
1771681479082054700,0.9960546875,0.06716156005859375,-0.5839120149612427,0.04472148418426514
1771681479092412700,1.00641259765625,0.2919025421142578,0.9128308296203613,-0.48253342509269714
1771681479102770400,1.0167705078125,-0.0871114730834961,-0.4508425295352936,-0.09952360391616821
1771681479113128400,1.02712841796875,0.053154945373535156,0.5257827043533325,-0.13279202580451965
1771681479123486200,1.037486328125,-0.3218841552734375,-0.5208088159561157,0.35034215450286865
1771681479133844200,1.04784423828125,-0.03415679931640625,0.251910924911499,0.12109324336051941
1771681479144202000,1.058201904296875,-0.39598655700683594,0.012481242418289185,-0.1834096610546112
1771681479154560000,1.06856005859375,0.3235921859741211,0.11797009408473969,-0.28938478231430054
1771681479164917800,1.078917724609375,-1.0135936737060547,-0.11700310558080673,-0.3403536081314087
1771681479175275800,1.08927587890625,0.6880502700805664,0.15987099707126617,0.11387389898300171
1771681479185633500,1.099633544921875,-0.6410703659057617,-0.0872635543346405,-0.13037148118019104
1771681479195991600,1.109991455078125,0.2331829071044922,-0.18017689883708954,0.00041866302490234375
1771681479206349300,1.120349365234375,-0.4648151397705078,0.4017091393470764,-0.258594274520874
1771681479216707300,1.130707275390625,0.3123798370361328,-0.21674591302871704,-0.39161649346351624
1771681479227065300,1.1410654296875,-0.2527780532836914,0.012628301978111267,-0.37213876843452454
1771681479237423000,1.151423095703125,0.4550056457519531,0.11576484143733978,0.463731050491333
1771681479247781000,1.161781005859375,0.165130615234375,0.12108074128627777,0.17675796151161194
1771681479258139000,1.172138916015625,-0.2234640121459961,-0.26447415351867676,0.39165738224983215
1771681479268497000,1.182496826171875,-0.022050857543945312,-0.08601400256156921,-0.36408475041389465
1771681479278854700,1.192854736328125,0.2630796432495117,0.2708345651626587,0.14639496803283691
1771681479289212400,1.20321240234375,-0.3930215835571289,-0.10079880803823471,-0.033620685338974
1771681479299570400,1.2135703125,0.3053398132324219,-0.13714070618152618,0.07896485924720764
1771681479309928200,1.22392822265625,0.26970958709716797,0.07232265174388885,0.3094269037246704
1771681479320286200,1.2342861328125,0.1593799591064453,-0.3834952712059021,0.36223655939102173
1771681479330644000,1.24464404296875,-0.1773834228515625,0.47205448150634766,-0.22980013489723206
1771681479341002000,1.255001953125,0.63739013671875,-0.24919286370277405,-0.11635878682136536
1771681479351359700,1.26535986328125,-0.8296737670898438,-0.311481237411499,0.28986072540283203
1771681479361717800,1.2757177734375,0.683018684387207,0.3613210916519165,0.524423360824585
1771681479372075500,1.286075439453125,-0.08362960815429688,0.26760441064834595,0.46591517329216003
1771681479382433500,1.29643359375,-0.24692821502685547,-0.9395372867584229,0.3568629026412964
1771681479392791300,1.306791259765625,0.41605186462402344,0.6560470461845398,0.06591644883155823
1771681479403149300,1.3171494140625,0.15262699127197266,0.33678972721099854,-0.1888543963432312
1771681479413507000,1.327507080078125,0.20894432067871094,-0.38017332553863525,-0.004946857690811157
1771681479423865000,1.337864990234375,-0.9145774841308594,-0.4289093017578125,0.3682100474834442
1771681479434222800,1.348222900390625,1.1971569061279297,0.6058290600776672,0.5949099063873291
1771681479444580900,1.358580810546875,-0.22047805786132812,-0.23501744866371155,0.09640362858772278
1771681479454938600,1.368938720703125,-0.15562915802001953,-0.2744136452674866,-0.14233723282814026
1771681479465296600,1.379296630859375,0.14810752868652344,0.4540349245071411,0.30116018652915955
1771681479475654400,1.389654296875,0.5291652679443359,0.2790079712867737,-0.08712461590766907
1771681479486012400,1.400012451171875,-0.7949810028076172,-0.5944696068763733,0.32003945112228394
1771681479496370200,1.4103701171875,-0.09704113006591797,0.134549081325531,0.21898925304412842
1771681479506728200,1.420728271484375,-0.09543895721435547,0.34812796115875244,0.17362061142921448
1771681479517086000,1.4310859375,0.16260147094726562,0.5810681581497192,0.1764940321445465
1771681479527444000,1.44144384765625,0.3702354431152344,1.6329624652862549,-0.5647006034851074
1771681479537801700,1.4518017578125,-0.39246463775634766,-1.730029582977295,-0.29355043172836304
1771681479548159700,1.46215966796875,-1.0661849975585938,-0.4433666169643402,-0.22225743532180786
1771681479558517500,1.472517578125,0.4070091247558594,1.6081559658050537,0.3324749767780304
1771681479568875500,1.48287548828125,1.2517433166503906,1.8093538284301758,0.4114079177379608
1771681479579233300,1.4932333984375,-0.4557781219482422,-1.2349799871444702,0.5241986513137817
1771681479589591300,1.50359130859375,-1.35498046875,-1.619480848312378,-0.216467022895813
1771681479599949000,1.513948974609375,0.05156707763671875,1.7332253456115723,-0.29400327801704407
1771681479610307000,1.52430712890625,0.7423362731933594,1.1476024389266968,0.20427051186561584
1771681479620664800,1.534664794921875,-0.18953227996826172,0.10744351148605347,0.1806555986404419
1771681479631022800,1.54502294921875,-0.6705055236816406,-0.0008223354816436768,-0.02031993865966797
1771681479641380600,1.555380615234375,-0.1264781951904297,-0.4318423271179199,0.0314657986164093
1771681479651738600,1.565738525390625,-0.08763694763183594,0.4448933005332947,0.13052332401275635
1771681479662096400,1.576096435546875,0.1434011459350586,0.6332631707191467,-0.39148709177970886
1771681479672454400,1.586454345703125,0.12573623657226562,0.8653008937835693,-0.14025795459747314
1771681479682812200,1.596812255859375,0.30779361724853516,0.40760284662246704,-0.04329362511634827
1771681479693170200,1.607170166015625,-0.5046787261962891,-0.7486273646354675,0.4143943786621094
1771681479703528000,1.61752783203125,-0.2326831817626953,0.38177236914634705,0.2696751356124878
1771681479713886000,1.627885986328125,-0.031500816345214844,1.7142479419708252,-0.46549102663993835
1771681479724243700,1.63824365234375,-0.19766998291015625,0.7805413007736206,-0.2314753532409668
1771681479734601700,1.648601806640625,-0.3508424758911133,-0.32291820645332336,-0.22484125196933746
1771681479744959500,1.65895947265625,-0.4697408676147461,-0.5947635769844055,-0.4388105571269989
1771681479755317500,1.6693173828125,0.6861963272094727,1.3057782649993896,0.1515393853187561
1771681479765675300,1.67967529296875,0.04934883117675781,0.3582620322704315,0.17020219564437866
1771681479776033000,1.690032958984375,-0.05088329315185547,-0.016971588134765625,-0.3027023375034332
1771681479786391000,1.70039111328125,-0.21699810028076172,-0.2162867784500122,-0.38335853815078735
1771681479796748800,1.710748779296875,-0.0943613052368164,0.3174835443496704,-0.43048134446144104
1771681479807106800,1.72110693359375,-0.40042591094970703,-0.10966046154499054,0.20615509152412415
1771681479817464600,1.731464599609375,-0.026909828186035156,-0.14190588891506195,-0.16296476125717163
1771681479827822600,1.741822509765625,-0.7781143188476562,-0.37325772643089294,0.13298574090003967
1771681479838180600,1.7521806640625,0.7794599533081055,0.6502885818481445,-0.05165797472000122
1771681479848538400,1.762538330078125,-0.2003774642944336,-0.4678610563278198,0.04148861765861511
1771681479858896100,1.772896240234375,0.15517807006835938,-0.2360917031764984,-0.03990679979324341
1771681479869254100,1.783254150390625,0.15419387817382812,0.10631641745567322,0.16719096899032593
1771681479879612000,1.79361181640625,0.26025390625,-0.20022401213645935,-0.3360360264778137
1771681479889970000,1.803969970703125,-0.41913318634033203,-0.08663292229175568,-0.03468877077102661
1771681479900327700,1.81432763671875,0.8034944534301758,0.4855358302593231,-0.5299661159515381
1771681479910685700,1.824685791015625,-0.6117219924926758,-0.23963727056980133,-0.30656707286834717
1771681479921043500,1.83504345703125,-0.35829734802246094,-0.18069763481616974,0.15119868516921997
1771681479931401500,1.8454013671875,0.2598991394042969,0.3112093210220337,0.698893666267395
1771681479941759200,1.85575927734375,0.42490100860595703,-0.3177579641342163,0.0916047990322113
1771681479952117200,1.8661171875,-0.27456092834472656,-0.4701082706451416,0.16908729076385498
1771681479962475000,1.87647509765625,0.6286506652832031,0.09689298272132874,-0.2467970848083496
1771681479972833000,1.8868330078125,0.10878181457519531,0.1942049264907837,0.11343607306480408
1771681479983190800,1.897190673828125,-0.017911911010742188,-0.5656704902648926,0.18355229496955872
1771681479993548800,1.907548828125,0.14396953582763672,-0.12989556789398193,0.46825137734413147
1771681480003906600,1.917906494140625,-0.013895988464355469,0.5532520413398743,0.2450186014175415
1771681480014264600,1.9282646484375,0.6071252822875977,0.4090781509876251,0.09017536044120789
1771681480024622300,1.938622314453125,-0.3670692443847656,0.027606546878814697,-0.02377060055732727
1771681480034980000,1.94897998046875,-0.11046218872070312,-0.24515113234519958,0.6565018892288208
1771681480045338000,1.959338134765625,0.1519021987915039,0.9773433208465576,0.34703293442726135
1771681480055696100,1.969696044921875,0.8529624938964844,1.3753143548965454,-0.0026597976684570312
1771681480066054000,1.980053955078125,0.11538410186767578,-0.709651529788971,-0.3256787061691284
1771681480076412000,1.990411865234375,-0.08748626708984375,0.38104772567749023,0.11780688166618347
1771681480086769700,2.000769775390625,0.5674819946289062,0.18762582540512085,0.22777709364891052
1771681480097127700,2.011127685546875,0.3193836212158203,1.3349051475524902,0.06975120306015015
1771681480107485400,2.0214853515625,-0.8675069808959961,0.4582977294921875,0.39738863706588745
1771681480117843200,2.03184326171875,0.4748096466064453,0.6858398914337158,0.00015550851821899414
1771681480128201200,2.042201171875,-1.6435508728027344,0.12970367074012756,0.04227897524833679
1771681480138559000,2.05255908203125,0.3026857376098633,-0.21156924962997437,-0.4744473397731781
1771681480148917000,2.0629169921875,-1.303116798400879,0.31113502383232117,0.15984100103378296
1771681480159274800,2.073274658203125,0.1295337677001953,0.7126510739326477,-0.08813473582267761
1771681480169632800,2.0836328125,-0.4424276351928711,0.25555941462516785,-0.28878873586654663
1771681480179990500,2.093990478515625,0.05023956298828125,0.2534344494342804,-0.3106235861778259
1771681480190348500,2.1043486328125,-0.9046411514282227,-0.18860572576522827,0.0880192220211029
1771681480200706300,2.114706298828125,-0.1263561248779297,-0.09007704257965088,-0.19005760550498962
1771681480211064300,2.125064208984375,-0.9113912582397461,0.9062156677246094,0.4505457580089569
1771681480221422000,2.135422119140625,-1.116368293762207,-0.35599789023399353,0.016489028930664062
1771681480231780000,2.145780029296875,-0.27042484283447266,0.730522871017456,-0.01590701937675476
1771681480242137900,2.156137939453125,-0.5930070877075195,-0.05862325429916382,-0.5474822521209717
1771681480252496000,2.166495849609375,-0.1949443817138672,0.020051896572113037,-0.3841458857059479
1771681480262853600,2.176853515625,-0.7226781845092773,-0.08027899265289307,0.11955860257148743
1771681480273211600,2.187211669921875,0.9783859252929688,1.2867825031280518,-0.10635179281234741
1771681480283569400,2.1975693359375,0.06624698638916016,0.43035760521888733,-0.29261672496795654
1771681480293927400,2.207927490234375,0.12771892547607422,-0.3678123354911804,-0.07814788818359375
1771681480304285200,2.21828515625,-0.2634906768798828,0.31151342391967773,0.008817553520202637
1771681480314643200,2.228643310546875,0.19965267181396484,0.925553023815155,0.031136751174926758
1771681480325001000,2.2390009765625,0.3367338180541992,1.2245690822601318,-0.09001770615577698
1771681480335358700,2.249358642578125,0.558873176574707,0.4221501648426056,-0.42233556509017944
1771681480345716700,2.259716796875,0.5156831741333008,0.5659244060516357,0.055958062410354614
1771681480356074500,2.270074462890625,0.26550960540771484,-0.16281479597091675,0.03262731432914734
1771681480366432500,2.2804326171875,0.01658916473388672,0.2349463403224945,0.39245346188545227
1771681480376790300,2.290790283203125,0.6761674880981445,1.9362468719482422,0.09830993413925171
1771681480387148300,2.301148193359375,0.7253561019897461,1.3266234397888184,-0.23725183308124542
1771681480397506000,2.311506103515625,0.27901268005371094,-0.14512449502944946,-0.8316410779953003
1771681480407864000,2.321864013671875,-0.6582307815551758,-0.007335036993026733,-0.42298683524131775
1771681480418221800,2.332221923828125,0.1046600341796875,0.15369263291358948,-0.12403944134712219
1771681480428579800,2.342579833984375,-0.4626340866088867,1.8026823997497559,0.6765139102935791
1771681480438937600,2.3529375,0.21827411651611328,1.0897470712661743,0.23085030913352966
1771681480449295600,2.363295654296875,-0.2757139205932617,0.17420852184295654,0.010015040636062622
1771681480459653400,2.3736533203125,-0.7865962982177734,0.12842142581939697,-0.5063772201538086
1771681480470011100,2.38401123046875,0.36512279510498047,-0.2891005277633667,-0.46217507123947144
1771681480480369200,2.394369140625,-0.69415283203125,0.9535589218139648,0.17123034596443176
1771681480490727200,2.40472705078125,0.047364234924316406,1.37409508228302,0.2063991129398346
1771681480501085000,2.4150849609375,-0.5936756134033203,0.4806129038333893,-0.09959706664085388
1771681480511443000,2.42544287109375,-0.6196355819702148,0.1508697271347046,0.02888619899749756
1771681480521800700,2.43580078125,-0.40729236602783203,-0.21081794798374176,-0.06418618559837341
1771681480532158500,2.446158447265625,-0.00292205810546875,0.35125818848609924,0.3880690336227417
1771681480542516500,2.4565166015625,-0.41034507751464844,1.3900783061981201,0.3671411871910095
1771681480552874200,2.466874267578125,-0.10370349884033203,0.7070797085762024,-0.055988460779190063
1771681480563232300,2.477232177734375,0.12304115295410156,0.5653156042098999,-0.7096715569496155
1771681480573590000,2.487590087890625,-0.7137842178344727,-0.8245782852172852,-0.16826535761356354
1771681480583948000,2.497947998046875,0.4948406219482422,0.7544540166854858,-0.13504013419151306
1771681480594305800,2.508305908203125,0.6475372314453125,2.3804092407226562,0.33843398094177246
1771681480604663800,2.518663818359375,-0.5799589157104492,-0.3089722692966461,0.4878416061401367
1771681480615021600,2.529021484375,0.5304365158081055,0.574609637260437,0.017801940441131592
1771681480625379600,2.539379638671875,-0.8299760818481445,-0.39906081557273865,0.23958036303520203
1771681480635737300,2.5497373046875,0.00036144256591796875,0.6246935129165649,-0.3910543918609619
1771681480646095400,2.560095458984375,0.34342002868652344,1.7877928018569946,-0.42688748240470886
1771681480656453000,2.570453125,0.9996623992919922,0.598766565322876,-0.23343853652477264
1771681480666811000,2.580810791015625,-0.30075740814208984,0.2650254964828491,-0.3065704107284546
1771681480677169000,2.5911689453125,0.18192100524902344,-0.9878482818603516,0.26053285598754883
1771681480687527000,2.60152685546875,-0.1452350616455078,1.2100566625595093,0.2780958116054535
1771681480697884700,2.611884765625,1.0301618576049805,1.805450677871704,0.11004337668418884
1771681480708242700,2.62224267578125,0.010811805725097656,0.42770442366600037,0.030171960592269897
1771681480718600400,2.632600341796875,-0.5181941986083984,0.2969823181629181,-0.6313296556472778
1771681480728958200,2.642958251953125,-0.8067913055419922,-0.5481799840927124,0.12418937683105469
1771681480739316200,2.653316162109375,0.3952798843383789,1.0525660514831543,0.2054446041584015
1771681480749674000,2.663674072265625,0.1577005386352539,2.740894317626953,0.7580372095108032
1771681480760032000,2.674031982421875,0.13556289672851562,-0.0768517255783081,0.15251609683036804
1771681480770389800,2.6843896484375,-0.3940391540527344,0.01615673303604126,0.06364479660987854
1771681480780747800,2.694747802734375,-0.6880836486816406,0.09768092632293701,-0.046962589025497437
1771681480791105500,2.70510546875,-0.025144577026367188,0.6692945957183838,-0.02359241247177124
1771681480801463600,2.715463623046875,-0.5232715606689453,2.493518352508545,-0.5633004307746887
1771681480811821300,2.7258212890625,0.4511232376098633,-0.012524425983428955,-0.4131048321723938
1771681480822179300,2.736179443359375,-0.8210678100585938,0.2962559163570404,0.010395169258117676
1771681480832537000,2.746537109375,-0.2792978286743164,-0.5354465246200562,0.43327954411506653
1771681480842895000,2.75689501953125,0.3867464065551758,1.3366882801055908,0.3545803427696228
1771681480853252900,2.7672529296875,-0.9473257064819336,2.030116558074951,0.016046464443206787
1771681480863610600,2.777610595703125,0.8414697647094727,-0.31366661190986633,-0.6052051186561584
1771681480873968600,2.78796875,-0.2368459701538086,0.21898746490478516,-0.2963320016860962
1771681480884326400,2.798326416015625,-0.5340566635131836,-0.752448558807373,0.03081527352333069
1771681480894684400,2.808684326171875,1.210402488708496,1.7738220691680908,0.11330392956733704
1771681480905042200,2.819042236328125,0.1352987289428711,1.4791522026062012,0.8224210739135742
1771681480915400200,2.829400146484375,0.14899253845214844,-0.5844117999076843,0.38582146167755127
1771681480925758000,2.839758056640625,-0.7027616500854492,-0.3394164741039276,0.5509539246559143
1771681480936116000,2.850115966796875,0.9422178268432617,0.5480818152427673,0.04872390627861023
1771681480946473700,2.8604736328125,0.037425994873046875,1.9143978357315063,-0.14824175834655762
1771681480956831700,2.870831787109375,0.7427196502685547,1.0282065868377686,-0.41128790378570557
1771681480967189500,2.881189453125,-0.10406970977783203,-0.5444823503494263,-0.25440722703933716
1771681480977547500,2.891547607421875,0.041594505310058594,-0.438060998916626,0.386627733707428
1771681480987905300,2.9019052734375,0.5753288269042969,0.2894187569618225,0.567895770072937
1771681480998263300,2.91226318359375,0.11293601989746094,2.476526975631714,0.6888530254364014
1771681481008621000,2.92262109375,-0.20000934600830078,-0.15300840139389038,0.22445133328437805
1771681481018978800,2.932978759765625,-0.7858314514160156,-0.32573068141937256,-0.9674298763275146
1771681481029336800,2.9433369140625,-0.4470396041870117,-0.18494251370429993,-0.0013721883296966553
1771681481039694600,2.953694580078125,0.3722991943359375,1.611362099647522,-0.3179294168949127
1771681481050052600,2.964052490234375,-0.47571372985839844,1.5241975784301758,0.3625694513320923
1771681481060410400,2.974410400390625,0.6488609313964844,-0.5476961135864258,-0.14511068165302277
1771681481070768400,2.984768310546875,-1.3969297409057617,0.03445681929588318,-0.026510387659072876
1771681481081126100,2.995126220703125,0.1863260269165039,-0.4561844766139984,0.04505303502082825
1771681481091484200,3.005484130859375,-0.4390726089477539,1.760759949684143,-0.385757714509964
1771681481101842000,3.015842041015625,0.27762317657470703,1.2672832012176514,-0.2892639636993408
1771681481112200000,3.026199951171875,0.44594383239746094,-0.7303688526153564,-0.1816050410270691
1771681481122557700,3.0365576171875,-1.363093376159668,-0.26722341775894165,0.29353857040405273
1771681481132915700,3.046915771484375,1.3956823348999023,0.3273178040981293,0.27127018570899963
1771681481143273500,3.0572734375,-0.5978937149047852,2.5637519359588623,0.26126915216445923
1771681481153631500,3.067631591796875,-0.2621450424194336,-0.2194138467311859,-0.2568633258342743
1771681481163989200,3.0779892578125,-0.6355571746826172,-0.5477609038352966,-0.8625813126564026
1771681481174347300,3.08834716796875,-0.7432126998901367,0.5500695109367371,0.2233051359653473
1771681481184705000,3.098705078125,0.8665552139282227,0.9609497785568237,-0.18354515731334686
1771681481195062800,3.109062744140625,0.0717325210571289,1.774963617324829,0.3243992328643799
1771681481205420800,3.1194208984375,0.6533203125,-0.7225320339202881,-0.28286731243133545
1771681481215778600,3.129778564453125,-1.3330078125,-0.665079653263092,0.46168676018714905
1771681481226136600,3.140136474609375,0.8248634338378906,0.8251655101776123,-0.4954798221588135
1771681481236494300,3.150494384765625,-0.43470191955566406,2.382452964782715,-0.20509080588817596
1771681481246852400,3.160852294921875,-0.6527328491210938,0.33916693925857544,-0.4178919196128845
1771681481257210000,3.171210205078125,-0.4883432388305664,-1.0117770433425903,-0.09031185507774353
1771681481267568000,3.181568115234375,-0.6823005676269531,0.25563910603523254,0.41205698251724243
1771681481277926000,3.19192578125,0.8033113479614258,1.797945499420166,0.47289466857910156
1771681481288283600,3.20228369140625,0.09462356567382812,1.5090141296386719,0.19124948978424072
1771681481298641700,3.2126416015625,0.3852272033691406,-0.39654263854026794,-0.27622008323669434
1771681481308999400,3.22299951171875,-1.0588960647583008,-1.1949541568756104,-0.17416761815547943
1771681481319357400,3.233357421875,1.2723159790039062,1.7845563888549805,0.11013397574424744
1771681481329715200,3.243715087890625,0.6838350296020508,3.0214593410491943,0.25663694739341736
1771681481340073200,3.2540732421875,-0.28672122955322266,-0.6711452603340149,0.4235861599445343
1771681481350431000,3.264430908203125,-1.282623291015625,-1.1997787952423096,0.18112602829933167
1771681481360789000,3.2747890625,0.5055160522460938,1.3220187425613403,0.03929203748703003
1771681481371146800,3.285146728515625,0.5134820938110352,3.16860294342041,-0.5758832693099976
1771681481381504800,3.2955048828125,-1.145920753479004,1.0554523468017578,-0.19496306777000427
1771681481391862500,3.305862548828125,-0.2429523468017578,-1.4704633951187134,-0.5904108285903931
1771681481402220500,3.316220458984375,-0.8551168441772461,0.5581912994384766,0.2805768847465515
1771681481412578300,3.326578369140625,1.5423479080200195,2.4454262256622314,0.21163290739059448
1771681481422936300,3.336936279296875,0.177825927734375,1.4603698253631592,-0.08238187432289124
1771681481433294000,3.347294189453125,-0.42377662658691406,-1.0991077423095703,-0.6358938813209534
1771681481443651800,3.35765185546875,-1.2905912399291992,-0.23777922987937927,-0.21888525784015656
1771681481454009900,3.368009765625,0.8339776992797852,2.416032314300537,0.15748637914657593
1771681481464367600,3.37836767578125,0.17300701141357422,2.4838876724243164,0.36225447058677673
1771681481474725600,3.3887255859375,-0.8199167251586914,-0.680738627910614,0.19254282116889954
1771681481485083400,3.39908349609375,-0.7982864379882812,-1.0309346914291382,0.24898457527160645
1771681481495441400,3.40944140625,0.22740936279296875,1.545210361480713,0.6972779035568237
1771681481505799200,3.419799072265625,1.3167238235473633,2.4582717418670654,-0.4625994563102722
1771681481516157200,3.4301572265625,0.15555572509765625,0.026746034622192383,-0.3716108798980713
1771681481526515000,3.440514892578125,-0.7776451110839844,-1.7044459581375122,-0.19658160209655762
1771681481536873000,3.450873046875,-0.17660236358642578,0.7897376418113708,0.7643382549285889
1771681481547230700,3.461230712890625,1.9397821426391602,2.9982988834381104,0.16134285926818848
1771681481557588500,3.47158837890625,-0.7237548828125,0.1311318278312683,-0.20545212924480438
1771681481567946500,3.481946533203125,-0.5808753967285156,-1.5175188779830933,-0.20993071794509888
1771681481578304500,3.492304443359375,-0.16167449951171875,0.46054190397262573,0.04609823226928711
1771681481588662300,3.502662353515625,1.422811508178711,2.991100788116455,-0.002005845308303833
1771681481599020000,3.51302001953125,-0.6403913497924805,1.9775826930999756,0.048618167638778687
1771681481609378000,3.5233779296875,-0.015929222106933594,-0.9704163670539856,-0.27787667512893677
1771681481619735800,3.53373583984375,-1.1967782974243164,-1.2181109189987183,-0.18775901198387146
1771681481630093800,3.54409375,0.10945987701416016,2.2239794731140137,0.00004604458808898926
1771681481640451600,3.55445166015625,0.11864089965820312,2.2608537673950195,-0.5319458246231079
1771681481650809600,3.5648095703125,-0.5282764434814453,0.1691371202468872,0.04210042953491211
1771681481661167400,3.57516748046875,-1.5812654495239258,-1.1844654083251953,0.27071115374565125
1771681481671525400,3.585525390625,0.27010440826416016,1.6826781034469604,0.4393892288208008
1771681481681883100,3.595883056640625,-0.2221546173095703,2.133268356323242,-0.36189305782318115
1771681481692241000,3.606240966796875,-1.8725476264953613,0.46188437938690186,-0.30325040221214294
1771681481702599000,3.616598876953125,-2.0151052474975586,-1.092427372932434,-0.15173117816448212
1771681481712956700,3.626956787109375,0.05455207824707031,1.3646495342254639,0.4512749910354614
1771681481723314700,3.637314697265625,0.9013376235961914,2.208798408508301,-0.2158673256635666
1771681481733672400,3.64767236328125,-1.5256710052490234,0.987827479839325,0.22263190150260925
1771681481744030500,3.658030517578125,-0.07828140258789062,-0.7561787962913513,0.5302792191505432
1771681481754388200,3.66838818359375,1.155451774597168,-0.09571227431297302,-0.1018657386302948
1771681481764746200,3.678746337890625,0.4268951416015625,1.7729694843292236,-0.44519153237342834
1771681481775104000,3.68910400390625,-0.7007255554199219,0.9127442836761475,0.44752565026283264
1771681481785462000,3.6994619140625,0.08817577362060547,-0.6237925887107849,0.5979036688804626
1771681481795819800,3.70981982421875,1.273747444152832,0.9752541184425354,1.0689860582351685
1771681481806177800,3.720177734375,0.4544229507446289,1.9476497173309326,0.07966616749763489
1771681481816535600,3.73053564453125,-1.1934871673583984,0.7895292639732361,0.216755211353302
1771681481826893300,3.740893310546875,0.8017511367797852,0.1492459774017334,0.3049941956996918
1771681481837251300,3.751251220703125,1.9757413864135742,1.8046162128448486,0.7858366966247559
1771681481847609000,3.761609130859375,1.5430126190185547,2.3715734481811523,0.542752742767334
1771681481857967000,3.771967041015625,-0.7594671249389648,-0.7398319840431213,0.4782274067401886
1771681481868324900,3.782324951171875,-0.12279033660888672,-1.4258630275726318,0.4675438702106476
1771681481878683000,3.792682861328125,0.12576770782470703,2.0423781871795654,0.017836064100265503
1771681481889040600,3.80304052734375,0.24701595306396484,1.9558793306350708,0.18107715249061584
1771681481899398700,3.813398681640625,-1.0233078002929688,-0.3469620943069458,0.35662752389907837
1771681481909756400,3.82375634765625,0.27027225494384766,-0.49830785393714905,0.5980199575424194
1771681481920114200,3.8341142578125,0.5605268478393555,2.5357823371887207,0.23333626985549927
1771681481930472200,3.84447216796875,0.5945978164672852,0.3063828945159912,-0.4573226571083069
1771681481940830000,3.854829833984375,-0.06102943420410156,-1.155585527420044,0.31239762902259827
1771681481951188000,3.86518798828125,1.1870880126953125,1.2770969867706299,-0.1387144923210144
1771681481961545700,3.875545654296875,0.45111942291259766,1.749495506286621,1.271255373954773
1771681481971903700,3.88590380859375,-0.6025981903076172,-0.7624593377113342,0.41096416115760803
1771681481982261500,3.896261474609375,0.5681848526000977,-0.867018461227417,0.3335924744606018
1771681481992619500,3.90661962890625,0.05819892883300781,0.49921751022338867,-0.4193796217441559
1771681482002977300,3.916977294921875,-0.11397933959960938,0.7764663100242615,0.011540710926055908
1771681482013335300,3.927335205078125,0.0674295425415039,0.29461365938186646,-0.3096615672111511
1771681482023693000,3.937693115234375,-0.009394645690917969,-1.1688038110733032,0.26966118812561035
1771681482034051000,3.948051025390625,-0.8090639114379883,-0.6096068620681763,-0.05473998188972473
1771681482044408800,3.958408935546875,0.0041942596435546875,0.5043650269508362,-0.105794757604599
1771681482054766600,3.9687666015625,0.7866125106811523,0.12968814373016357,-0.5321999788284302
1771681482065124600,3.97912451171875,-0.1989459991455078,-0.7507755756378174,-0.33498457074165344
1771681482075482400,3.989482421875,-0.38961219787597656,-1.2351927757263184,0.13951891660690308
1771681482085840400,3.99984033203125,0.29375457763671875,0.41491079330444336,0.1503792703151703
1771681482096198100,4.0101982421875,-0.18463802337646484,-0.09103554487228394,-0.08266076445579529
1771681482106556200,4.02055615234375,-0.31558799743652344,-0.7656912803649902,-0.7688220739364624
1771681482116914000,4.030913818359375,-0.5966091156005859,-0.38108372688293457,-0.6451333165168762
1771681482127272000,4.04127197265625,0.1851959228515625,0.030593395233154297,-0.645046591758728
1771681482137629700,4.051629638671875,0.7596540451049805,0.10813939571380615,-0.6926461458206177
1771681482147987500,4.061987548828125,0.2682924270629883,-0.7650425434112549,-0.3572036027908325
1771681482158345500,4.072345458984375,-0.6609477996826172,-1.0154951810836792,-0.48703742027282715
1771681482168703200,4.082703125,0.5626306533813477,-0.048573821783065796,0.17651823163032532
1771681482179061200,4.093061279296875,-0.648961067199707,-0.429716020822525,-0.003559291362762451
1771681482189419000,4.1034189453125,0.5173149108886719,-0.9013111591339111,0.21282273530960083
1771681482199777000,4.113777099609375,-0.08078765869140625,-0.39298033714294434,-0.3798712193965912
1771681482210134800,4.124134765625,0.8000068664550781,-0.9864634871482849,-0.3434683084487915
1771681482220492800,4.134492919921875,-0.08283615112304688,-0.12249746918678284,-0.29007935523986816
1771681482230850600,4.1448505859375,0.0628805160522461,0.16379863023757935,0.37393131852149963
1771681482241208600,4.15520849609375,-0.8777484893798828,-1.405348539352417,0.13028714060783386
1771681482251566300,4.16556640625,0.7784481048583984,-0.48215538263320923,0.3019411861896515
1771681482261924400,4.17592431640625,0.3396797180175781,-0.7071332335472107,-0.4724213778972626
1771681482272282000,4.1862822265625,0.6300525665283203,-0.3927649259567261,-0.7565265893936157
1771681482282640000,4.196639892578125,-0.29750537872314453,-1.5505515336990356,-0.4551716446876526
1771681482292998000,4.206997802734375,-0.26316356658935547,-0.7103845477104187,-0.4330655336380005
1771681482303355600,4.217355712890625,0.32956600189208984,-0.41389021277427673,0.11946940422058105
1771681482313713700,4.227713623046875,-0.47781848907470703,-0.6269717216491699,0.19263601303100586
1771681482324071400,4.238071533203125,-0.1876392364501953,-1.164690613746643,0.24745821952819824
1771681482334429400,4.248429443359375,0.07318592071533203,-0.13543882966041565,0.3067435622215271
1771681482344787200,4.258787109375,-0.38745880126953125,-1.0755722522735596,-0.19277241826057434
1771681482355145000,4.26914501953125,-0.09987354278564453,-0.4574505090713501,-0.22277815639972687
1771681482365503000,4.2795029296875,-0.006321907043457031,-1.2708306312561035,-0.36747461557388306
1771681482375860700,4.28986083984375,0.09654045104980469,-0.14130324125289917,0.11794397234916687
1771681482386218800,4.30021875,0.6478843688964844,-1.563924789428711,-0.09487879276275635
1771681482396576500,4.310576416015625,-0.2032012939453125,-0.09001794457435608,-0.14560742676258087
1771681482406934500,4.3209345703125,0.6257295608520508,-0.11351102590560913,-0.28109341859817505
1771681482417292300,4.331292236328125,-0.40672969818115234,-1.273141622543335,-0.05890098214149475
1771681482427650300,4.341650390625,-0.15495967864990234,-0.18347832560539246,0.3458075225353241
1771681482438008000,4.352008056640625,0.1009817123413086,-1.161153793334961,0.32640960812568665
1771681482448365800,4.36236572265625,-0.22140789031982422,-0.3886067867279053,0.7044671773910522
1771681482458723800,4.372723876953125,0.3210792541503906,-1.3655858039855957,0.054857075214385986
1771681482469081600,4.38308154296875,0.10797405242919922,-0.9034332036972046,-0.05125141143798828
1771681482479439600,4.393439697265625,1.0386896133422852,-0.22240695357322693,-0.21946878731250763
1771681482489797400,4.40379736328125,0.22708797454833984,-1.3478509187698364,0.2595736086368561
1771681482500155400,4.4141552734375,0.4462308883666992,-0.9478088617324829,0.3440330922603607
1771681482510513200,4.42451318359375,0.5502510070800781,-0.667671799659729,0.32533353567123413
1771681482520871200,4.43487109375,-0.4654216766357422,-0.9873895645141602,0.12307468056678772
1771681482531229000,4.44522900390625,-0.4068927764892578,-0.4822961091995239,-0.10008946061134338
1771681482541587000,4.4555869140625,0.1503162384033203,-0.4533224403858185,0.0453127920627594
1771681482551944700,4.46594482421875,0.16668701171875,-0.9370974898338318,0.4074946343898773
1771681482562302500,4.476302490234375,0.41929054260253906,-1.6226067543029785,0.4686504304409027
1771681482572660500,4.486660400390625,0.4875144958496094,-0.7961071729660034,0.3217039108276367
1771681482583018200,4.497018310546875,0.5650482177734375,-0.5722954273223877,0.32612547278404236
1771681482593376300,4.507376220703125,0.9002504348754883,-1.4333449602127075,-0.069318026304245
1771681482603734000,4.517734130859375,-0.8014087677001953,-0.730758786201477,-0.007256835699081421
1771681482614092000,4.528092041015625,-0.009332656860351562,-0.5382639169692993,0.09981253743171692
1771681482624449800,4.53844970703125,-0.9497470855712891,-1.1263872385025024,0.33155155181884766
1771681482634807600,4.5488076171875,0.3487262725830078,-1.5745258331298828,0.49657174944877625
1771681482645165600,4.55916552734375,-0.5233755111694336,-0.7182235717773438,-0.055501192808151245
1771681482655523300,4.5695234375,1.1940736770629883,-1.1813440322875977,-0.22542379796504974
1771681482665881300,4.57988134765625,0.012028694152832031,-1.1066948175430298,-0.5027732253074646
1771681482676239000,4.590239013671875,-0.1527118682861328,-1.4069064855575562,-0.2959798574447632
1771681482686597000,4.60059716796875,1.0411462783813477,-0.6442209482192993,0.364439457654953
1771681482696955000,4.610954833984375,-0.8208255767822266,-1.4273736476898193,0.42317160964012146
1771681482707313000,4.62131298828125,0.12882041931152344,-1.777353286743164,0.2930662930011749
1771681482717670700,4.631670654296875,-0.2724771499633789,0.00817224383354187,-0.2359878122806549
1771681482728028700,4.642028564453125,-0.157257080078125,-1.4542934894561768,-0.032478511333465576
1771681482738386400,4.652386474609375,-0.5124702453613281,-1.6532135009765625,-0.7471544742584229
1771681482748744200,4.662744140625,0.40774059295654297,-1.6535719633102417,-0.6094143986701965
1771681482759102200,4.673102294921875,1.0010757446289062,-0.5222563743591309,-0.057827770709991455
1771681482769460000,4.6834599609375,0.5092563629150391,-2.0769455432891846,0.2980833649635315
1771681482779818000,4.69381787109375,-0.19131851196289062,-0.6208341717720032,0.03404924273490906
1771681482790175700,4.70417578125,-0.19561004638671875,-1.1702874898910522,0.16002881526947021
1771681482800533800,4.71453369140625,-0.598480224609375,-1.1818255186080933,0.042421966791152954
1771681482810891500,4.7248916015625,0.3792381286621094,-1.6159193515777588,-0.26547497510910034
1771681482821249300,4.735249267578125,0.5501718521118164,-1.1800581216812134,0.5127907991409302
1771681482831607300,4.745607177734375,0.31009387969970703,-1.3611564636230469,0.44773954153060913
1771681482841965000,4.755965087890625,0.3499135971069336,-1.3678765296936035,0.3153996467590332
1771681482852323000,4.766322998046875,-0.016137123107910156,-0.9428752064704895,0.20769643783569336
1771681482862680800,4.776680908203125,-0.06618785858154297,-1.6647905111312866,-0.3774305582046509
1771681482873038800,4.787038818359375,0.31594085693359375,-1.1559836864471436,-0.14780864119529724
1771681482883396600,4.797396728515625,0.0025501251220703125,-1.1261173486709595,-0.016506075859069824
1771681482893754400,4.80775439453125,0.4465312957763672,-1.2271718978881836,0.8286978006362915
1771681482904112400,4.8181123046875,-0.22046947479248047,-1.6481839418411255,0.48565322160720825
1771681482914470100,4.82847021484375,0.064117431640625,-0.9726616740226746,0.3139403462409973
1771681482924828200,4.838828125,1.056910514831543,-0.5345034599304199,-0.5936096906661987
1771681482935186000,4.84918603515625,-0.260833740234375,-1.928839921951294,-0.10484477877616882
1771681482945544000,4.8595439453125,-0.19089698791503906,-1.264936923980713,-0.33592328429222107
1771681482955901700,4.869901611328125,0.8837375640869141,-0.3158451318740845,0.1441766917705536
1771681482966259700,4.880259765625,-0.629237174987793,-1.8537031412124634,0.32881057262420654
1771681482976617500,4.890617431640625,-0.03563880920410156,-1.4693187475204468,0.21549856662750244
1771681482986975200,4.900975341796875,0.22469520568847656,-0.5273151397705078,-0.37948334217071533
1771681482997333200,4.911333251953125,-0.024042129516601562,-1.1002418994903564,-0.24266456067562103
1771681483007691000,4.92169091796875,0.15516281127929688,-1.1883734464645386,-0.7848101854324341
1771681483018049000,4.932049072265625,-0.4156150817871094,-0.4709400534629822,-0.11477509140968323
1771681483028406800,4.94240673828125,0.42572975158691406,-1.6604235172271729,-0.018184781074523926
1771681483038764800,4.952764892578125,-0.5084829330444336,-0.8134860992431641,0.4704272449016571
1771681483049122600,4.96312255859375,0.6123380661010742,-1.0641554594039917,-0.3672584295272827
1771681483059480600,4.97348046875,0.0023450851440429688,-0.5003482103347778,-0.24470868706703186
1771681483069838300,4.98383837890625,-0.8686962127685547,-1.5157657861709595,-0.28177011013031006
1771681483080196000,4.994196044921875,0.17197895050048828,-0.26114600896835327,-0.5995537042617798
1771681483090554000,5.00455419921875,-0.2817678451538086,-0.6150683760643005,-0.42693382501602173
1771681483100911900,5.014911865234375,0.029449462890625,-1.3528118133544922,0.026333630084991455
1771681483111270000,5.025269775390625,0.39476490020751953,-0.6610721349716187,-0.5905858278274536
1771681483121627600,5.035627685546875,-0.17406272888183594,-1.2458131313323975,-0.23967245221138
1771681483131985400,5.0459853515625,0.03186607360839844,-1.0772888660430908,-0.4361690878868103
1771681483142343400,5.056343505859375,0.2205791473388672,-0.2673715651035309,-0.1165567934513092
1771681483152701400,5.066701416015625,-0.1377735137939453,-0.4880774915218353,-0.02198660373687744
1771681483163059200,5.07705908203125,0.34494876861572266,-0.8231194615364075,0.6332613825798035
1771681483173417000,5.0874169921875,0.10802268981933594,-0.8642488121986389,0.6644096374511719
1771681483183775000,5.09777490234375,0.1723804473876953,-0.20103897154331207,0.3360663652420044
1771681483194132700,5.1081328125,1.174605369567871,0.03571420907974243,0.3808933198451996
1771681483204490800,5.11849072265625,0.1598196029663086,-0.2605803906917572,-0.5453986525535583
1771681483214848500,5.1288486328125,0.7467384338378906,-0.23171944916248322,-0.21106776595115662
1771681483225206500,5.13920654296875,0.34168529510498047,-0.5422893166542053,0.18171831965446472
1771681483235564300,5.149564208984375,-0.2939291000366211,0.05031159520149231,0.5768561363220215
1771681483245922000,5.159922119140625,-0.07105541229248047,-0.5522440671920776,0.6819543838500977
1771681483256280000,5.170280029296875,-0.5122919082641602,0.15694844722747803,0.4911397397518158
1771681483266637800,5.180637939453125,0.5130949020385742,-0.38131967186927795,0.5011774897575378
1771681483276995800,5.190995849609375,0.09668445587158203,-0.40763652324676514,-0.10273218154907227
1771681483287353600,5.201353515625,0.4737663269042969,0.3182629346847534,-0.38113197684288025
1771681483297711400,5.21171142578125,-0.16927814483642578,-0.19383744895458221,0.09056103229522705
1771681483308069400,5.2220693359375,-0.11374664306640625,-0.3299328684806824,0.4343930780887604
1771681483318427100,5.23242724609375,-0.37346363067626953,0.050171077251434326,0.4582207500934601
1771681483328785200,5.24278515625,0.37709522247314453,0.04284924268722534,0.0285472571849823
1771681483339143000,5.253142822265625,-0.4614982604980469,0.08120638132095337,-0.20401978492736816
1771681483349501000,5.2635009765625,0.14124202728271484,-0.6010254621505737,-0.09677937626838684
1771681483359858700,5.273858642578125,0.040764808654785156,0.47037675976753235,-0.348258912563324
1771681483370216400,5.284216552734375,-0.4032611846923828,-0.7203604578971863,0.6767028570175171
1771681483380574500,5.294574462890625,0.4308662414550781,0.22497433423995972,0.3828904628753662
1771681483390932200,5.30493212890625,-0.5798673629760742,-0.12700483202934265,0.3541814684867859
1771681483401290200,5.315290283203125,0.46233367919921875,-0.17338772118091583,0.027951598167419434
1771681483411648000,5.32564794921875,-0.40765857696533203,-0.269339919090271,-0.06872484087944031
1771681483422006000,5.336006103515625,0.9181003570556641,0.12420055270195007,-0.3312297463417053
1771681483432363800,5.34636376953125,-0.49726200103759766,0.10929477214813232,-0.21446692943572998
1771681483442721800,5.3567216796875,-0.06636238098144531,-0.6748142838478088,0.03931617736816406
1771681483453079600,5.36707958984375,-0.5532102584838867,0.12380969524383545,0.6142916679382324
1771681483463437300,5.377437255859375,0.3503456115722656,-0.6932006478309631,0.11050114035606384
1771681483473795300,5.38779541015625,-0.058745384216308594,0.48723646998405457,0.16434776782989502
1771681483484153000,5.398153076171875,0.18000221252441406,-0.6093705296516418,-0.3930383324623108
1771681483494511000,5.408510986328125,-0.25246334075927734,-0.1649707704782486,-0.4915015697479248
1771681483504868900,5.418868896484375,0.6097850799560547,-0.08090683817863464,0.04970085620880127
1771681483515226600,5.4292265625,-0.0003337860107421875,-0.2890593707561493,-0.010539442300796509
1771681483525584600,5.439584716796875,-0.10774517059326172,0.21984615921974182,0.19977784156799316
1771681483535942400,5.4499423828125,0.20765113830566406,-0.6810645461082458,-0.20497074723243713
1771681483546300400,5.460300537109375,-0.4181966781616211,0.1268497109413147,-0.24747133255004883
1771681483556658200,5.470658203125,0.30132389068603516,-0.8144139051437378,-0.2423848658800125
1771681483567016200,5.48101611328125,-0.5586166381835938,0.43572255969047546,-0.3768080770969391
1771681483577374000,5.4913740234375,-0.3448190689086914,-0.8019112944602966,0.12606215476989746
1771681483587731700,5.501731689453125,0.47486019134521484,0.06341192126274109,0.08306106925010681
1771681483598089700,5.51208984375,0.6479244232177734,-0.5622662901878357,0.015909820795059204
1771681483608447500,5.522447509765625,-0.28208446502685547,0.013332545757293701,-0.04007518291473389
1771681483618805500,5.532805419921875,0.30344486236572266,-0.3907981812953949,-0.23367488384246826
1771681483629163300,5.543163330078125,-0.038491249084472656,0.06692823767662048,-0.416167676448822
1771681483639521300,5.553521240234375,0.04929065704345703,-0.31359344720840454,-0.3727469742298126
1771681483649879000,5.563879150390625,0.14273357391357422,-0.8702864646911621,0.16845703125
1771681483660236800,5.57423681640625,0.40631675720214844,0.6327444911003113,0.05413946509361267
1771681483670594800,5.5845947265625,0.19492435455322266,-0.7368914484977722,0.3443901538848877
1771681483680952600,5.59495263671875,-0.7541522979736328,-0.15211987495422363,0.3623032867908478
1771681483691310600,5.605310546875,0.6208696365356445,-0.3395015299320221,-0.016178369522094727
1771681483701668400,5.61566845703125,-0.08113670349121094,0.6174732446670532,-0.2521258294582367
1771681483712026400,5.6260263671875,0.4426298141479492,-0.7894854545593262,-0.17517215013504028
1771681483722384100,5.636384033203125,-0.013982772827148438,-0.01397755742073059,-0.01874634623527527
1771681483732742000,5.646741943359375,0.36747264862060547,0.30976587533950806,0.6192116141319275
1771681483743100000,5.657099853515625,0.24620914459228516,-0.772331714630127,0.03058493137359619
1771681483753457700,5.667457763671875,-0.9437456130981445,0.17504724860191345,0.3367750644683838
1771681483763815700,5.677815673828125,0.3379325866699219,0.6558623313903809,0.1635035276412964
1771681483774173400,5.68817333984375,-0.6064367294311523,-0.00794064998626709,-0.3153526782989502
1771681483784531200,5.69853125,-1.1586532592773438,-0.6316992044448853,0.29203057289123535
1771681483794889200,5.70888916015625,0.8325862884521484,-0.06065183877944946,-0.20645275712013245
1771681483805247000,5.7192470703125,-0.7400379180908203,0.29028934240341187,0.5913634896278381
1771681483815605000,5.72960498046875,0.44338035583496094,-0.46071773767471313,0.18553966283798218
1771681483825962800,5.739962646484375,-0.5673494338989258,0.4350394904613495,0.37373894453048706
1771681483836320800,5.75032080078125,0.4986562728881836,-0.4564754068851471,-0.32750403881073
1771681483846678500,5.760678466796875,-0.7603425979614258,0.1289258897304535,-0.49314600229263306
1771681483857036500,5.77103662109375,-0.09722518920898438,0.200266033411026,-0.5647364258766174
1771681483867394300,5.781394287109375,0.2301654815673828,0.04712355136871338,0.15454381704330444
1771681483877752000,5.791751953125,-0.5436840057373047,-0.8001481294631958,0.42975562810897827
1771681483888110000,5.802110107421875,0.22395992279052734,0.339979350566864,0.4531705379486084
1771681483898467800,5.8124677734375,0.032489776611328125,0.29175612330436707,-0.3270392417907715
1771681483908825900,5.822825927734375,0.18045520782470703,0.3218002915382385,0.2528115510940552
1771681483919183600,5.83318359375,-0.5193309783935547,-0.42865216732025146,-0.44959700107574463
1771681483929541400,5.843541259765625,0.23380756378173828,0.40750283002853394,0.3397035598754883
1771681483939899400,5.8538994140625,-0.2466259002685547,-0.027658611536026,0.3666767477989197
1771681483950257200,5.864257080078125,0.21215248107910156,0.5740879774093628,0.41782891750335693
1771681483960615200,5.874615234375,0.05630779266357422,-0.3121015131473541,0.2857438325881958
1771681483970973000,5.884972900390625,-0.535923957824707,-0.6045577526092529,0.37362831830978394
1771681483981330700,5.89533056640625,0.324462890625,0.1422581672668457,0.03980499505996704
1771681483991688700,5.905688720703125,0.13253116607666016,0.7326356172561646,-0.1249094009399414
1771681484002046500,5.91604638671875,-0.490997314453125,-0.8981524705886841,0.0006463527679443359
1771681484012404500,5.926404541015625,-0.13189697265625,-0.14360547065734863,0.3088034391403198
1771681484022762200,5.93676220703125,-0.18194580078125,0.08733564615249634,0.7415476441383362
1771681484033120300,5.947120361328125,0.276611328125,0.02599126100540161,0.38193345069885254
1771681484043478000,5.95747802734375,-0.6695213317871094,0.08451566100120544,0.17250901460647583
1771681484053835800,5.967835693359375,0.5588407516479492,-0.3158024251461029,-0.3650786578655243
1771681484064193800,5.97819384765625,-0.2447214126586914,0.3855747580528259,-0.3876441717147827
1771681484074551600,5.988551513671875,0.24509143829345703,-0.8174835443496704,-0.2779235243797302
1771681484084909600,5.99890966796875,-0.3237028121948242,0.7704637050628662,0.03454270958900452
1771681484095267300,6.009267333984375,-0.058104515075683594,-0.23944787681102753,0.30358725786209106
1771681484105625300,6.019625244140625,-0.5211019515991211,-0.08036935329437256,-0.027748465538024902
1771681484115983000,6.029983154296875,-0.534306526184082,0.27482566237449646,0.04398864507675171
1771681484126340900,6.0403408203125,-0.14644527435302734,-0.0940828025341034,0.08364862203598022
1771681484136699000,6.050698974609375,-0.633148193359375,-0.20656171441078186,-0.4184103012084961
1771681484147056600,6.061056640625,-0.15911865234375,0.3543890714645386,-0.3107547461986542
1771681484157414700,6.07141455078125,0.032074928283691406,-0.3056102395057678,-0.052999913692474365
1771681484167772400,6.0817724609375,-0.5362367630004883,-0.03084394335746765,0.28087329864501953
1771681484178130200,6.092130126953125,0.2477893829345703,-0.35837259888648987,0.30681702494621277
1771681484188488200,6.10248828125,0.07513236999511719,0.6278760433197021,-0.3216785788536072
1771681484198846000,6.112845947265625,0.029399871826171875,0.029060155153274536,-0.43273448944091797
1771681484209204000,6.123203857421875,-0.18803882598876953,0.44603970646858215,-0.4677048921585083
1771681484219561700,6.133561767578125,-0.0946054458618164,-0.5587970614433289,-0.4146612584590912
1771681484229919500,6.14391943359375,-0.5574760437011719,1.7609877586364746,-0.09548157453536987
1771681484240277500,6.154277587890625,0.3078126907348633,1.0467677116394043,0.035574764013290405
1771681484250635300,6.16463525390625,-0.16556739807128906,0.06160899996757507,-0.18202432990074158
1771681484260993300,6.1749931640625,-0.905146598815918,-0.00025784969329833984,-0.34734368324279785
1771681484271351000,6.18535107421875,0.3931884765625,1.3526804447174072,-0.060117870569229126
1771681484281708800,6.195708740234375,0.010333061218261719,2.5813186168670654,-0.3328787684440613
1771681484292066800,6.20606689453125,-0.4240989685058594,0.5271943211555481,-0.21045592427253723
1771681484302424600,6.216424560546875,-1.0483055114746094,-0.1311485469341278,-0.020292609930038452
1771681484312782600,6.226782470703125,0.13103199005126953,0.9116413593292236,0.39544129371643066
1771681484323140400,6.237140380859375,0.08063316345214844,2.162040948867798,-0.07416647672653198
1771681484333498400,6.247498291015625,0.5267505645751953,1.753711462020874,-0.45818522572517395
1771681484343856000,6.257856201171875,-0.8636608123779297,0.006893932819366455,-0.6513575315475464
1771681484354214000,6.2682138671875,-0.9474010467529297,-0.6282488107681274,-0.03189942240715027
1771681484364572000,6.278572021484375,-0.10714912414550781,1.7694101333618164,-0.0695902407169342
1771681484374929700,6.2889296875,0.5972194671630859,2.9766552448272705,0.5884597301483154
1771681484385287700,6.29928759765625,-0.5570621490478516,-0.03013482689857483,0.050396502017974854
1771681484395645400,6.3096455078125,-1.5007972717285156,-0.5684041976928711,-0.16910818219184875
1771681484406003200,6.320003173828125,-0.038575172424316406,-0.5468674302101135,0.14320552349090576
1771681484416361200,6.330361328125,-1.1075897216796875,3.311102867126465,0.051905035972595215
1771681484426719000,6.340718994140625,0.6758270263671875,2.584920883178711,-0.2234867811203003
1771681484437077000,6.351076904296875,-2.0325260162353516,-0.3997289538383484,-0.626569926738739
1771681484447434800,6.361434814453125,-1.2255315780639648,-0.21788474917411804,0.4852920174598694
1771681484457792500,6.37179248046875,0.5724782943725586,2.0219390392303467,0.7274925112724304
1771681484468150500,6.382150634765625,-1.1213092803955078,2.482130289077759,0.37130898237228394
1771681484478508300,6.39250830078125,-0.7009897232055664,0.5546099543571472,0.23964187502861023
1771681484488866300,6.4028662109375,-1.5395689010620117,0.3744924068450928,0.13179397583007812
1771681484499224000,6.41322412109375,-1.12066650390625,0.013620615005493164,0.48666393756866455
1771681484509581800,6.423581787109375,0.2973594665527344,2.791109085083008,0.18198776245117188
1771681484519939800,6.43393994140625,0.8810834884643555,2.6370022296905518,0.34505361318588257
1771681484530297600,6.444297607421875,-0.5536394119262695,-0.5291441082954407,-0.013456284999847412
1771681484540655600,6.454655517578125,-1.0086393356323242,-0.8619327545166016,0.492698073387146
1771681484551013400,6.465013427734375,0.9006490707397461,1.8435757160186768,0.6663442254066467
1771681484561371100,6.47537109375,0.5257091522216797,2.8556909561157227,0.116283118724823
1771681484571729200,6.485729248046875,-0.3352985382080078,-0.4652811884880066,-0.045789510011672974
1771681484582087000,6.4960869140625,-0.2059164047241211,-1.158319354057312,0.1927267611026764
1771681484592445000,6.50644482421875,0.7585115432739258,0.40612563490867615,1.0541690587997437
1771681484602802700,6.516802734375,1.5630455017089844,2.0455005168914795,0.957820475101471
1771681484613160700,6.52716064453125,0.7925148010253906,1.1799893379211426,0.40800002217292786
1771681484623518500,6.5375185546875,0.8354778289794922,-1.5567426681518555,-0.01822414994239807
1771681484633876200,6.547876220703125,-0.2983217239379883,-1.1347405910491943,-0.11198011040687561
1771681484644234200,6.558234130859375,2.325307846069336,2.1174752712249756,0.0025013983249664307
1771681484654592000,6.568592041015625,1.1042871475219727,2.2637624740600586,0.41114547848701477
1771681484664950000,6.578949951171875,0.6214456558227539,-0.8999010324478149,0.4214075207710266
1771681484675307800,6.589307861328125,0.11359310150146484,-1.6919283866882324,0.28146862983703613
1771681484685665500,6.59966552734375,1.628678321838379,1.5751302242279053,0.6217093467712402
1771681484696023600,6.6100234375,1.9274721145629883,2.5978143215179443,-0.4451267123222351
1771681484706381300,6.62038134765625,0.6764230728149414,-0.01079036295413971,-0.09265652298927307
1771681484716739000,6.630739013671875,0.23299121856689453,-1.411971926689148,-0.31533151865005493
1771681484727097000,6.64109716796875,0.8241462707519531,0.37151750922203064,0.4204782247543335
1771681484737454800,6.651454833984375,1.6167821884155273,2.4157965183258057,-0.28661835193634033
1771681484747812900,6.661812744140625,0.6268129348754883,0.9274764060974121,-0.3992668688297272
1771681484758170600,6.672170654296875,0.10485553741455078,-1.2389228343963623,-0.9592827558517456
1771681484768528400,6.6825283203125,-0.8239498138427734,-0.29531019926071167,-0.097230464220047
1771681484778886400,6.692886474609375,1.3167848587036133,2.7902419567108154,-0.26708802580833435
1771681484789244200,6.703244140625,0.10811901092529297,1.6945627927780151,-0.10589390993118286
1771681484799602200,6.713602294921875,-0.3241004943847656,-0.9824607372283936,-0.5069501399993896
1771681484809960000,6.7239599609375,-1.5882816314697266,-1.3477994203567505,-0.08945140242576599
1771681484820318000,6.73431787109375,1.3541107177734375,2.726325511932373,-0.7617782354354858
1771681484830675700,6.74467578125,0.19094276428222656,2.8841404914855957,-0.7886701822280884
1771681484841033500,6.755033447265625,-0.6163644790649414,-0.7864618301391602,-0.5648043751716614
1771681484851391500,6.7653916015625,-1.6722602844238281,-1.5463618040084839,-0.08566847443580627
1771681484861749200,6.775749267578125,0.8789939880371094,1.8105969429016113,-0.12573054432868958
1771681484872107300,6.786107177734375,0.6980972290039062,2.3392391204833984,-0.6223999261856079
1771681484882465000,6.796465087890625,-0.4326305389404297,-0.40743163228034973,-0.46337422728538513
1771681484892822800,6.80682275390625,-1.0282649993896484,-1.2076698541641235,-0.1274327039718628
1771681484903180800,6.817180908203125,1.1058979034423828,1.9895647764205933,-0.14577844738960266
1771681484913538600,6.82753857421875,0.45166683197021484,2.55464243888855,0.31952327489852905
1771681484923896300,6.837896240234375,-0.5280551910400391,-0.3251006305217743,-0.3149738609790802
1771681484934254300,6.84825439453125,-1.0877046585083008,-1.397024393081665,0.2387382686138153
1771681484944612000,6.858612060546875,0.27330970764160156,1.5313440561294556,-0.12295794486999512
1771681484954970000,6.86897021484375,1.590653419494629,2.816099166870117,-0.37611836194992065
1771681484965328000,6.879327880859375,-1.00787353515625,0.6674507856369019,0.04120102524757385
1771681484975685600,6.889685546875,-0.9127197265625,-0.5678113698959351,0.2565823495388031
1771681484986043600,6.900043701171875,0.5051698684692383,-0.38115251064300537,0.459517240524292
1771681484996401400,6.9104013671875,0.7551717758178711,2.2113118171691895,0.21639716625213623
1771681485006759400,6.920759521484375,-1.1440553665161133,1.649882435798645,-0.8322035074234009
1771681485017117200,6.9311171875,-1.2514333724975586,-0.3497071862220764,0.08769583702087402
1771681485027475000,6.941474853515625,-0.006907463073730469,1.071914553642273,0.17190411686897278
1771681485037833000,6.9518330078125,0.3706827163696289,2.4535443782806396,0.020772546529769897
1771681485048190700,6.962190673828125,-1.4992990493774414,0.11923485994338989,-0.12336006760597229
1771681485058548500,6.972548583984375,-0.5720348358154297,-0.4051916003227234,-0.06334754824638367
1771681485068906500,6.982906494140625,0.9715023040771484,1.8570847511291504,-0.4675920307636261
1771681485079264300,6.99326416015625,1.3060331344604492,2.668186902999878,-0.12668555974960327
1771681485089622300,7.003622314453125,-1.552037239074707,-0.34927263855934143,0.38107866048812866
1771681485099980000,7.01397998046875,-0.5815830230712891,-0.49479013681411743,0.282329261302948
1771681485110338000,7.024338134765625,0.8044290542602539,2.1580536365509033,0.37276774644851685
1771681485120695800,7.03469580078125,0.5423955917358398,1.8511991500854492,0.054108768701553345
1771681485131053600,7.045053466796875,-0.7645292282104492,-0.7456640005111694,-0.23566126823425293
1771681485141411600,7.05541162109375,-0.175262451171875,0.7802117466926575,-0.037895381450653076
1771681485151769300,7.065769287109375,0.4364128112792969,2.577071189880371,-0.22069017589092255
1771681485162127000,7.076127197265625,-0.3568849563598633,-0.059129923582077026,-0.27573162317276
1771681485172485000,7.086485107421875,-0.8283309936523438,-0.5417079329490662,-0.518629789352417
1771681485182843000,7.0968427734375,0.5417652130126953,1.876563549041748,-0.5194551944732666
1771681485193201000,7.107200927734375,0.14929676055908203,2.4037580490112305,-0.6295890212059021
1771681485203558700,7.11755859375,-0.4354543685913086,-0.16444113850593567,-0.7042216062545776
1771681485213916400,7.12791650390625,-0.3671550750732422,0.3069559633731842,0.038816750049591064
1771681485224274400,7.1382744140625,0.67962646484375,2.4821338653564453,-0.19564540684223175
1771681485234632200,7.148632080078125,0.0028429031372070312,1.466062307357788,0.0028703510761260986
1771681485244990200,7.158990234375,-0.48842906951904297,-0.08984112739562988,-0.3193787932395935
1771681485255348000,7.169347900390625,0.11470699310302734,1.6138513088226318,-0.13486382365226746
1771681485265705700,7.179705810546875,0.22937774658203125,1.9951024055480957,0.14360743761062622
1771681485276063700,7.190063720703125,-0.6539392471313477,0.1580926775932312,0.027671754360198975
1771681485286421500,7.20042138671875,-0.6902046203613281,0.4171030521392822,-0.12454009056091309
1771681485296779300,7.210779296875,0.9516201019287109,2.480909824371338,-0.4410960078239441
1771681485307137300,7.22113720703125,-0.39438629150390625,1.3045623302459717,-0.05786287784576416
1771681485317495000,7.2314951171875,-0.3908395767211914,-0.09319913387298584,-0.18173308670520782
1771681485327853000,7.24185302734375,0.25707530975341797,1.1650543212890625,0.16309380531311035
1771681485338210800,7.2522109375,0.5524663925170898,1.8962972164154053,-0.19308947026729584
1771681485348568600,7.262568603515625,-0.19357681274414062,0.48264503479003906,-0.28069058060646057
1771681485358926600,7.272926513671875,-0.13341426849365234,0.8365186452865601,-0.14809909462928772
1771681485369284400,7.283284423828125,0.9529647827148438,1.8990154266357422,0.032800883054733276
1771681485379642400,7.293642333984375,-0.3073301315307617,1.468315839767456,0.4854842722415924
1771681485390000000,7.304000244140625,-0.4761037826538086,0.028802573680877686,0.12890318036079407
1771681485400358000,7.31435791015625,0.23392009735107422,1.5575792789459229,0.020718306303024292
1771681485410716000,7.3247158203125,0.8108739852905273,2.322312831878662,-0.21739040315151215
1771681485421073700,7.33507373046875,-0.37987804412841797,0.23506605625152588,-0.11328250169754028
1771681485431431700,7.345431640625,-0.32892322540283203,0.028904736042022705,0.18985766172409058
1771681485441789400,7.35578955078125,1.2471017837524414,1.9265594482421875,0.042709529399871826
1771681485452147200,7.366147216796875,0.05276966094970703,1.197265625,-0.14678528904914856
1771681485462505200,7.376505126953125,-0.35329723358154297,-0.20395627617835999,-0.33509114384651184
1771681485472863000,7.386863037109375,-0.0996408462524414,1.303298830986023,0.029611051082611084
1771681485483220700,7.397220703125,0.48511695861816406,1.6382367610931396,0.28297361731529236
1771681485493578800,7.407578857421875,-0.5880727767944336,-0.15677541494369507,0.14951685070991516
1771681485503936500,7.4179365234375,-0.23850440979003906,0.29841095209121704,0.1026608943939209
1771681485514294500,7.42829443359375,1.1771631240844727,2.178027629852295,-0.005928903818130493
1771681485524652300,7.43865234375,-0.3394145965576172,0.5016491413116455,0.3758489191532135
1771681485535010000,7.449010009765625,-0.49888038635253906,-0.3098269999027252,0.5270218849182129
1771681485545368000,7.4593681640625,0.7789602279663086,1.4561183452606201,0.44800707697868347
1771681485555725800,7.469725830078125,0.2491292953491211,1.2180346250534058,0.39287617802619934
1771681485566083600,7.48008349609375,-0.37955570220947266,-0.34814906120300293,0.12380677461624146
1771681485576441600,7.490441650390625,0.6211519241333008,1.1706206798553467,-0.03411144018173218
1771681485586799400,7.50079931640625,1.0513687133789062,1.2917437553405762,0.04028189182281494
1771681485597157400,7.511157470703125,-0.99951171875,-0.5477781891822815,0.3017617166042328
1771681485607515100,7.52151513671875,0.18184375762939453,0.8506611585617065,-0.27876731753349304
1771681485617873000,7.531872802734375,0.8613815307617188,1.4629791975021362,-0.5905333161354065
1771681485628231000,7.54223095703125,-0.4107856750488281,0.1757327914237976,0.021998077630996704
1771681485638588700,7.552588623046875,0.2559547424316406,-0.1331910490989685,-0.22208453714847565
1771681485648946700,7.56294677734375,0.8064861297607422,1.9697948694229126,0.41156747937202454
1771681485659304400,7.573304443359375,0.1001749038696289,0.5924031734466553,0.1289859116077423
1771681485669662200,7.583662109375,-0.5160188674926758,-0.15769356489181519,-0.17757649719715118
1771681485680020200,7.594020263671875,0.43033313751220703,1.8298379182815552,-0.02125611901283264
1771681485690378000,7.6043779296875,0.3933687210083008,1.048621416091919,0.30510255694389343
1771681485700735700,7.61473583984375,-0.9204702377319336,-0.6383349895477295,-0.024225682020187378
1771681485711093800,7.62509375,0.27524280548095703,0.8767908811569214,-0.6525731086730957
1771681485721451500,7.635451416015625,0.7065763473510742,1.5914928913116455,-1.240095615386963
1771681485731809500,7.6458095703125,-0.6365518569946289,-0.34559932351112366,-0.6207475662231445
1771681485742167300,7.656167236328125,-0.10735511779785156,0.17973405122756958,-1.1132806539535522
1771681485752525000,7.666525146484375,1.1103200912475586,1.8118144273757935,-0.7966382503509521
1771681485762883000,7.676883056640625,-0.49388694763183594,-0.25526079535484314,-0.7911468744277954
1771681485773240800,7.68724072265625,-0.007887840270996094,-0.413951575756073,-1.2129379510879517
1771681485783598600,7.6975986328125,1.2216014862060547,2.1992475986480713,-0.5701982975006104
1771681485793956600,7.70795654296875,0.06831836700439453,0.7151774764060974,0.09486854076385498
1771681485804314400,7.718314453125,-0.4566822052001953,-0.7710207104682922,-0.31981995701789856
1771681485814672400,7.72867236328125,-0.0065135955810546875,1.9976470470428467,-0.6893050670623779
1771681485825030100,7.739030029296875,0.11547565460205078,1.492938756942749,-0.45922669768333435
1771681485835388000,7.749387939453125,-0.49793529510498047,-0.6441594958305359,-0.34594494104385376
1771681485845746000,7.759745849609375,-0.27683448791503906,1.2390003204345703,-0.24928107857704163
1771681485856103700,7.770103759765625,1.005894660949707,1.7862274646759033,-0.49430233240127563
1771681485866461700,7.780461669921875,-1.4810905456542969,-0.7497497200965881,-0.6994495987892151
1771681485876819500,7.7908193359375,0.14836978912353516,1.4939932823181152,-1.042334794998169
1771681485887177200,7.80117724609375,0.0957040786743164,1.1533344984054565,-0.3195531368255615
1771681485897535200,7.81153515625,-0.34101390838623047,-0.6126556992530823,-0.5750600695610046
1771681485907893000,7.82189306640625,0.25452232360839844,1.3730509281158447,-0.9052988290786743
1771681485918250800,7.832250732421875,0.43565845489501953,1.5407354831695557,-0.9412530660629272
1771681485928608800,7.84260888671875,-1.2644405364990234,-0.6962356567382812,-0.3325393795967102
1771681485938966500,7.852966552734375,0.02094554901123047,1.141574501991272,-0.6742194890975952
1771681485949324500,7.863324462890625,0.12634849548339844,1.8974932432174683,-0.5799301862716675
1771681485959682300,7.873682373046875,-1.0549888610839844,-1.2615032196044922,-0.08088512718677521
1771681485970040000,7.8840400390625,0.7263679504394531,1.1170159578323364,-0.4663180708885193
1771681485980398000,7.894398193359375,1.2166576385498047,1.7770919799804688,-0.16045671701431274
1771681485990755800,7.904755859375,-0.7241134643554688,-1.269911766052246,0.6923103928565979
1771681486001113600,7.915113525390625,0.705378532409668,0.42575567960739136,-0.09713855385780334
1771681486011471600,7.9254716796875,1.2839231491088867,2.137101173400879,0.038622885942459106
1771681486021829400,7.935829345703125,-1.4472990036010742,-1.0156230926513672,1.2295314073562622
1771681486032187400,7.9461875,0.2988929748535156,0.5340089797973633,0.882798433303833
1771681486042545200,7.956545166015625,-0.40581226348876953,2.5209646224975586,0.47078388929367065
1771681486052903000,7.96690283203125,-2.0661253929138184,-0.2519984841346741,1.0659362077713013
1771681486063261000,7.977260986328125,-0.24938392639160156,0.08946043252944946,0.6967411041259766
1771681486073618700,7.98761865234375,0.5483980178833008,2.47021746635437,0.4294779300689697
1771681486083976700,7.997976806640625,-0.7372169494628906,-1.1801668405532837,0.6783137917518616
1771681486094334500,8.00833447265625,0.14071369171142578,0.2905964255332947,-0.8959953784942627
1771681486104692200,8.018692138671875,-0.2224273681640625,1.886078119277954,-1.2935489416122437
1771681486115050200,8.02905029296875,-1.5011787414550781,0.047713637351989746,-0.46662214398384094
1771681486125408000,8.039407958984375,-1.4210538864135742,-0.31336355209350586,-0.7835369110107422
1771681486135765800,8.049765869140625,-0.6466197967529297,1.987009048461914,-0.32633864879608154
1771681486146123800,8.060123779296875,-2.0343170166015625,-0.37961557507514954,-0.3281034827232361
1771681486156481500,8.0704814453125,0.2285900115966797,1.6443538665771484,-0.4412473738193512
1771681486166839600,8.080839599609375,-0.41666507720947266,0.6453375816345215,-0.13910923898220062
1771681486177197300,8.091197265625,-0.9791135787963867,-0.5764175653457642,-0.18275266885757446
1771681486187555000,8.10155517578125,0.3310813903808594,1.3252208232879639,-0.5728592872619629
1771681486197913000,8.1119130859375,0.02207469940185547,1.1801538467407227,-0.8305149078369141
1771681486208270800,8.122270751953126,-2.040574550628662,-1.119924783706665,-0.8336334228515625
1771681486218628600,8.132628662109376,0.3414945602416992,1.0662813186645508,-0.8344606757164001
1771681486228986600,8.142986572265626,-0.14432811737060547,1.296396255493164,-1.535776138305664
1771681486239344400,8.153344482421875,-1.4357166290283203,-0.9040448069572449,-1.3959107398986816
1771681486249702400,8.163702392578125,0.15232467651367188,0.7533848881721497,-1.2536370754241943
1771681486260060200,8.17406005859375,-0.07293701171875,0.6609406471252441,-0.7442349195480347
1771681486270418000,8.18441796875,-0.4622945785522461,-1.1002269983291626,-0.4981742203235626
1771681486280776000,8.19477587890625,0.6291885375976562,0.1670764684677124,-0.651893675327301
1771681486291133700,8.2051337890625,0.710662841796875,0.6012686491012573,-0.32833459973335266
1771681486301491500,8.215491455078125,0.10691070556640625,-0.8131089210510254,0.06874886155128479
1771681486311849500,8.225849365234374,0.8223161697387695,-0.73542720079422,-0.479390025138855
1771681486322207200,8.236207275390624,0.30193042755126953,0.23014551401138306,-0.310079962015152
1771681486332565000,8.24656494140625,1.0837383270263672,-0.6760188937187195,-0.6792370080947876
1771681486342923000,8.256923095703126,1.0545368194580078,-0.9620950222015381,-1.328467845916748
1771681486353280800,8.26728076171875,0.5194616317749023,-1.5586609840393066,-1.0902142524719238
1771681486363638800,8.277638671875,1.7091255187988281,-0.42168307304382324,-1.1689469814300537
1771681486373996500,8.28799658203125,0.9959001541137695,-0.36381611227989197,-1.0594950914382935
1771681486384354600,8.2983544921875,0.4993743896484375,-1.2620710134506226,-0.24405553936958313
1771681486394712300,8.30871240234375,-0.06752681732177734,-0.6402355432510376,0.16458868980407715
1771681486405070000,8.319070068359375,1.3480596542358398,0.33617448806762695,0.16585519909858704
1771681486415428000,8.329427978515625,-0.06116485595703125,-0.6016004085540771,0.1559596061706543
1771681486425785900,8.339785888671875,0.6479225158691406,-0.7335517406463623,0.2134585678577423
1771681486436143600,8.3501435546875,0.7728261947631836,0.17823350429534912,0.371224582195282
1771681486446501600,8.360501708984375,0.2481975555419922,-0.6168437004089355,0.13797974586486816
1771681486456859400,8.370859375,-0.15579700469970703,-0.4436408281326294,0.27188724279403687
1771681486467217200,8.381217041015624,0.13576698303222656,-0.5502475500106812,0.22253307700157166
1771681486477575200,8.3915751953125,-0.47805118560791016,0.38187140226364136,0.0978040099143982
1771681486487933000,8.401932861328126,-0.9114599227905273,-1.2514196634292603,0.7784520387649536
1771681486498291000,8.412291015625,-0.6253414154052734,-0.1286625862121582,0.5504010915756226
1771681486508648700,8.422648681640625,-1.034658432006836,-0.22255274653434753,0.864516019821167
1771681486519006500,8.43300634765625,-0.4929485321044922,-0.2780749797821045,0.5539364814758301
1771681486529364500,8.443364501953125,-0.5827713012695312,-0.564911425113678,0.49371814727783203
1771681486539722200,8.45372216796875,0.65960693359375,-0.1333782970905304,0.35071876645088196
1771681486550080000,8.464080078125,-0.1037149429321289,-0.4380040168762207,0.645671010017395
1771681486560438000,8.47443798828125,-0.09411144256591797,-2.0772180557250977,0.5724772214889526
1771681486570795800,8.484795654296875,-0.17994117736816406,0.18261390924453735,-0.43012624979019165
1771681486581153800,8.49515380859375,0.6580829620361328,1.5336309671401978,-0.8150083422660828
1771681486591511600,8.505511474609374,-1.012162208557129,-1.4729970693588257,0.016878783702850342
1771681486601869300,8.515869384765624,-1.857170581817627,-1.5090891122817993,-0.40108543634414673
1771681486612227300,8.526227294921876,1.0115060806274414,0.2819467782974243,-0.11917446553707123
1771681486622585000,8.536585205078126,0.24502944946289062,-0.3304566442966461,-0.251014769077301
1771681486632943000,8.546943115234376,-0.008701324462890625,-2.0075466632843018,-0.022808104753494263
1771681486643300900,8.55730078125,1.1059961318969727,-0.04862147569656372,-0.3391937017440796
1771681486653658600,8.56765869140625,0.6234588623046875,0.07517683506011963,-0.02437952160835266
1771681486664016600,8.5780166015625,-0.33514404296875,-1.266029715538025,-0.3142119348049164
1771681486674374400,8.58837451171875,0.045330047607421875,-0.7020198106765747,-0.8904017210006714
1771681486684732200,8.598732177734375,-0.10259819030761719,0.006107807159423828,-1.0246316194534302
1771681486695090200,8.609090087890625,-0.5723590850830078,-0.8658010959625244,-0.9361701607704163
1771681486705448000,8.619447998046875,-0.024105072021484375,-1.1031980514526367,-1.2188969850540161
1771681486715806000,8.629805908203124,0.07408905029296875,-0.27804240584373474,-1.2176952362060547
1771681486726163700,8.640163818359374,0.33907127380371094,-0.5094383955001831,-0.9438962936401367
1771681486736521500,8.650521484375,0.46503639221191406,-0.9152356386184692,-0.7506794929504395
1771681486746879500,8.66087939453125,-0.015605926513671875,-0.27445608377456665,-0.5690139532089233
1771681486757237200,8.6712373046875,0.6243886947631836,-0.45383399724960327,-0.018290400505065918
1771681486767595000,8.681594970703125,-0.11439323425292969,-0.8718222379684448,-0.18756666779518127
1771681486777953000,8.691953125,-0.2188434600830078,-0.7322616577148438,-0.3681601285934448
1771681486788310800,8.702310791015625,0.335784912109375,-0.0198858380317688,-0.6553951501846313
1771681486798668800,8.712668701171875,-0.860600471496582,-0.06260097026824951,-0.6072543859481812
1771681486809026600,8.723026611328125,-0.10393905639648438,-1.212141990661621,-0.4650037884712219
1771681486819384300,8.73338427734375,-0.34689903259277344,-0.5630927681922913,-0.5217788219451904
1771681486829742300,8.743742431640625,0.18882465362548828,0.24524670839309692,-0.7987422943115234
1771681486840100000,8.75410009765625,0.021450042724609375,-0.3078018128871918,-0.9449378848075867
1771681486850457900,8.764457763671874,-0.2052021026611328,-0.5819078683853149,-0.8094925880432129
1771681486860816000,8.77481591796875,-0.11385440826416016,-0.3250744342803955,-0.3569958508014679
1771681486871173600,8.785173583984376,-0.0944061279296875,0.0033974647521972656,0.462772399187088
1771681486881531600,8.79553173828125,-0.3352222442626953,-1.069777488708496,0.3697802424430847
1771681486891889400,8.805889404296876,-0.17205142974853516,-0.9996774196624756,0.7954183220863342
1771681486902247200,8.8162470703125,-0.18835067749023438,-0.3446654975414276,0.5740349888801575
1771681486912605200,8.826605224609375,-0.1855478286743164,-0.5241819024085999,0.7001217603683472
1771681486922963000,8.836962890625,-0.41193580627441406,-1.0638419389724731,1.2068870067596436
1771681486933321000,8.847321044921875,0.35037803649902344,-0.6164507269859314,0.6770617961883545
1771681486943678700,8.8576787109375,0.06050586700439453,-0.8190217614173889,0.37655192613601685
1771681486954036500,8.868036376953125,0.3776664733886719,-0.9980123043060303,0.21992576122283936
1771681486964394500,8.87839453125,0.42189598083496094,-0.19543644785881042,0.033468782901763916
1771681486974752300,8.888752197265624,0.7548437118530273,-0.8057977557182312,0.49186068773269653
1771681486985110000,8.899110107421874,-0.07303905487060547,-1.38912832736969,0.7972283363342285
1771681486995468000,8.909468017578124,0.22536468505859375,-1.0860495567321777,0.73948073387146
1771681487005825800,8.91982568359375,0.08624744415283203,-0.9652033448219299,0.4930252134799957
1771681487016183800,8.930183837890626,0.10267162322998047,-0.9456628561019897,0.4140934348106384
1771681487026541600,8.94054150390625,-0.4251842498779297,-1.3151795864105225,0.3338642120361328
1771681487036899300,8.9508994140625,0.4183692932128906,-1.3047056198120117,0.38229769468307495
1771681487047257300,8.96125732421875,0.04246997833251953,-0.7258918881416321,0.3647294044494629
1771681487057615000,8.971614990234375,0.45754337310791016,-1.2819693088531494,-0.03241947293281555
1771681487067972900,8.981972900390625,-0.35765647888183594,-1.3522553443908691,-0.22041811048984528
1771681487078331000,8.992330810546875,0.2612771987915039,-1.2360610961914062,-0.45085692405700684
1771681487088688600,9.002688720703125,0.25807857513427734,-0.7474953532218933,-0.23457226157188416
1771681487099046700,9.013046630859375,0.0280914306640625,-1.5772550106048584,0.16319790482521057
1771681487109404400,9.023404296875,-0.24425220489501953,-2.0042009353637695,-0.015688687562942505
1771681487119762400,9.033762451171874,0.05212211608886719,-0.8662689924240112,-0.14852115511894226
1771681487130120200,9.0441201171875,-0.07710552215576172,-0.8307604789733887,-0.34157490730285645
1771681487140478000,9.05447802734375,-0.5902881622314453,-1.8384506702423096,-0.4911224842071533
1771681487150836000,9.0648359375,-0.6319684982299805,-1.5548489093780518,-0.2775631546974182
1771681487161193700,9.07519384765625,-0.04104423522949219,-1.5437437295913696,-0.15768812596797943
1771681487171551500,9.085551513671875,0.11400318145751953,-1.8022583723068237,-0.2555588185787201
1771681487181909500,9.095909423828125,0.030025482177734375,-1.8574875593185425,-0.35167521238327026
1771681487192267300,9.106267333984375,-0.08238983154296875,-1.2656809091567993,-0.8937667608261108
1771681487202625000,9.116625,0.47858428955078125,-2.026235342025757,-0.5829703211784363
1771681487212983000,9.126983154296875,-0.031098365783691406,-1.6394517421722412,-0.45534589886665344
1771681487223340800,9.1373408203125,-0.1314077377319336,-1.5110501050949097,-0.04783359169960022
1771681487233698800,9.14769873046875,0.04543113708496094,-1.8649849891662598,0.011821269989013672
1771681487244056600,9.158056640625,-0.23885822296142578,-1.771580457687378,0.13879406452178955
1771681487254414300,9.168414306640624,0.25090885162353516,-1.6709380149841309,-0.3031758666038513
1771681487264772400,9.1787724609375,-0.07684612274169922,-1.7233694791793823,-0.352531760931015
1771681487275130000,9.189130126953126,0.09509468078613281,-1.6898726224899292,-0.27097800374031067
1771681487285488000,9.199488037109376,0.3739919662475586,-1.8232898712158203,0.3787531554698944
1771681487295846000,9.209845947265626,0.32282161712646484,-2.197690010070801,0.10315260291099548
1771681487306203600,9.22020361328125,0.34100341796875,-2.2352890968322754,-0.3453786373138428
1771681487316561700,9.230561767578125,0.6837787628173828,-1.4467588663101196,-0.633803129196167
1771681487326919400,9.24091943359375,0.11153316497802734,-1.9706906080245972,-0.44867074489593506
1771681487337277200,9.251277099609375,0.2902345657348633,-1.5676586627960205,-0.07624253630638123
1771681487347635200,9.26163525390625,-0.4003591537475586,-1.6952059268951416,0.281686931848526
1771681487357993000,9.271992919921875,-0.08915233612060547,-2.2293128967285156,0.050662875175476074
1771681487368350700,9.282350830078125,0.3477487564086914,-2.2191898822784424,0.21860969066619873
1771681487378708700,9.292708740234374,0.4495248794555664,-1.8668458461761475,-0.42735180258750916
1771681487389066500,9.30306640625,0.016370773315429688,-1.9117223024368286,-0.24987655878067017
1771681487399424500,9.313424560546874,-0.1841449737548828,-2.3652613162994385,0.13688957691192627
1771681487409782300,9.3237822265625,-0.12163066864013672,-1.6598016023635864,0.27489718794822693
1771681487420140300,9.334140380859376,-0.24068832397460938,-2.0300636291503906,0.29359668493270874
1771681487430498000,9.344498046875,0.33513832092285156,-2.0227103233337402,0.03286221623420715
1771681487440855800,9.354855712890625,-0.047598838806152344,-1.3539140224456787,-0.3324224352836609
1771681487451213800,9.3652138671875,-0.2670869827270508,-1.992387056350708,-0.27162784337997437
1771681487461571600,9.375571533203125,-0.042064666748046875,-1.9657915830612183,0.14447477459907532
1771681487471929300,9.385929443359375,0.15852928161621094,-1.387535572052002,0.16534242033958435
1771681487482287400,9.396287353515625,-0.09250068664550781,-1.968029260635376,0.07397568225860596
1771681487492645000,9.40664501953125,-0.17802143096923828,-2.278388023376465,0.14314603805541992
1771681487503003100,9.417003173828125,0.2931852340698242,-1.5976861715316772,-0.04319140315055847
1771681487513361000,9.42736083984375,-0.019927024841308594,-1.288090705871582,-0.41724467277526855
1771681487523718700,9.43771875,-0.033720970153808594,-1.849653720855713,-0.09503674507141113
1771681487534076700,9.44807666015625,-0.023746490478515625,-2.3056325912475586,0.4005117416381836
1771681487544434400,9.458434326171876,-0.009260177612304688,-1.3465934991836548,0.31908008456230164
1771681487554792200,9.468792236328126,0.20967864990234375,-1.5351202487945557,0.41814321279525757
1771681487565150200,9.479150146484375,-0.2762184143066406,-1.5887998342514038,0.23822247982025146
1771681487575508000,9.489508056640625,-0.050495147705078125,-1.874648094177246,-0.34080037474632263
1771681487585866000,9.499865966796875,0.1432485580444336,-1.1226131916046143,-0.054122358560562134
1771681487596223700,9.5102236328125,-0.01212310791015625,-1.8888705968856812,0.2820848524570465
1771681487606581500,9.52058154296875,0.26567935943603516,-1.5862576961517334,0.10693693161010742
1771681487616939500,9.530939453125,0.7082881927490234,-1.558976173400879,-0.16472285985946655
1771681487627297300,9.54129736328125,0.021162986755371094,-2.092698097229004,-0.07884395122528076
1771681487637655300,9.5516552734375,0.14548969268798828,-1.8979506492614746,-0.48156803846359253
1771681487648013000,9.562012939453124,0.35482120513916016,-0.9959790110588074,-0.5440042018890381
1771681487658370800,9.572370849609374,0.019494056701660156,-1.3486765623092651,-0.18421949446201324
1771681487668728800,9.582728759765626,-0.07730770111083984,-2.0770423412323,0.4259226322174072
1771681487679086600,9.593086669921876,0.0086822509765625,-1.5293066501617432,0.20497441291809082
1771681487689444600,9.603444580078126,0.5285100936889648,-1.1957166194915771,0.028081566095352173
1771681487699802400,9.61380224609375,0.4938182830810547,-1.493318796157837,-0.13222874701023102
1771681487710160100,9.62416015625,0.07143974304199219,-1.9538764953613281,-0.2756754755973816
1771681487720518100,9.63451806640625,0.3949098587036133,-1.0494180917739868,-0.15319055318832397
1771681487730876000,9.6448759765625,0.5694999694824219,-0.9688926935195923,0.37605342268943787
1771681487741233700,9.655233642578125,-0.505894660949707,-1.6849451065063477,0.16991093754768372
1771681487751591700,9.665591796875,-0.23163700103759766,-1.2366158962249756,0.031170755624771118
1771681487761949400,9.675949462890625,0.028693199157714844,-0.4654219448566437,-0.15286530554294586
1771681487772307500,9.686307373046875,-0.7011861801147461,-1.6693121194839478,-0.35048744082450867
1771681487782665200,9.696665283203124,-0.3718595504760742,-0.9053938388824463,-0.4461044669151306
1771681487793023000,9.70702294921875,0.42732906341552734,-0.48276761174201965,-0.19709764420986176
1771681487803381000,9.717381103515624,-0.05740928649902344,-1.7921981811523438,0.5325312614440918
1771681487813738800,9.72773876953125,0.2541236877441406,-1.3980152606964111,0.3022457957267761
1771681487824096500,9.738096435546876,0.7063474655151367,-0.8337478637695312,0.13487020134925842
1771681487834454500,9.74845458984375,0.1275043487548828,-0.8507710099220276,-0.25812989473342896
1771681487844812300,9.758812255859375,-0.21349716186523438,-1.7974084615707397,-0.4607251286506653
1771681487855170300,9.76917041015625,0.05355644226074219,-0.370688259601593,-0.1547393947839737
1771681487865528000,9.779528076171875,-0.1544322967529297,-1.1436022520065308,0.3379080295562744
1771681487875885800,9.7898857421875,0.2128152847290039,-1.377064824104309,0.209477961063385
1771681487886243800,9.800243896484375,-0.12962722778320312,-0.9736946225166321,-0.005046099424362183
1771681487896601600,9.8106015625,0.3077878952026367,-0.9133944511413574,-0.18855735659599304
1771681487906959600,9.820959716796875,-0.15386199951171875,-0.9859226942062378,-0.45122796297073364
1771681487917317400,9.8313173828125,0.10985946655273438,-1.0313574075698853,-0.5998450517654419
1771681487927675100,9.841675048828124,0.2115793228149414,-0.48507463932037354,-0.3464655578136444
1771681487938033200,9.852033203125,-0.34958362579345703,-1.3149577379226685,0.10058662295341492
1771681487948391000,9.862390869140626,0.037413597106933594,-0.8938538432121277,0.18663671612739563
1771681487958749000,9.8727490234375,-0.20551204681396484,-0.4506763815879822,-0.050868064165115356
1771681487969106700,9.883106689453125,-0.42322635650634766,-0.871658205986023,-0.322353333234787
1771681487979464400,9.89346435546875,-0.825531005859375,-0.657267689704895,-0.36603012681007385
1771681487989822500,9.903822509765625,-0.3716716766357422,-1.0247786045074463,-0.315091609954834
1771681488000180200,9.91418017578125,-0.31122303009033203,-0.355396032333374,-0.23274050652980804
1771681488010538200,9.924538330078125,-0.1059112548828125,-1.0146359205245972,0.3619769811630249
1771681488020896000,9.93489599609375,0.31717967987060547,-0.6605920195579529,0.1248171329498291
1771681488031253800,9.945253662109375,-0.39385032653808594,-0.8746224045753479,0.017162680625915527
1771681488041611800,9.95561181640625,0.25754356384277344,-0.6855766177177429,-0.1553116738796234
1771681488051969500,9.965969482421874,-0.6077795028686523,-0.31801533699035645,-0.13135913014411926
1771681488062327300,9.976327392578124,-0.006886482238769531,-0.9355254173278809,-0.04549485445022583
1771681488072685300,9.986685302734376,-0.9783782958984375,-0.6910497546195984,0.2134627103805542
1771681488083043000,9.99704296875,0.08988189697265625,-0.6220493316650391,0.5176970958709717
1771681488093401000,10.007401123046876,-0.33492374420166016,-0.8434266448020935,0.4353128969669342
1771681488103758800,10.0177587890625,-0.17385292053222656,-0.7294727563858032,0.190207839012146
1771681488114116600,10.02811669921875,0.07867240905761719,-0.5114759206771851,-0.02529957890510559
1771681488124474600,10.038474609375,-0.03773307800292969,-0.8667075037956238,-0.10303473472595215
1771681488134832400,10.048832275390625,0.12308502197265625,-0.8138421177864075,0.21095147728919983
1771681488145190400,10.0591904296875,0.33536815643310547,-0.674557089805603,0.5008714199066162
1771681488155548200,10.069548095703125,-0.12416934967041016,-0.8790810108184814,0.6147283315658569
1771681488165906000,10.079906005859375,0.08040237426757812,-0.6332039833068848,0.5482777953147888
1771681488176264000,10.090263916015624,0.0345001220703125,-0.5513644218444824,0.40094467997550964
1771681488186621700,10.10062158203125,0.13054656982421875,-0.6991229057312012,0.11006352305412292
1771681488196979700,10.110979736328124,0.21325206756591797,-0.4771749973297119,0.19808849692344666
1771681488207337500,10.12133740234375,0.2263011932373047,-0.8144649267196655,0.2756030559539795
1771681488217695200,10.1316953125,-0.029114723205566406,-0.8121452331542969,0.5259866118431091
1771681488228053200,10.14205322265625,0.6185216903686523,-0.5393329858779907,0.7468754649162292
1771681488238411000,10.152410888671875,0.10004615783691406,-0.8452476263046265,0.3738563358783722
1771681488248769000,10.16276904296875,0.4984283447265625,-0.581415057182312,0.2097228467464447
1771681488259126800,10.173126708984375,0.017187118530273438,-0.5765269994735718,-0.03414991497993469
1771681488269484500,10.183484619140625,0.00047206878662109375,-0.44640564918518066,0.24206134676933289
1771681488279842600,10.193842529296875,0.15812301635742188,-0.7731235027313232,0.5271115303039551
1771681488290200300,10.204200439453125,-0.1786336898803711,-0.30332648754119873,0.6582716703414917
1771681488300558000,10.21455810546875,0.6478919982910156,-0.43195641040802,0.4620266556739807
1771681488310916000,10.224916015625,-0.1488628387451172,-0.6292883157730103,0.3338468670845032
1771681488321273900,10.23527392578125,0.6229333877563477,-0.4518183469772339,0.23119544982910156
1771681488331631900,10.2456318359375,0.10422420501708984,-0.1831270456314087,0.16084527969360352
1771681488341989600,10.25598974609375,0.2670307159423828,-0.11710906028747559,-0.11054712533950806
1771681488352347400,10.266347412109376,0.3024148941040039,0.23014867305755615,0.1520290970802307
1771681488362705400,10.276705322265625,0.5160369873046875,0.3385537266731262,0.3486834764480591
1771681488373063200,10.287063232421875,0.21073532104492188,0.3858834505081177,0.2082849144935608
1771681488383421200,10.297421142578125,0.562291145324707,1.0204741954803467,-0.26203179359436035
1771681488393779000,10.307779052734375,0.23269081115722656,1.3548930883407593,-0.3577515780925751
1771681488404136700,10.31813671875,-0.11664772033691406,0.7361805438995361,-0.4748918116092682
1771681488414494700,10.32849462890625,0.38219642639160156,1.1185959577560425,-0.11029434204101562
1771681488424852500,10.3388525390625,0.3498992919921875,1.0418381690979004,0.2681378126144409
1771681488435210500,10.34921044921875,0.503809928894043,0.8860105276107788,-0.020416200160980225
1771681488445568300,10.359568359375,0.06773185729980469,1.109825611114502,-0.057072728872299194
1771681488455926000,10.369926025390624,0.44185924530029297,1.0368019342422485,-0.22986891865730286
1771681488466284000,10.380283935546874,0.058403968811035156,1.1618800163269043,-0.4093308448791504
1771681488476641800,10.390641845703126,0.17714309692382812,1.0119761228561401,-0.4598178267478943
1771681488486999800,10.400999755859376,-0.1865520477294922,1.3087291717529297,-0.38623782992362976
1771681488497357600,10.411357666015626,0.09987640380859375,1.1511778831481934,-0.03113219141960144
1771681488507715300,10.42171533203125,-0.31615352630615234,0.9797019362449646,0.08710867166519165
1771681488518073300,10.4320732421875,-0.034171104431152344,1.200278878211975,-0.031131207942962646
1771681488528431000,10.44243115234375,-0.23502159118652344,1.1244078874588013,-0.32097142934799194
1771681488538788900,10.452788818359375,-0.11789894104003906,1.258897066116333,-0.4550618529319763
1771681488549147000,10.46314697265625,-0.41158580780029297,0.9491720795631409,-0.39809542894363403
1771681488559504600,10.473504638671875,-0.31545162200927734,1.1845437288284302,-0.16257920861244202
1771681488569862700,10.483862548828125,-0.0023164749145507812,1.19528067111969,0.05074700713157654
1771681488580220400,10.494220458984374,0.01885223388671875,1.315845251083374,-0.08262166380882263
1771681488590578200,10.504578125,-0.13665390014648438,1.2692146301269531,-0.10071876645088196
1771681488600936200,10.514936279296874,-0.06500434875488281,1.1821900606155396,-0.16907677054405212
1771681488611294000,10.5252939453125,-0.2727622985839844,1.2316839694976807,-0.3447977304458618
1771681488621652000,10.53565185546875,-0.29617786407470703,1.1429340839385986,-0.2290046364068985
1771681488632009700,10.546009765625,-0.3266725540161133,1.0927212238311768,0.04384171962738037
1771681488642367700,10.55636767578125,-0.2878704071044922,0.8996146321296692,0.4047013223171234
1771681488652725500,10.5667255859375,0.1852426528930664,1.0697790384292603,0.43518713116645813
1771681488663083300,10.577083251953125,-0.08748245239257812,1.433282494544983,0.05039343237876892
1771681488673441300,10.587441162109375,-0.08503913879394531,1.2206515073776245,-0.2809220254421234
1771681488683799000,10.597799072265625,-0.31648731231689453,1.2808401584625244,-0.4802587628364563
1771681488694156800,10.60815673828125,-0.24658679962158203,1.1597893238067627,-0.17541727423667908
1771681488704514800,10.618514892578125,-0.11954975128173828,1.07968008518219,0.15686467289924622
1771681488714872600,10.62887255859375,-0.3890409469604492,1.2675278186798096,0.21933779120445251
1771681488725230600,10.639230712890624,-0.09215831756591797,1.0323009490966797,0.09244894981384277
1771681488735588400,10.64958837890625,-0.49534034729003906,1.261196494102478,0.026083260774612427
1771681488745946000,10.659946044921876,-0.05731487274169922,1.0122743844985962,-0.1742245852947235
1771681488756304100,10.67030419921875,-0.22184181213378906,1.341712474822998,-0.31706702709198
1771681488766662000,10.680661865234375,-0.2928352355957031,1.1120600700378418,-0.30465272068977356
1771681488777020000,10.69102001953125,-0.2610054016113281,1.2290737628936768,0.003448009490966797
1771681488787377700,10.701377685546875,-0.4966144561767578,0.8944281339645386,0.2059398591518402
1771681488797735400,10.7117353515625,-0.03944110870361328,1.3078795671463013,0.17895957827568054
1771681488808093400,10.722093505859375,-0.0846567153930664,0.9588354229927063,-0.07463440299034119
1771681488818451200,10.732451171875,-0.3914661407470703,1.0818088054656982,-0.44052138924598694
1771681488828809000,10.74280908203125,0.03865623474121094,1.1983442306518555,-0.4032015800476074
1771681488839167000,10.7531669921875,-0.35253047943115234,0.6819809675216675,-0.13850969076156616
1771681488849524700,10.763524658203124,0.14516258239746094,1.0895211696624756,-0.038408637046813965
1771681488859882800,10.7738828125,-0.06426239013671875,1.2432100772857666,0.20825928449630737
1771681488870240500,10.784240478515626,-0.09375572204589844,0.9165078997612,0.07230648398399353
1771681488880598300,10.794598388671876,-0.1651449203491211,0.8489418625831604,-0.13195860385894775
1771681488890956300,10.804956298828126,-0.1600484848022461,1.2296901941299438,-0.23144757747650146
1771681488901314000,10.81531396484375,0.021462440490722656,0.8793950080871582,-0.46870502829551697
1771681488911672000,10.825672119140625,-0.4330148696899414,0.8899961709976196,-0.30663394927978516
1771681488922029800,10.83602978515625,-0.18814563751220703,0.8345438838005066,0.10673925280570984
1771681488932387800,10.846387939453125,-0.20384693145751953,0.685828685760498,0.33469313383102417
1771681488942745600,10.85674560546875,-0.14165878295898438,0.9630578756332397,0.3215654194355011
1771681488953103400,10.867103271484375,-0.03815460205078125,1.106255292892456,-0.14069485664367676
1771681488963461400,10.87746142578125,-0.28931140899658203,0.9671331644058228,-0.3528903126716614
1771681488973819100,10.887819091796874,-0.075103759765625,0.8135539889335632,-0.18556785583496094
1771681488984177000,10.898177001953124,-0.32094764709472656,0.8695878982543945,-0.013676613569259644
1771681488994535000,10.908534912109374,0.16202068328857422,0.8165145516395569,0.348167359828949
1771681489004892700,10.918892578125,-0.27130889892578125,0.9289675951004028,0.23363330960273743
1771681489015250700,10.929250732421876,-0.0033082962036132812,0.8278381824493408,0.17548668384552002
1771681489025608400,10.9396083984375,-0.2385997772216797,0.8225064277648926,0.1395392119884491
1771681489035966200,10.94996630859375,-0.2958564758300781,0.7419726848602295,-0.03450667858123779
1771681489046324200,10.96032421875,-0.12860107421875,1.0323808193206787,-0.23190002143383026
1771681489056682000,10.970681884765625,-0.07470512390136719,0.9322450160980225,-0.09195464849472046
1771681489067040000,10.9810400390625,-0.0405426025390625,0.5960639119148254,0.27642396092414856
1771681489077397800,10.991397705078125,0.19774436950683594,0.7642425298690796,0.3682522773742676
1771681489087755500,11.001755615234375,0.161468505859375,0.9086814522743225,0.2753830552101135
1771681489098113500,11.012113525390625,0.052842140197753906,0.7964663505554199,-0.0722305178642273
1771681489108471300,11.02247119140625,-0.3645515441894531,0.7825980186462402,-0.26370206475257874
1771681489118829000,11.0328291015625,-0.21025943756103516,0.761899471282959,-0.17947420477867126
1771681489129187000,11.04318701171875,-0.47973060607910156,0.6357894539833069,0.09201821684837341
1771681489139544800,11.053544921875,0.4952993392944336,0.7024869918823242,0.2836245596408844
1771681489149902800,11.06390283203125,-0.29888153076171875,0.6455322504043579,0.18051618337631226
1771681489160260600,11.074260498046876,0.2189788818359375,0.7355965375900269,-0.049730390310287476
1771681489170618600,11.08461865234375,-0.04823780059814453,0.49667081236839294,-0.17817524075508118
1771681489180976400,11.094976318359375,-0.1863117218017578,0.706623375415802,-0.2851595878601074
1771681489191334100,11.105334228515625,0.1932535171508789,0.4940776228904724,-0.29492712020874023
1771681489201692200,11.115692138671875,-0.014689445495605469,0.89219731092453,-0.24552200734615326
1771681489212050000,11.1260498046875,0.10318470001220703,0.25761452317237854,0.12299799919128418
1771681489222408000,11.136407958984375,0.012028694152832031,0.8479076623916626,0.2526782155036926
1771681489232765700,11.146765625,-0.09645557403564453,0.40954434871673584,0.08663594722747803
1771681489243123500,11.15712353515625,-0.13723182678222656,0.9550838470458984,-0.20158889889717102
1771681489253481500,11.1674814453125,-0.3114442825317383,0.4424816966056824,-0.21659469604492188
1771681489263839200,11.177839111328124,-0.11333465576171875,0.3262985348701477,-0.2175958752632141
1771681489274197000,11.188197021484376,0.22736263275146484,0.7818291187286377,-0.023165494203567505
1771681489284555000,11.198554931640626,0.2988605499267578,0.4321786165237427,0.13960283994674683
1771681489294912800,11.208912841796876,0.020923614501953125,0.6857516765594482,-0.024989843368530273
1771681489305270800,11.219270751953125,-0.21709823608398438,0.5470501184463501,-0.0005868971347808838
1771681489315628500,11.229628662109375,-0.19937515258789062,0.5071337223052979,-0.2710143029689789
1771681489325986300,11.239986328125,-0.25016212463378906,0.5457777976989746,-0.341946005821228
1771681489336344300,11.25034423828125,-0.2035980224609375,0.5016142129898071,-0.3606029450893402
1771681489346702000,11.2607021484375,-0.3084087371826172,0.7807207107543945,-0.10099658370018005
1771681489357060000,11.27106005859375,-0.02086162567138672,0.17523877322673798,0.13732317090034485
1771681489367417900,11.28141796875,0.033661842346191406,0.7704289555549622,0.14101728796958923
1771681489377775600,11.291775634765624,-0.03508567810058594,0.5090665817260742,-0.11145469546318054
1771681489388133600,11.302133544921874,-0.02971935272216797,0.7437025308609009,-0.4192166030406952
1771681489398491400,11.312491455078124,-0.3609132766723633,0.5252608060836792,-0.48178794980049133
1771681489408849400,11.322849365234376,-0.20656108856201172,0.2352287769317627,-0.22627997398376465
1771681489419207200,11.333207275390626,-0.12300395965576172,0.844566285610199,0.006020039319992065
1771681489429565000,11.34356494140625,-0.2032022476196289,0.33080345392227173,0.28169041872024536
1771681489439923000,11.3539228515625,-0.2279510498046875,0.6118418574333191,0.004772484302520752
1771681489450280700,11.36428076171875,0.008868217468261719,0.2693662643432617,-0.02239680290222168
1771681489460638700,11.374638671875,-0.13942432403564453,0.5585423707962036,0.0024068355560302734
1771681489470996500,11.38499658203125,0.07240104675292969,0.34896671772003174,-0.08608150482177734
1771681489481354200,11.395354248046875,0.061881065368652344,0.3568795919418335,-0.048633694648742676
1771681489491712300,11.405712158203125,-0.03788566589355469,0.24459411203861237,0.2730778753757477
1771681489502070000,11.416070068359375,0.2569446563720703,0.2752922475337982,0.5848435163497925
1771681489512428000,11.426427978515624,0.3162546157836914,0.3455345332622528,0.47066280245780945
1771681489522785800,11.436785888671874,0.27809715270996094,0.2967786490917206,0.1115102767944336
1771681489533143600,11.4471435546875,0.033504486083984375,0.4324355125427246,-0.22493885457515717
1771681489543501600,11.45750146484375,0.08241081237792969,0.0974152609705925,0.010973125696182251
1771681489553859300,11.467859375,0.24813270568847656,0.1348569691181183,0.27149540185928345
1771681489564217000,11.478217041015625,0.48401737213134766,0.3200301229953766,0.568042516708374
1771681489574575000,11.4885751953125,0.4288768768310547,0.2620565891265869,0.6039125919342041
1771681489584932900,11.498932861328125,0.18639183044433594,0.08938766270875931,0.5643206834793091
1771681489595291000,11.509290771484375,0.1479206085205078,0.4373052716255188,0.35888296365737915
1771681489605648600,11.519648681640625,0.26538753509521484,0.1936032474040985,0.18033772706985474
1771681489616006400,11.53000634765625,0.0914773941040039,0.2550879716873169,0.06371712684631348
1771681489626364400,11.540364501953125,0.3039979934692383,0.3155481219291687,0.08309680223464966
1771681489636722200,11.55072216796875,0.13883495330810547,0.3138185441493988,0.5308806896209717
1771681489647080200,11.561080078125,0.22110843658447266,-0.09519342333078384,0.6374524235725403
1771681489657438000,11.57143798828125,0.1560964584350586,0.4155499339103699,0.39456677436828613
1771681489667795700,11.581795654296876,0.20040225982666016,0.32025349140167236,-0.15721145272254944
1771681489678153700,11.59215380859375,0.16634464263916016,0.19330020248889923,-0.35904598236083984
1771681489688511500,11.602511474609376,-0.09539413452148438,0.15787211060523987,-0.11720791459083557
1771681489698869500,11.612869384765625,0.343719482421875,0.17467620968818665,0.03552374243736267
1771681489709227300,11.623227294921875,0.14963722229003906,0.15336573123931885,0.18794092535972595
1771681489719585000,11.6335849609375,0.2740774154663086,0.3182220458984375,0.04617592692375183
1771681489729943000,11.643943115234375,0.019968032836914062,0.21233610808849335,0.0221920907497406
1771681489740300800,11.65430078125,-0.06754112243652344,-0.02398119866847992,-0.2346411645412445
1771681489750658800,11.664658935546875,-0.026518821716308594,0.2659938335418701,-0.4497936964035034
1771681489761016600,11.6750166015625,0.11503219604492188,0.4454393684864044,-0.4573322534561157
1771681489771374300,11.685374267578124,-0.34577369689941406,-0.18540790677070618,-0.2600996494293213
1771681489781732400,11.695732421875,0.043463706970214844,0.07401035726070404,0.03954190015792847
1771681489792090000,11.706090087890624,0.05678844451904297,0.32687249779701233,0.06149470806121826
1771681489802448100,11.7164482421875,0.1851959228515625,0.06245557963848114,-0.17827925086021423
1771681489812806000,11.726805908203126,-0.12852764129638672,0.27520811557769775,-0.5178321003913879
1771681489823163600,11.73716357421875,-0.08405876159667969,0.30088895559310913,-0.5909802913665771
1771681489833521700,11.747521728515625,-0.26854801177978516,0.0012543778866529465,-0.36686959862709045
1771681489843879400,11.75787939453125,-0.031134605407714844,0.09231747686862946,-0.21720530092716217
1771681489854237200,11.7682373046875,0.1058645248413086,0.39145711064338684,0.0003064572811126709
1771681489864595200,11.77859521484375,-0.18530845642089844,0.07613998651504517,-0.1739187240600586
1771681489874953000,11.788952880859375,-0.3328075408935547,-0.06494349241256714,-0.1710607409477234
1771681489885311000,11.79931103515625,-0.18372058868408203,0.36815956234931946,-0.5120259523391724
1771681489895668700,11.809668701171875,0.04055595397949219,0.16599911451339722,-0.4761585593223572
1771681489906026800,11.82002685546875,-0.42124271392822266,0.07984675467014313,-0.45772871375083923
1771681489916384500,11.830384521484374,-0.0024166107177734375,0.16683445870876312,-0.19230009615421295
1771681489926742300,11.8407421875,-0.014090538024902344,0.2407921850681305,0.08257642388343811
1771681489937100300,11.851100341796876,-0.25382328033447266,0.005220343358814716,0.05689308047294617
1771681489947458000,11.8614580078125,0.0633859634399414,0.42769303917884827,-0.18024957180023193
1771681489957816000,11.871816162109376,-0.1423358917236328,0.45061591267585754,-0.35467779636383057
1771681489968173800,11.882173828125,-0.5257997512817383,-0.2683836817741394,-0.3522040843963623
1771681489978531600,11.892531494140625,-0.43698692321777344,0.30001839995384216,-0.2440110296010971
1771681489988889600,11.9028896484375,-0.06022357940673828,0.46866849064826965,0.19130060076713562
1771681489999247400,11.913247314453125,-0.18620777130126953,0.4410168528556824,0.1887684464454651
1771681490009605000,11.923605224609375,0.23576641082763672,1.571895956993103,0.17042267322540283
1771681490019963100,11.933963134765625,0.15897274017333984,-0.7014049291610718,-0.22723892331123352
1771681490030321000,11.94432080078125,-1.1330022811889648,-0.893392026424408,-0.45833590626716614
1771681490040679000,11.954678955078125,-0.4552268981933594,1.0146647691726685,-0.46873939037323
1771681490051036700,11.96503662109375,0.9383554458618164,2.119344711303711,-0.2118968814611435
1771681490061394400,11.97539453125,-0.24896717071533203,0.7662779092788696,0.3660418391227722
1771681490071752400,11.98575244140625,-0.3174705505371094,-2.554443836212158,1.0290882587432861
1771681490082110200,11.996110107421876,-0.8679285049438477,0.12603294849395752,0.3917946517467499
1771681490092468200,12.00646826171875,1.2967901229858398,2.251645803451538,-0.16684354841709137
1771681490102826000,12.016825927734375,0.24588394165039062,1.2402302026748657,-0.5017757415771484
1771681490113183700,12.027183837890625,-0.3919181823730469,-0.7141538858413696,-0.18270988762378693
1771681490123541800,12.037541748046875,-0.6175365447998047,-0.8407273292541504,0.21565452218055725
1771681490133899500,12.0478994140625,0.5799522399902344,0.8115772604942322,0.28627729415893555
1771681490144257500,12.058257568359375,-0.12786579132080078,1.3687673807144165,0.49290069937705994
1771681490154615300,12.068615234375,0.6220293045043945,1.0796797275543213,0.2366463840007782
1771681490164973000,12.07897314453125,-0.6826276779174805,-0.2754817306995392,0.21481961011886597
1771681490175331000,12.0893310546875,-0.33948707580566406,-0.5007935166358948,-0.06234312057495117
1771681490185688800,12.099688720703124,-0.7084732055664062,0.417508602142334,-0.1456037163734436
1771681490196046800,12.110046875,0.8854570388793945,2.110048770904541,-0.38429805636405945
1771681490206404600,12.120404541015626,-0.4150524139404297,0.528204619884491,-0.09264317154884338
1771681490216762400,12.130762451171876,0.027670860290527344,0.05805487930774689,0.4159836173057556
1771681490227120400,12.141120361328126,-0.9127187728881836,-0.6810110807418823,0.704497218132019
1771681490237478100,12.15147802734375,0.4048042297363281,1.1743710041046143,0.20689696073532104
1771681490247836000,12.1618359375,-0.643986701965332,1.235489010810852,-0.03313818573951721
1771681490258194000,12.17219384765625,0.10955333709716797,0.5997565984725952,-0.4738788604736328
1771681490268551700,12.1825517578125,-1.2559700012207031,0.24268457293510437,0.09245637059211731
1771681490278909700,12.19290966796875,-0.030730247497558594,0.11118699610233307,0.19627803564071655
1771681490289267500,12.203267333984375,-0.6130847930908203,0.4647979736328125,0.8839049935340881
1771681490299625200,12.213625244140625,0.6224069595336914,0.77278733253479,0.5741926431655884
1771681490309983200,12.223983154296874,-0.5273275375366211,-0.03948626667261124,0.5317476391792297
1771681490320341000,12.234341064453124,0.15177154541015625,0.8211719989776611,0.07348120212554932
1771681490330699000,12.244698974609374,-0.48603343963623047,0.31710612773895264,0.3646204173564911
1771681490341056800,12.255056884765626,-0.2748422622680664,0.017427265644073486,-0.09617394208908081
1771681490351414500,12.26541455078125,-0.6370944976806641,-0.36020326614379883,0.6464395523071289
1771681490361772500,12.2757724609375,0.4433135986328125,0.6975363492965698,-0.04720407724380493
1771681490372130300,12.28613037109375,-0.2787942886352539,0.23516280949115753,0.0920369029045105
1771681490382488000,12.296488037109375,0.9105472564697266,0.4056508541107178,-0.48872312903404236
1771681490392846000,12.30684619140625,-1.02044677734375,0.11310355365276337,0.16919293999671936
1771681490403203800,12.317203857421875,0.4141864776611328,-0.17700883746147156,0.10435518622398376
1771681490413561900,12.327561767578125,-0.4772195816040039,0.4144642949104309,0.3798551857471466
1771681490423919600,12.337919677734375,0.09199714660644531,-0.11466479301452637,0.2575835883617401
1771681490434277600,12.348277587890625,0.31607627868652344,0.36189770698547363,-0.09792226552963257
1771681490444635400,12.358635498046874,-0.028455734252929688,0.8350629806518555,-0.2930537462234497
1771681490454993200,12.3689931640625,0.37255287170410156,0.1135091781616211,-0.21522778272628784
1771681490465351200,12.37935107421875,-0.34682559967041016,-0.3063760995864868,-0.04996350407600403
1771681490475709000,12.389708984375,0.9500465393066406,0.7716559767723083,0.1801365613937378
1771681490486067000,12.40006689453125,-0.14310264587402344,0.6676428318023682,-0.26711738109588623
1771681490496424700,12.4104248046875,0.2772674560546875,0.902769923210144,-0.31750303506851196
1771681490506782500,12.420782470703125,0.20978927612304688,0.0030146539211273193,-0.5922274589538574
1771681490517140500,12.431140380859375,-0.08434295654296875,0.22947043180465698,-0.4420582354068756
1771681490527498200,12.441498291015625,0.3073587417602539,0.8102567195892334,-0.07655331492424011
1771681490537856000,12.45185595703125,0.9319448471069336,1.5740636587142944,-0.12879079580307007
1771681490548214000,12.462214111328125,0.01787567138671875,-0.10168924927711487,-0.22674372792243958
1771681490558571800,12.47257177734375,0.7745018005371094,0.44840145111083984,0.009704887866973877
1771681490568929800,12.4829296875,-0.10097789764404297,0.01134335994720459,0.2718827426433563
1771681490579287600,12.49328759765625,0.21438217163085938,0.3914235234260559,0.34245985746383667
1771681490589645300,12.503645263671874,-0.27779388427734375,1.049743413925171,0.3817726969718933
1771681490600003300,12.51400341796875,0.7086896896362305,0.9646611213684082,-0.18012046813964844
1771681490610361000,12.524361083984376,-0.0018739700317382812,0.6454405784606934,-0.24092347919940948
1771681490620719000,12.534718994140626,-0.20471858978271484,0.6165659427642822,-0.30271607637405396
1771681490631076900,12.545076904296875,0.04650306701660156,-0.7087852358818054,0.0020998120307922363
1771681490641435000,12.555434814453125,-0.32828712463378906,0.4205864667892456,0.3712819218635559
1771681490651792600,12.565792724609375,0.4458942413330078,0.8794295787811279,0.4798772633075714
1771681490662150400,12.576150390625,0.37796592712402344,0.3728957772254944,0.38789668679237366
1771681490672508400,12.58650830078125,-0.23400592803955078,0.35478392243385315,0.2748546004295349
1771681490682866200,12.5968662109375,-0.21672630310058594,0.13640910387039185,0.11228230595588684
1771681490693224000,12.607223876953125,-0.025247573852539062,0.2602657675743103,0.4033700227737427
1771681490703582000,12.61758203125,-0.17559337615966797,0.8856567144393921,0.5318036079406738
1771681490713939700,12.627939697265624,0.037212371826171875,0.26380181312561035,0.36438319087028503
1771681490724297700,12.638297607421874,0.0680990219116211,0.9661191701889038,0.02032110095024109
1771681490734655500,12.648655517578124,-0.20184898376464844,0.21604377031326294,-0.08168655633926392
1771681490745013200,12.65901318359375,-0.3541555404663086,-0.2081024944782257,0.12684860825538635
1771681490755371300,12.669371337890626,-0.05017566680908203,0.6294955015182495,0.32469457387924194
1771681490765729000,12.67972900390625,-0.014292716979980469,0.6607638597488403,0.19761961698532104
1771681490776086800,12.690086669921875,0.12653160095214844,0.7564663887023926,-0.31844353675842285
1771681490786444800,12.70044482421875,0.06173896789550781,0.5559698343276978,-0.11723002791404724
1771681490796802600,12.710802490234375,-0.6401796340942383,0.09329520165920258,-0.13365879654884338
1771681490807160600,12.72116064453125,-0.2137451171875,0.44072672724723816,0.3415193557739258
1771681490817518300,12.731518310546875,-0.07479667663574219,1.5395708084106445,0.3355717062950134
1771681490827876000,12.7418759765625,-0.4350881576538086,0.3637625575065613,0.1418885588645935
1771681490838234000,12.752234130859375,-0.24308204650878906,0.41961953043937683,-0.018515974283218384
1771681490848592000,12.762591796875,-0.6435203552246094,0.3921700417995453,0.015249252319335938
1771681490858950000,12.772949951171874,-0.13833141326904297,0.10468801856040955,-0.008603990077972412
1771681490869307600,12.7833076171875,-0.027840614318847656,0.6083176732063293,-0.11163172125816345
1771681490879665400,12.79366552734375,0.3466815948486328,1.0521509647369385,-0.27875977754592896
1771681490890023400,12.8040234375,0.04908275604248047,0.34035617113113403,-0.10681349039077759
1771681490900381200,12.814381103515625,-0.24825382232666016,0.0892166793346405,-0.18472616374492645
1771681490910739200,12.8247392578125,-0.26299095153808594,-0.18108826875686646,0.5033683776855469
1771681490921097000,12.835096923828125,-0.06802082061767578,0.10084974765777588,0.433256596326828
1771681490931454700,12.845454833984375,-0.7069282531738281,0.9643869400024414,-0.19500857591629028
1771681490941812700,12.855812744140625,0.4507150650024414,0.4841262698173523,-0.2603508234024048
1771681490952170500,12.86617041015625,-0.3191413879394531,0.5225272178649902,-0.6923986077308655
1771681490962528500,12.876528564453125,-0.5585231781005859,-0.05394811928272247,-0.3265951871871948
1771681490972886300,12.88688623046875,0.1661386489868164,-0.12023993581533432,-0.16075095534324646
1771681490983244000,12.897244140625,0.16109275817871094,1.005162239074707,-0.18862679600715637
1771681490993602000,12.90760205078125,0.09022045135498047,0.1777508556842804,0.337455689907074
1771681491003959800,12.917959716796876,0.5994129180908203,0.535407304763794,-0.021564841270446777
1771681491014317600,12.928317626953126,-0.5564002990722656,-0.16429227590560913,-0.21845394372940063
1771681491024675600,12.938675537109376,-0.0646657943725586,-0.3897075057029724,-0.06908690929412842
1771681491035033300,12.949033447265625,-0.1340789794921875,1.497300624847412,-0.06103512644767761
1771681491045391400,12.959391357421875,0.25173091888427734,0.4735318720340729,-0.17473497986793518
