time,seconds_elapsed,z,y,x
1771681478201634000,0.115634033203125,-0.005879404954612255,0.007559234742075205,-0.03749075159430504
1771681478222349800,0.136349853515625,-0.0028251686599105597,0.00022906772210262716,-0.039323292672634125
1771681478232707600,0.14670751953125,-0.0016034740256145597,0.008780929259955883,-0.039323292672634125
1771681478243065600,0.157065673828125,-0.0009926267666742206,-0.0009926267666742206,-0.03199312463402748
1771681478253423400,0.16742333984375,-0.0016034740256145597,0.006337540224194527,-0.03871244564652443
1771681478263781400,0.177781494140625,0.00022906772210262716,0.010002624243497849,-0.03749075159430504
1771681478284497200,0.1984970703125,-0.00038177953683771193,0.008170082233846188,-0.038101598620414734
1771681478294855000,0.20885498046875,-0.0016034740256145597,0.006948387715965509,-0.031382277607917786
1771681478325928700,0.2399287109375,0.0008399150101467967,0.008780929259955883,-0.026495499536395073
1771681478336286700,0.25028662109375,0.0014507622690871358,0.004504998680204153,-0.02283041551709175
1771681478346644500,0.26064453125,0.0008399150101467967,0.005726693198084831,-0.017332790419459343
1771681478357002500,0.27100244140625,0.0008399150101467967,0.004504998680204153,-0.022219568490982056
1771681478367360300,0.2813603515625,0.002061609411612153,0.002672456670552492,-0.010002624243497849
1771681478377718300,0.29171826171875,-0.0016034740256145597,-0.0016034740256145597,-0.015500249341130257
1771681478388076000,0.302075927734375,0.0014507622690871358,-0.0028251686599105597,-0.010002624243497849
1771681478398434000,0.31243408203125,-0.0009926267666742206,-0.0064902519807219505,-0.006337540224194527
1771681478408791800,0.322791748046875,0.0008399150101467967,-0.0016034740256145597,-0.007559234742075205
1771681478419149800,0.33314990234375,-0.0009926267666742206,-0.008933641016483307,-0.0014507622690871358
1771681478429507600,0.343507568359375,-0.004046862944960594,0.0032833039294928312,-0.005726693198084831
1771681478439865600,0.353865478515625,-0.0016034740256145597,-0.0064902519807219505,0.004046862944960594
1771681478450223400,0.364223388671875,-0.0028251686599105597,-0.005879404954612255,-0.0008399150101467967
1771681478460581400,0.374581298828125,-0.00038177953683771193,-0.004657710436731577,0.004046862944960594
1771681478470939100,0.384939208984375,-0.0016034740256145597,-0.008933641016483307,0.0064902519807219505
1771681478481297200,0.395297119140625,0.0008399150101467967,-0.010155336000025272,0.0009926267666742206
1771681478491655000,0.405655029296875,0.00022906772210262716,-0.016874656081199646,0.0028251686599105597
1771681478502013000,0.416012939453125,-0.0009926267666742206,-0.008933641016483307,0.008933641016483307
1771681478512370700,0.42637060546875,-0.00038177953683771193,-0.014431266114115715,0.005268557462841272
1771681478522728700,0.436728759765625,0.00022906772210262716,-0.012598725035786629,0.005879404954612255
1771681478533086500,0.44708642578125,0.0014507622690871358,-0.016874656081199646,0.010155336000025272
1771681478543444500,0.457444580078125,0.002672456670552492,-0.01382041908800602,0.008322793990373611
1771681478553802200,0.46780224609375,0.002672456670552492,-0.01748550310730934,0.010766183026134968
1771681478564160300,0.47816015625,0.002061609411612153,-0.008933641016483307,0.005268557462841272
1771681478574518000,0.48851806640625,0.00022906772210262716,-0.015042114071547985,0.004657710436731577
1771681478584876000,0.4988759765625,0.0008399150101467967,-0.010155336000025272,0.0034360159188508987
1771681478595233800,0.50923388671875,0.00022906772210262716,-0.014431266114115715,0.005268557462841272
1771681478605591800,0.519591796875,-0.00038177953683771193,-0.008933641016483307,-0.0014507622690871358
1771681478615949800,0.52994970703125,-0.0016034740256145597,-0.015652960166335106,-0.0008399150101467967
1771681478626307600,0.5403076171875,-0.0009926267666742206,-0.011987877078354359,-0.0038941511884331703
1771681478636665600,0.55066552734375,0.00022906772210262716,-0.009544488042593002,0.0016034740256145597
1771681478647023400,0.5610234375,-0.0022143214009702206,-0.010155336000025272,-0.0038941511884331703
1771681478657381400,0.57138134765625,0.00022906772210262716,-0.0022143214009702206,-0.0051158457063138485
1771681478678097200,0.59209716796875,-0.0009926267666742206,0.005726693198084831,-0.006337540224194527
1771681478688455000,0.602454833984375,-0.0028251686599105597,-0.007711946498602629,-0.0032833039294928312
1771681478698813000,0.61281298828125,-0.0028251686599105597,0.014889402315020561,-0.008170082233846188
1771681478709170700,0.623170654296875,-0.00038177953683771193,-0.005268557462841272,-0.0008399150101467967
1771681478719528700,0.63352880859375,-0.004046862944960594,0.011835165321826935,-0.0038941511884331703
1771681478729886500,0.643886474609375,-0.0022143214009702206,0.0032833039294928312,-0.002672456670552492
1771681478740244500,0.654244384765625,-0.0034360159188508987,0.012446013279259205,0.0016034740256145597
1771681478750602200,0.664602294921875,-0.0016034740256145597,0.005726693198084831,-0.00022906772210262716
1771681478760960300,0.674960205078125,-0.0016034740256145597,0.009391776286065578,0.0009926267666742206
1771681478771318000,0.685318115234375,-0.0022143214009702206,0.0051158457063138485,0.004657710436731577
1771681478781676000,0.695676025390625,0.00022906772210262716,0.008780929259955883,0.0028251686599105597
1771681478792033800,0.70603369140625,-0.0009926267666742206,-0.0009926267666742206,0.004046862944960594
1771681478802391800,0.716391845703125,-0.0009926267666742206,0.006948387715965509,0.0016034740256145597
1771681478812749600,0.72674951171875,0.0008399150101467967,-0.0064902519807219505,0.005268557462841272
1771681478823107600,0.737107666015625,-0.00038177953683771193,0.004504998680204153,-0.0008399150101467967
1771681478833465300,0.74746533203125,0.002061609411612153,-0.0064902519807219505,0.005268557462841272
1771681478843823400,0.7578232421875,0.0014507622690871358,0.0014507622690871358,0.0028251686599105597
1771681478854181000,0.76818115234375,0.0038941511884331703,-0.0022143214009702206,0.0022143214009702206
1771681478864539100,0.7785390625,0.004504998680204153,-0.0009926267666742206,0.0034360159188508987
1771681478874897000,0.78889697265625,0.006337540224194527,0.0038941511884331703,0.0016034740256145597
1771681478885255000,0.7992548828125,0.008170082233846188,0.006337540224194527,0.005268557462841272
1771681478895612700,0.80961279296875,0.008170082233846188,0.008780929259955883,-0.00022906772210262716
1771681478905970700,0.819970703125,0.010002624243497849,0.011835165321826935,0.0016034740256145597
1771681478916328400,0.830328369140625,0.010613471269607544,0.005726693198084831,0.00038177953683771193
1771681478926686500,0.8406865234375,0.012446013279259205,0.010613471269607544,0.00038177953683771193
1771681478937044200,0.851044189453125,0.012446013279259205,0.008170082233846188,0.004657710436731577
1771681478947402200,0.86140234375,0.0130568603053689,0.014278554357588291,0.0009926267666742206
1771681478957760000,0.871760009765625,0.014889402315020561,0.007559234742075205,0.004657710436731577
1771681478968118000,0.882117919921875,0.014889402315020561,0.013667707331478596,-0.00022906772210262716
1771681478978475800,0.892475830078125,0.016721943393349648,0.011835165321826935,0.0028251686599105597
1771681478988833800,0.902833740234375,0.016721943393349648,0.012446013279259205,0.005268557462841272
1771681478999191600,0.913191650390625,0.01794363744556904,0.012446013279259205,0.00038177953683771193
1771681479009549600,0.923549560546875,0.017332790419459343,0.007559234742075205,0.005879404954612255
1771681479019907600,0.933907470703125,0.014889402315020561,0.014278554357588291,0.004046862944960594
1771681479030265300,0.944265380859375,0.016721943393349648,0.0051158457063138485,0.0022143214009702206
1771681479040623400,0.954623291015625,0.015500249341130257,0.008780929259955883,0.007101099472492933
1771681479050981000,0.964981201171875,0.014889402315020561,0.006948387715965509,0.0034360159188508987
1771681479061339100,0.975339111328125,0.014889402315020561,0.006948387715965509,0.004046862944960594
1771681479071697000,0.98569677734375,0.012446013279259205,0.008170082233846188,0.00038177953683771193
1771681479082054700,0.9960546875,0.013667707331478596,0.012446013279259205,0.004657710436731577
1771681479092412700,1.00641259765625,0.011835165321826935,0.005726693198084831,0.0009926267666742206
1771681479102770400,1.0167705078125,0.014278554357588291,0.008780929259955883,0.0028251686599105597
1771681479113128400,1.02712841796875,0.010613471269607544,0.0038941511884331703,0.0034360159188508987
1771681479123486200,1.037486328125,0.010002624243497849,0.009391776286065578,0.0022143214009702206
1771681479133844200,1.04784423828125,0.01122431829571724,0.0014507622690871358,0.007101099472492933
1771681479144202000,1.058201904296875,0.009391776286065578,0.010613471269607544,-0.00022906772210262716
1771681479154560000,1.06856005859375,0.008780929259955883,-0.007711946498602629,0.0022143214009702206
1771681479164917800,1.078917724609375,0.008170082233846188,0.006948387715965509,0.0009926267666742206
1771681479175275800,1.08927587890625,0.008780929259955883,-0.008322793990373611,0.004046862944960594
1771681479185633500,1.099633544921875,0.006948387715965509,0.00022906772210262716,-0.002061609411612153
1771681479195991600,1.109991455078125,0.008170082233846188,-0.007711946498602629,0.0028251686599105597
1771681479206349300,1.120349365234375,0.008780929259955883,-0.0016034740256145597,-0.00022906772210262716
1771681479216707300,1.130707275390625,0.010613471269607544,-0.008322793990373611,0.00038177953683771193
1771681479227065300,1.1410654296875,0.010002624243497849,-0.011377030052244663,0.0016034740256145597
1771681479237423000,1.151423095703125,0.010002624243497849,-0.008933641016483307,0.0022143214009702206
1771681479247781000,1.161781005859375,0.010002624243497849,-0.015652960166335106,-0.0014507622690871358
1771681479258139000,1.172138916015625,0.007559234742075205,-0.009544488042593002,0.00038177953683771193
1771681479268497000,1.182496826171875,0.008170082233846188,-0.009544488042593002,0.0009926267666742206
1771681479278854700,1.192854736328125,0.008780929259955883,-0.014431266114115715,-0.0008399150101467967
1771681479289212400,1.20321240234375,0.009391776286065578,-0.010766183026134968,0.0009926267666742206
1771681479299570400,1.2135703125,0.007559234742075205,-0.008933641016483307,0.004046862944960594
1771681479309928200,1.22392822265625,0.008170082233846188,-0.011377030052244663,-0.0008399150101467967
1771681479320286200,1.2342861328125,0.008170082233846188,-0.008322793990373611,0.005268557462841272
1771681479330644000,1.24464404296875,0.006948387715965509,-0.0009926267666742206,0.0028251686599105597
1771681479341002000,1.255001953125,0.006948387715965509,-0.009544488042593002,0.004657710436731577
1771681479351359700,1.26535986328125,0.007559234742075205,-0.004046862944960594,0.005879404954612255
1771681479361717800,1.2757177734375,0.006337540224194527,-0.005879404954612255,0.0064902519807219505
1771681479372075500,1.286075439453125,0.0038941511884331703,-0.0034360159188508987,0.0064902519807219505
1771681479382433500,1.29643359375,0.0038941511884331703,-0.0009926267666742206,0.0034360159188508987
1771681479392791300,1.306791259765625,0.0032833039294928312,-0.0028251686599105597,0.012598725035786629
1771681479403149300,1.3171494140625,0.002672456670552492,0.004504998680204153,0.0009926267666742206
1771681479413507000,1.327507080078125,0.0032833039294928312,-0.004046862944960594,0.007711946498602629
1771681479423865000,1.337864990234375,0.0014507622690871358,0.0130568603053689,0.009544488042593002
1771681479434222800,1.348222900390625,0.0014507622690871358,-0.0009926267666742206,0.0064902519807219505
1771681479444580900,1.358580810546875,0.00022906772210262716,0.008170082233846188,0.0016034740256145597
1771681479454938600,1.368938720703125,0.00022906772210262716,0.0051158457063138485,0.009544488042593002
1771681479465296600,1.379296630859375,0.0014507622690871358,0.01122431829571724,0.008322793990373611
1771681479475654400,1.389654296875,0.0014507622690871358,0.002672456670552492,0.004046862944960594
1771681479486012400,1.400012451171875,0.00022906772210262716,0.010002624243497849,0.005879404954612255
1771681479496370200,1.4103701171875,0.002061609411612153,0.007559234742075205,0.008933641016483307
1771681479506728200,1.420728271484375,0.0008399150101467967,0.006337540224194527,0.0064902519807219505
1771681479517086000,1.4310859375,0.002061609411612153,0.010613471269607544,0.012598725035786629
1771681479527444000,1.44144384765625,0.002061609411612153,0.009391776286065578,0.0016034740256145597
1771681479537801700,1.4518017578125,0.006948387715965509,0.008780929259955883,0.0016034740256145597
1771681479548159700,1.46215966796875,0.006948387715965509,0.002061609411612153,0.016874656081199646
1771681479558517500,1.472517578125,0.0038941511884331703,0.020997874438762665,0.011987877078354359
1771681479568875500,1.48287548828125,0.005726693198084831,0.006948387715965509,0.004657710436731577
1771681479579233300,1.4932333984375,0.007559234742075205,0.018554486334323883,0.004046862944960594
1771681479589591300,1.50359130859375,0.0038941511884331703,0.018554486334323883,0.01748550310730934
1771681479599949000,1.513948974609375,0.0014507622690871358,0.016111096367239952,0.011377030052244663
1771681479610307000,1.52430712890625,0.0051158457063138485,0.02038702741265297,0.005268557462841272
1771681479620664800,1.534664794921875,0.0051158457063138485,0.016111096367239952,0.008933641016483307
1771681479631022800,1.54502294921875,0.0014507622690871358,0.022219568490982056,0.005879404954612255
1771681479641380600,1.555380615234375,0.002672456670552492,0.017332790419459343,0.010155336000025272
1771681479651738600,1.565738525390625,0.0038941511884331703,0.018554486334323883,0.0064902519807219505
1771681479662096400,1.576096435546875,0.0038941511884331703,0.016111096367239952,0.009544488042593002
1771681479672454400,1.586454345703125,0.002672456670552492,0.013667707331478596,0.011377030052244663
1771681479682812200,1.596812255859375,0.0032833039294928312,0.009391776286065578,0.0022143214009702206
1771681479693170200,1.607170166015625,0.0008399150101467967,0.01122431829571724,0.008933641016483307
1771681479703528000,1.61752783203125,-0.00038177953683771193,0.006948387715965509,0.011377030052244663
1771681479713886000,1.627885986328125,-0.0022143214009702206,0.010002624243497849,0.005268557462841272
1771681479724243700,1.63824365234375,-0.0009926267666742206,0.0032833039294928312,-0.00022906772210262716
1771681479734601700,1.648601806640625,0.0014507622690871358,0.0032833039294928312,0.0016034740256145597
1771681479744959500,1.65895947265625,0.00022906772210262716,0.008170082233846188,0.0064902519807219505
1771681479755317500,1.6693173828125,0.00022906772210262716,0.0032833039294928312,0.0022143214009702206
1771681479765675300,1.67967529296875,-0.00038177953683771193,0.006337540224194527,-0.00022906772210262716
1771681479776033000,1.690032958984375,-0.0016034740256145597,0.012446013279259205,-0.0032833039294928312
1771681479786391000,1.70039111328125,-0.0009926267666742206,0.005726693198084831,-0.002672456670552492
1771681479796748800,1.710748779296875,0.0008399150101467967,0.0032833039294928312,0.0016034740256145597
1771681479807106800,1.72110693359375,0.0008399150101467967,-0.008933641016483307,-0.004504998680204153
1771681479817464600,1.731464599609375,0.002061609411612153,-0.01626380905508995,-0.0032833039294928312
1771681479827822600,1.741822509765625,-0.0009926267666742206,0.0008399150101467967,-0.007559234742075205
1771681479838180600,1.7521806640625,-0.0009926267666742206,-0.007101099472492933,-0.01122431829571724
1771681479848538400,1.762538330078125,-0.0009926267666742206,0.0008399150101467967,-0.01122431829571724
1771681479858896100,1.772896240234375,-0.00038177953683771193,-0.0028251686599105597,-0.005726693198084831
1771681479869254100,1.783254150390625,-0.00038177953683771193,-0.00038177953683771193,-0.008780929259955883
1771681479879612000,1.79361181640625,0.00022906772210262716,-0.004046862944960594,-0.008780929259955883
1771681479889970000,1.803969970703125,0.002672456670552492,-0.0034360159188508987,-0.005726693198084831
1771681479900327700,1.81432763671875,0.0038941511884331703,-0.007711946498602629,-0.008170082233846188
1771681479910685700,1.824685791015625,0.004504998680204153,-0.009544488042593002,-0.007559234742075205
1771681479921043500,1.83504345703125,0.005726693198084831,-0.007101099472492933,-0.0038941511884331703
1771681479931401500,1.8454013671875,0.0032833039294928312,-0.008322793990373611,-0.008170082233846188
1771681479941759200,1.85575927734375,0.002672456670552492,-0.013209572061896324,-0.008170082233846188
1771681479952117200,1.8661171875,0.0008399150101467967,-0.004657710436731577,-0.0038941511884331703
1771681479962475000,1.87647509765625,0.002672456670552492,-0.009544488042593002,-0.004504998680204153
1771681479972833000,1.8868330078125,0.0014507622690871358,-0.004046862944960594,-0.0032833039294928312
1771681479983190800,1.897190673828125,-0.00038177953683771193,-0.005879404954612255,-0.0014507622690871358
1771681479993548800,1.907548828125,0.0014507622690871358,0.002672456670552492,0.004657710436731577
1771681480003906600,1.917906494140625,0.00022906772210262716,0.006948387715965509,0.004046862944960594
1771681480014264600,1.9282646484375,0.0008399150101467967,0.011835165321826935,0.0064902519807219505
1771681480024622300,1.938622314453125,-0.0009926267666742206,0.007559234742075205,0.008322793990373611
1771681480034980000,1.94897998046875,-0.0022143214009702206,0.019776180386543274,0.013209572061896324
1771681480045338000,1.959338134765625,-0.0028251686599105597,0.01122431829571724,0.018707197159528732
1771681480055696100,1.969696044921875,-0.005268557462841272,0.019776180386543274,0.010766183026134968
1771681480066054000,1.980053955078125,-0.0034360159188508987,0.005726693198084831,0.02298312820494175
1771681480076412000,1.990411865234375,-0.0016034740256145597,0.014278554357588291,0.030313294380903244
1771681480086769700,2.000769775390625,-0.0016034740256145597,0.01122431829571724,0.032756682485342026
1771681480097127700,2.011127685546875,-0.0028251686599105597,0.002672456670552492,0.03458922728896141
1771681480107485400,2.0214853515625,-0.005879404954612255,0.01916533336043358,0.030313294380903244
1771681480117843200,2.03184326171875,-0.004657710436731577,-0.00038177953683771193,0.031534988433122635
1771681480128201200,2.042201171875,-0.007101099472492933,0.016111096367239952,0.026037365198135376
1771681480138559000,2.05255908203125,-0.005268557462841272,-0.00038177953683771193,0.02542651630938053
1771681480148917000,2.0629169921875,-0.005268557462841272,0.010002624243497849,0.019928891211748123
1771681480159274800,2.073274658203125,-0.004046862944960594,0.0038941511884331703,0.014431266114115715
1771681480169632800,2.0836328125,-0.0022143214009702206,0.011835165321826935,0.010766183026134968
1771681480179990500,2.093990478515625,-0.0022143214009702206,0.004504998680204153,0.007711946498602629
1771681480190348500,2.1043486328125,0.00022906772210262716,0.018554486334323883,0.0034360159188508987
1771681480200706300,2.114706298828125,-0.0009926267666742206,0.008780929259955883,0.00038177953683771193
1771681480211064300,2.125064208984375,-0.0016034740256145597,0.016111096367239952,-0.007559234742075205
1771681480221422000,2.135422119140625,-0.0009926267666742206,0.014889402315020561,-0.017332790419459343
1771681480231780000,2.145780029296875,-0.0009926267666742206,0.010002624243497849,-0.014889402315020561
1771681480242137900,2.156137939453125,0.0008399150101467967,0.016111096367239952,-0.025273805484175682
1771681480252496000,2.166495849609375,0.0008399150101467967,0.010613471269607544,-0.02160872146487236
1771681480262853600,2.176853515625,0.0038941511884331703,0.01794363744556904,-0.020997874438762665
1771681480273211600,2.187211669921875,0.004504998680204153,0.008780929259955883,-0.023441264405846596
1771681480283569400,2.1975693359375,0.004504998680204153,0.0130568603053689,-0.02283041551709175
1771681480293927400,2.207927490234375,0.005726693198084831,0.01122431829571724,-0.015500249341130257
1771681480304285200,2.21828515625,0.006948387715965509,0.008780929259955883,-0.012446013279259205
1771681480314643200,2.228643310546875,0.0051158457063138485,0.009391776286065578,-0.011835165321826935
1771681480325001000,2.2390009765625,0.004504998680204153,0.004504998680204153,-0.010613471269607544
1771681480335358700,2.249358642578125,0.004504998680204153,0.006337540224194527,-0.011835165321826935
1771681480345716700,2.259716796875,0.005726693198084831,0.00022906772210262716,-0.0051158457063138485
1771681480356074500,2.270074462890625,0.0038941511884331703,0.007559234742075205,-0.002672456670552492
1771681480366432500,2.2804326171875,0.002061609411612153,0.0038941511884331703,0.007101099472492933
1771681480376790300,2.290790283203125,0.0008399150101467967,0.006337540224194527,0.0034360159188508987
1771681480387148300,2.301148193359375,0.0014507622690871358,0.006948387715965509,0.0034360159188508987
1771681480397506000,2.311506103515625,0.0008399150101467967,-0.0009926267666742206,0.008322793990373611
1771681480407864000,2.321864013671875,0.002061609411612153,-0.0009926267666742206,0.010155336000025272
1771681480418221800,2.332221923828125,0.002061609411612153,-0.007101099472492933,0.009544488042593002
1771681480428579800,2.342579833984375,-0.00038177953683771193,-0.0028251686599105597,0.008322793990373611
1771681480438937600,2.3529375,-0.0028251686599105597,0.004504998680204153,-0.0038941511884331703
1771681480449295600,2.363295654296875,-0.0034360159188508987,-0.0064902519807219505,0.0064902519807219505
1771681480459653400,2.3736533203125,-0.0016034740256145597,0.0051158457063138485,-0.002672456670552492
1771681480470011100,2.38401123046875,0.0008399150101467967,-0.009544488042593002,0.0009926267666742206
1771681480480369200,2.394369140625,-0.00038177953683771193,0.0008399150101467967,-0.0032833039294928312
1771681480490727200,2.40472705078125,-0.00038177953683771193,0.002061609411612153,-0.008170082233846188
1771681480501085000,2.4150849609375,-0.00038177953683771193,-0.0016034740256145597,-0.011835165321826935
1771681480511443000,2.42544287109375,-0.00038177953683771193,-0.005879404954612255,-0.01122431829571724
1771681480521800700,2.43580078125,-0.00038177953683771193,-0.00038177953683771193,-0.010613471269607544
1771681480532158500,2.446158447265625,-0.0016034740256145597,-0.0064902519807219505,-0.0130568603053689
1771681480542516500,2.4565166015625,-0.0009926267666742206,-0.0016034740256145597,-0.016721943393349648
1771681480552874200,2.466874267578125,-0.0016034740256145597,0.0014507622690871358,-0.02038702741265297
1771681480563232300,2.477232177734375,0.00022906772210262716,-0.011377030052244663,-0.018554486334323883
1771681480573590000,2.487590087890625,0.0008399150101467967,-0.0009926267666742206,-0.014889402315020561
1771681480583948000,2.497947998046875,0.002672456670552492,-0.008322793990373611,-0.006337540224194527
1771681480594305800,2.508305908203125,0.002061609411612153,-0.011987877078354359,-0.01916533336043358
1771681480604663800,2.518663818359375,0.0014507622690871358,0.007559234742075205,-0.011835165321826935
1771681480615021600,2.529021484375,-0.0009926267666742206,-0.009544488042593002,-0.006948387715965509
1771681480625379600,2.539379638671875,0.00022906772210262716,0.002672456670552492,-0.008780929259955883
1771681480635737300,2.5497373046875,-0.0016034740256145597,-0.005879404954612255,0.0009926267666742206
1771681480646095400,2.560095458984375,0.00022906772210262716,0.006337540224194527,-0.005726693198084831
1771681480656453000,2.570453125,0.0014507622690871358,-0.013209572061896324,-0.0032833039294928312
1771681480666811000,2.580810791015625,0.0032833039294928312,-0.0022143214009702206,0.00038177953683771193
1771681480677169000,2.5911689453125,0.002672456670552492,-0.012598725035786629,0.007711946498602629
1771681480687527000,2.60152685546875,0.0014507622690871358,-0.004046862944960594,0.008322793990373611
1771681480697884700,2.611884765625,-0.0009926267666742206,-0.0009926267666742206,0.0009926267666742206
1771681480708242700,2.62224267578125,-0.0009926267666742206,-0.007711946498602629,0.0009926267666742206
1771681480718600400,2.632600341796875,0.00022906772210262716,-0.012598725035786629,0.0028251686599105597
1771681480728958200,2.642958251953125,0.00022906772210262716,-0.0009926267666742206,0.0034360159188508987
1771681480739316200,2.653316162109375,-0.0009926267666742206,-0.01626380905508995,0.005268557462841272
1771681480749674000,2.663674072265625,-0.004046862944960594,0.0051158457063138485,-0.005726693198084831
1771681480760032000,2.674031982421875,-0.004657710436731577,0.004504998680204153,-0.006948387715965509
1771681480770389800,2.6843896484375,-0.004657710436731577,-0.0009926267666742206,0.0022143214009702206
1771681480780747800,2.694747802734375,-0.005268557462841272,0.016111096367239952,-0.005726693198084831
1771681480791105500,2.70510546875,-0.0022143214009702206,-0.0064902519807219505,-0.00022906772210262716
1771681480801463600,2.715463623046875,-0.0028251686599105597,0.011835165321826935,-0.012446013279259205
1771681480811821300,2.7258212890625,0.0014507622690871358,0.002061609411612153,-0.015500249341130257
1771681480822179300,2.736179443359375,0.002061609411612153,0.00022906772210262716,-0.012446013279259205
1771681480832537000,2.746537109375,0.0038941511884331703,0.010613471269607544,-0.012446013279259205
1771681480842895000,2.75689501953125,0.002672456670552492,-0.007101099472492933,-0.013667707331478596
1771681480853252900,2.7672529296875,0.0038941511884331703,0.0130568603053689,-0.025884652510285378
1771681480863610600,2.777610595703125,0.006948387715965509,0.009391776286065578,-0.02283041551709175
1771681480873968600,2.78796875,0.007559234742075205,-0.008933641016483307,-0.022219568490982056
1771681480884326400,2.798326416015625,0.009391776286065578,0.018554486334323883,-0.018554486334323883
1771681480894684400,2.808684326171875,0.007559234742075205,-0.007711946498602629,-0.014278554357588291
1771681480905042200,2.819042236328125,0.008170082233846188,0.016111096367239952,-0.02832804247736931
1771681480915400200,2.829400146484375,0.005726693198084831,0.0038941511884331703,-0.015500249341130257
1771681480925758000,2.839758056640625,0.0032833039294928312,0.020997874438762665,-0.019776180386543274
1771681480936116000,2.850115966796875,0.002061609411612153,0.004504998680204153,-0.01794363744556904
1771681480946473700,2.8604736328125,0.00022906772210262716,0.010613471269607544,-0.02405211143195629
1771681480956831700,2.870831787109375,0.0014507622690871358,0.010002624243497849,-0.0295497365295887
1771681480967189500,2.881189453125,0.00022906772210262716,0.0038941511884331703,-0.020997874438762665
1771681480977547500,2.891547607421875,0.0008399150101467967,0.011835165321826935,-0.018554486334323883
1771681480987905300,2.9019052734375,-0.0016034740256145597,0.014889402315020561,-0.01122431829571724
1771681480998263300,2.91226318359375,-0.004046862944960594,0.014278554357588291,-0.02038702741265297
1771681481008621000,2.92262109375,-0.0028251686599105597,0.0295497365295887,-0.019776180386543274
1771681481018978800,2.932978759765625,-0.0034360159188508987,0.009391776286065578,-0.007559234742075205
1771681481029336800,2.9433369140625,-0.0009926267666742206,0.040544986724853516,-0.0130568603053689
1771681481039694600,2.953694580078125,-0.0016034740256145597,0.0051158457063138485,-0.0038941511884331703
1771681481050052600,2.964052490234375,-0.0034360159188508987,0.04543176665902138,-0.020997874438762665
1771681481060410400,2.974410400390625,-0.0022143214009702206,0.014278554357588291,-0.006948387715965509
1771681481070768400,2.984768310546875,-0.0028251686599105597,0.03565821051597595,-0.008170082233846188
1771681481081126100,2.995126220703125,-0.0016034740256145597,0.02283041551709175,-0.006337540224194527
1771681481091484200,3.005484130859375,-0.0028251686599105597,0.008780929259955883,-0.0032833039294928312
1771681481101842000,3.015842041015625,-0.00038177953683771193,0.020997874438762665,-0.015500249341130257
1771681481112200000,3.026199951171875,0.00022906772210262716,-0.0064902519807219505,-0.0014507622690871358
1771681481122557700,3.0365576171875,-0.0034360159188508987,0.023441264405846596,-0.0038941511884331703
1771681481132915700,3.046915771484375,-0.0034360159188508987,0.002061609411612153,0.0009926267666742206
1771681481143273500,3.0572734375,-0.0064902519807219505,0.004504998680204153,-0.010002624243497849
1771681481153631500,3.067631591796875,-0.005268557462841272,0.025273805484175682,-0.0130568603053689
1771681481163989200,3.0779892578125,-0.0034360159188508987,-0.009544488042593002,0.00038177953683771193
1771681481174347300,3.08834716796875,-0.0034360159188508987,0.026495499536395073,-0.014278554357588291
1771681481184705000,3.098705078125,-0.0034360159188508987,-0.007101099472492933,-0.002672456670552492
1771681481195062800,3.109062744140625,-0.004657710436731577,0.017332790419459343,-0.01794363744556904
1771681481205420800,3.1194208984375,-0.0022143214009702206,-0.004657710436731577,-0.0051158457063138485
1771681481215778600,3.129778564453125,-0.004046862944960594,0.01916533336043358,-0.0014507622690871358
1771681481226136600,3.140136474609375,-0.0028251686599105597,0.006337540224194527,0.00038177953683771193
1771681481236494300,3.150494384765625,-0.0022143214009702206,0.0014507622690871358,-0.0051158457063138485
1771681481246852400,3.160852294921875,0.002061609411612153,0.01122431829571724,-0.0130568603053689
1771681481257210000,3.171210205078125,0.0008399150101467967,-0.005268557462841272,0.00038177953683771193
1771681481267568000,3.181568115234375,-0.00038177953683771193,0.012446013279259205,-0.0008399150101467967
1771681481277926000,3.19192578125,-0.0016034740256145597,0.002061609411612153,-0.002061609411612153
1771681481288283600,3.20228369140625,-0.004046862944960594,0.0130568603053689,-0.008780929259955883
1771681481298641700,3.2126416015625,-0.0034360159188508987,0.005726693198084831,-0.002061609411612153
1771681481308999400,3.22299951171875,-0.0034360159188508987,0.009391776286065578,0.007711946498602629
1771681481319357400,3.233357421875,-0.004657710436731577,-0.0009926267666742206,0.007711946498602629
1771681481329715200,3.243715087890625,-0.0064902519807219505,-0.010155336000025272,-0.002672456670552492
1771681481340073200,3.2540732421875,-0.0034360159188508987,0.008170082233846188,0.0028251686599105597
1771681481350431000,3.264430908203125,-0.007101099472492933,-0.0022143214009702206,0.013209572061896324
1771681481360789000,3.2747890625,-0.007101099472492933,0.01794363744556904,0.0064902519807219505
1771681481371146800,3.285146728515625,-0.010155336000025272,-0.021150587126612663,-0.0014507622690871358
1771681481381504800,3.2955048828125,-0.0034360159188508987,0.02160872146487236,-0.007559234742075205
1771681481391862500,3.305862548828125,-0.0016034740256145597,-0.0016034740256145597,0.014431266114115715
1771681481402220500,3.316220458984375,-0.0028251686599105597,0.008780929259955883,0.010155336000025272
1771681481412578300,3.326578369140625,-0.004046862944960594,-0.012598725035786629,-0.00022906772210262716
1771681481422936300,3.336936279296875,-0.0028251686599105597,0.00022906772210262716,-0.006948387715965509
1771681481433294000,3.347294189453125,0.00022906772210262716,-0.004046862944960594,0.0028251686599105597
1771681481443651800,3.35765185546875,0.00022906772210262716,-0.00038177953683771193,0.008322793990373611
1771681481454009900,3.368009765625,-0.005268557462841272,-0.011987877078354359,-0.006948387715965509
1771681481464367600,3.37836767578125,-0.004046862944960594,-0.022372281178832054,-0.015500249341130257
1771681481474725600,3.3887255859375,-0.0034360159188508987,0.007559234742075205,-0.0130568603053689
1771681481485083400,3.39908349609375,-0.004657710436731577,-0.0022143214009702206,-0.006948387715965509
1771681481495441400,3.40944140625,-0.009544488042593002,0.005726693198084831,-0.015500249341130257
1771681481505799200,3.419799072265625,-0.007101099472492933,-0.008322793990373611,-0.01916533336043358
1771681481516157200,3.4301572265625,-0.004657710436731577,0.012446013279259205,-0.02038702741265297
1771681481526515000,3.440514892578125,-0.005268557462841272,-0.0028251686599105597,-0.006948387715965509
1771681481536873000,3.450873046875,-0.008933641016483307,0.0130568603053689,-0.009391776286065578
1771681481547230700,3.461230712890625,-0.012598725035786629,-0.019318044185638428,-0.020997874438762665
1771681481557588500,3.47158837890625,-0.008322793990373611,0.010002624243497849,-0.022219568490982056
1771681481567946500,3.481946533203125,-0.007101099472492933,0.019776180386543274,-0.0014507622690871358
1771681481578304500,3.492304443359375,-0.009544488042593002,0.0008399150101467967,-0.006337540224194527
1771681481588662300,3.502662353515625,-0.018096350133419037,-0.05047125369310379,-0.03321481868624687
1771681481599020000,3.51302001953125,-0.011377030052244663,0.004504998680204153,-0.02283041551709175
1771681481609378000,3.5233779296875,-0.007101099472492933,0.07475243508815765,0.029091600328683853
1771681481619735800,3.53373583984375,-0.010155336000025272,0.009391776286065578,0.0009926267666742206
1771681481630093800,3.54409375,-0.022372281178832054,-0.10728005319833755,-0.0552053228020668
1771681481640451600,3.55445166015625,-0.02542651630938053,-0.07185091078281403,-0.053983625024557114
1771681481650809600,3.5648095703125,-0.03092414326965809,0.04421006888151169,0.021150587126612663
1771681481661167400,3.57516748046875,-0.02542651630938053,0.06620056927204132,0.02664821222424507
1771681481671525400,3.585525390625,-0.030313294380903244,-0.11827529966831207,-0.0558161698281765
1771681481681883100,3.595883056640625,-0.03703261539340019,-0.10361496359109879,-0.07108735293149948
1771681481692241000,3.606240966796875,-0.023593975231051445,0.025273805484175682,-0.002672456670552492
1771681481702599000,3.616598876953125,-0.014431266114115715,0.07291989028453827,0.021150587126612663
1771681481712956700,3.626956787109375,-0.033978380262851715,-0.12988139688968658,-0.08452598750591278
1771681481723314700,3.637314697265625,-0.06085565686225891,-0.14637427031993866,-0.1083490327000618
1771681481733672400,3.64767236328125,-0.0877329409122467,0.05459447205066681,-0.025884652510285378
1771681481744030500,3.658030517578125,-0.09567394852638245,0.211582213640213,0.06146650388836861
1771681481754388200,3.66838818359375,-0.039476003497838974,-0.10361496359109879,-0.06986565887928009
1771681481764746200,3.678746337890625,-0.04008685052394867,-0.19096612930297852,-0.1217876747250557
1771681481775104000,3.68910400390625,-0.04619532451033592,0.03565821051597595,-0.016111096367239952
1771681481785462000,3.6994619140625,-0.06757497787475586,0.1743205338716507,0.041919391602277756
1771681481795819800,3.70981982421875,-0.057801421731710434,-0.11705360561609268,-0.08330429345369339
1771681481806177800,3.720177734375,-0.08223531395196915,-0.22456271946430206,-0.11445750296115875
1771681481816535600,3.73053564453125,-0.08284615725278854,0.03199312463402748,-0.025884652510285378
1771681481826893300,3.740893310546875,-0.07246175408363342,0.11934428662061691,0.0064902519807219505
1771681481837251300,3.751251220703125,-0.05963396281003952,-0.05291464552283287,-0.048486001789569855
1771681481847609000,3.761609130859375,-0.05413633957505226,-0.048638712614774704,-0.04359922185540199
1771681481857967000,3.771967041015625,-0.03458922728896141,0.08269345015287399,0.0028251686599105597
1771681481868324900,3.782324951171875,-0.032756682485342026,0.047264307737350464,0.007711946498602629
1771681481878683000,3.792682861328125,-0.03764346241950989,-0.07062921673059464,-0.044820915907621384
1771681481889040600,3.80304052734375,-0.03214583545923233,-0.015042114071547985,-0.02832804247736931
1771681481899398700,3.813398681640625,-0.024815669283270836,0.040544986724853516,-0.005726693198084831
1771681481909756400,3.82375634765625,-0.027259059250354767,0.03565821051597595,-0.0051158457063138485
1771681481920114200,3.8341142578125,-0.027259059250354767,-0.004657710436731577,-0.023441264405846596
1771681481930472200,3.84447216796875,-0.018096350133419037,0.018554486334323883,-0.016111096367239952
1771681481940830000,3.854829833984375,-0.023593975231051445,0.04665346071124077,0.0064902519807219505
1771681481951188000,3.86518798828125,-0.018707197159528732,0.006337540224194527,-0.0038941511884331703
1771681481961545700,3.875545654296875,-0.02298312820494175,0.015500249341130257,-0.01122431829571724
1771681481971903700,3.88590380859375,-0.02053973823785782,0.020997874438762665,-0.008780929259955883
1771681481982261500,3.896261474609375,-0.021150587126612663,0.023441264405846596,-0.008170082233846188
1771681481992619500,3.90661962890625,-0.022372281178832054,0.018554486334323883,-0.013667707331478596
1771681482002977300,3.916977294921875,-0.022372281178832054,0.024662958458065987,-0.018554486334323883
1771681482013335300,3.927335205078125,-0.02176143415272236,0.03199312463402748,-0.023441264405846596
1771681482023693000,3.937693115234375,-0.022372281178832054,0.03199312463402748,-0.026495499536395073
1771681482034051000,3.948051025390625,-0.02420482225716114,0.03077143058180809,-0.024662958458065987
1771681482044408800,3.958408935546875,-0.02298312820494175,0.03504735976457596,-0.02710634656250477
1771681482054766600,3.9687666015625,-0.02053973823785782,0.02710634656250477,-0.03749075159430504
1771681482065124600,3.97912451171875,-0.02053973823785782,0.023441264405846596,-0.028938889503479004
1771681482075482400,3.989482421875,-0.019928891211748123,0.03321481868624687,-0.02832804247736931
1771681482085840400,3.99984033203125,-0.021150587126612663,0.015500249341130257,-0.025884652510285378
1771681482096198100,4.0101982421875,-0.02298312820494175,0.03443651273846626,-0.03504735976457596
1771681482106556200,4.02055615234375,-0.019318044185638428,0.008170082233846188,-0.028938889503479004
1771681482116914000,4.030913818359375,-0.015042114071547985,0.022219568490982056,-0.031382277607917786
1771681482127272000,4.04127197265625,-0.01382041908800602,0.006948387715965509,-0.025884652510285378
1771681482137629700,4.051629638671875,-0.011377030052244663,0.007559234742075205,-0.03626905754208565
1771681482147987500,4.061987548828125,-0.009544488042593002,-0.005268557462841272,-0.0295497365295887
1771681482158345500,4.072345458984375,-0.007711946498602629,0.004504998680204153,-0.028938889503479004
1771681482168703200,4.082703125,-0.007101099472492933,-0.011987877078354359,-0.024662958458065987
1771681482179061200,4.093061279296875,-0.007711946498602629,-0.0064902519807219505,-0.0295497365295887
1771681482189419000,4.1034189453125,-0.007711946498602629,-0.008322793990373611,-0.022219568490982056
1771681482199777000,4.113777099609375,-0.0064902519807219505,-0.0028251686599105597,-0.02405211143195629
1771681482210134800,4.124134765625,-0.007711946498602629,-0.004046862944960594,-0.02160872146487236
1771681482220492800,4.134492919921875,-0.008322793990373611,-0.00038177953683771193,-0.022219568490982056
1771681482230850600,4.1448505859375,-0.011987877078354359,-0.0028251686599105597,-0.019776180386543274
1771681482241208600,4.15520849609375,-0.010766183026134968,0.006948387715965509,-0.017332790419459343
1771681482251566300,4.16556640625,-0.012598725035786629,0.0008399150101467967,-0.007559234742075205
1771681482261924400,4.17592431640625,-0.012598725035786629,-0.0034360159188508987,-0.005726693198084831
1771681482272282000,4.1862822265625,-0.01382041908800602,-0.013209572061896324,0.00038177953683771193
1771681482282640000,4.196639892578125,-0.011377030052244663,-0.013209572061896324,0.011377030052244663
1771681482292998000,4.206997802734375,-0.010766183026134968,-0.029091600328683853,0.014431266114115715
1771681482303355600,4.217355712890625,-0.010155336000025272,-0.02298312820494175,0.011987877078354359
1771681482313713700,4.227713623046875,-0.010766183026134968,-0.029091600328683853,0.01626380905508995
1771681482324071400,4.238071533203125,-0.010766183026134968,-0.019928891211748123,0.02176143415272236
1771681482334429400,4.248429443359375,-0.013209572061896324,-0.02176143415272236,0.02298312820494175
1771681482344787200,4.258787109375,-0.011377030052244663,-0.02298312820494175,0.023593975231051445
1771681482355145000,4.26914501953125,-0.012598725035786629,-0.018707197159528732,0.02664821222424507
1771681482365503000,4.2795029296875,-0.010155336000025272,-0.02053973823785782,0.029091600328683853
1771681482375860700,4.28986083984375,-0.010155336000025272,-0.02420482225716114,0.02542651630938053
1771681482386218800,4.30021875,-0.008322793990373611,-0.024815669283270836,0.027259059250354767
1771681482396576500,4.310576416015625,-0.008933641016483307,-0.03214583545923233,0.026037365198135376
1771681482406934500,4.3209345703125,-0.005879404954612255,-0.02176143415272236,0.02176143415272236
1771681482417292300,4.331292236328125,-0.005268557462841272,-0.028480753302574158,0.022372281178832054
1771681482427650300,4.341650390625,-0.004046862944960594,-0.011987877078354359,0.018707197159528732
1771681482438008000,4.352008056640625,-0.0034360159188508987,-0.018096350133419037,0.018707197159528732
1771681482448365800,4.36236572265625,-0.005879404954612255,-0.0064902519807219505,0.012598725035786629
1771681482458723800,4.372723876953125,-0.004046862944960594,-0.010155336000025272,0.016874656081199646
1771681482469081600,4.38308154296875,-0.004657710436731577,-0.009544488042593002,0.018707197159528732
1771681482479439600,4.393439697265625,-0.0034360159188508987,-0.012598725035786629,0.014431266114115715
1771681482489797400,4.40379736328125,-0.004657710436731577,-0.012598725035786629,0.01748550310730934
1771681482500155400,4.4141552734375,-0.0064902519807219505,-0.008322793990373611,0.018707197159528732
1771681482510513200,4.42451318359375,-0.005879404954612255,-0.011377030052244663,0.014431266114115715
1771681482520871200,4.43487109375,-0.004657710436731577,-0.009544488042593002,0.015042114071547985
1771681482531229000,4.44522900390625,-0.0064902519807219505,-0.008933641016483307,0.009544488042593002
1771681482541587000,4.4555869140625,-0.0064902519807219505,-0.004657710436731577,0.008322793990373611
1771681482551944700,4.46594482421875,-0.007101099472492933,-0.005268557462841272,0.0034360159188508987
1771681482562302500,4.476302490234375,-0.007101099472492933,0.0008399150101467967,0.004046862944960594
1771681482572660500,4.486660400390625,-0.010766183026134968,-0.0022143214009702206,0.009544488042593002
1771681482583018200,4.497018310546875,-0.012598725035786629,0.0038941511884331703,0.0009926267666742206
1771681482593376300,4.507376220703125,-0.010766183026134968,-0.008322793990373611,0.007711946498602629
1771681482603734000,4.517734130859375,-0.012598725035786629,-0.0022143214009702206,0.0028251686599105597
1771681482614092000,4.528092041015625,-0.012598725035786629,-0.004046862944960594,0.0022143214009702206
1771681482624449800,4.53844970703125,-0.015652960166335106,0.0038941511884331703,-0.0014507622690871358
1771681482634807600,4.5488076171875,-0.011987877078354359,-0.012598725035786629,-0.002061609411612153
1771681482645165600,4.55916552734375,-0.01626380905508995,0.004504998680204153,-0.0032833039294928312
1771681482655523300,4.5695234375,-0.015042114071547985,-0.0064902519807219505,-0.005726693198084831
1771681482665881300,4.57988134765625,-0.013209572061896324,-0.010766183026134968,-0.0014507622690871358
1771681482676239000,4.590239013671875,-0.01382041908800602,0.002061609411612153,-0.002061609411612153
1771681482686597000,4.60059716796875,-0.013209572061896324,-0.015042114071547985,-0.002061609411612153
1771681482696955000,4.610954833984375,-0.01748550310730934,-0.0009926267666742206,-0.005726693198084831
1771681482707313000,4.62131298828125,-0.01626380905508995,-0.0022143214009702206,0.0022143214009702206
1771681482717670700,4.631670654296875,-0.019318044185638428,-0.008933641016483307,-0.005726693198084831
1771681482728028700,4.642028564453125,-0.018707197159528732,-0.00038177953683771193,-0.007559234742075205
1771681482738386400,4.652386474609375,-0.01626380905508995,-0.011377030052244663,-0.0038941511884331703
1771681482748744200,4.662744140625,-0.011987877078354359,-0.0022143214009702206,-0.0032833039294928312
1771681482759102200,4.673102294921875,-0.011987877078354359,-0.013209572061896324,-0.006337540224194527
1771681482769460000,4.6834599609375,-0.010766183026134968,0.0008399150101467967,-0.002672456670552492
1771681482779818000,4.69381787109375,-0.012598725035786629,-0.007711946498602629,0.0022143214009702206
1771681482790175700,4.70417578125,-0.009544488042593002,-0.004657710436731577,-0.0038941511884331703
1771681482800533800,4.71453369140625,-0.009544488042593002,-0.0028251686599105597,0.0009926267666742206
1771681482810891500,4.7248916015625,-0.007101099472492933,0.0008399150101467967,0.0022143214009702206
1771681482821249300,4.735249267578125,-0.007711946498602629,-0.005268557462841272,0.0016034740256145597
1771681482831607300,4.745607177734375,-0.008322793990373611,0.006337540224194527,0.0022143214009702206
1771681482841965000,4.755965087890625,-0.008933641016483307,0.00022906772210262716,0.005268557462841272
1771681482852323000,4.766322998046875,-0.009544488042593002,0.004504998680204153,0.008322793990373611
1771681482862680800,4.776680908203125,-0.005879404954612255,0.0014507622690871358,0.010155336000025272
1771681482873038800,4.787038818359375,-0.004657710436731577,-0.004657710436731577,0.013209572061896324
1771681482883396600,4.797396728515625,-0.0022143214009702206,-0.0034360159188508987,0.01626380905508995
1771681482893754400,4.80775439453125,-0.0034360159188508987,0.002061609411612153,0.011987877078354359
1771681482904112400,4.8181123046875,-0.0034360159188508987,0.0032833039294928312,0.015652960166335106
1771681482914470100,4.82847021484375,-0.007101099472492933,0.0130568603053689,0.01626380905508995
1771681482924828200,4.838828125,-0.007101099472492933,0.002061609411612153,0.010155336000025272
1771681482935186000,4.84918603515625,-0.008933641016483307,0.0032833039294928312,0.016874656081199646
1771681482945544000,4.8595439453125,-0.010155336000025272,0.0014507622690871358,0.019928891211748123
1771681482955901700,4.869901611328125,-0.011987877078354359,-0.005268557462841272,0.015652960166335106
1771681482966259700,4.880259765625,-0.011987877078354359,-0.011987877078354359,0.014431266114115715
1771681482976617500,4.890617431640625,-0.011987877078354359,-0.0034360159188508987,0.02053973823785782
1771681482986975200,4.900975341796875,-0.012598725035786629,-0.0016034740256145597,0.019928891211748123
1771681482997333200,4.911333251953125,-0.013209572061896324,-0.0022143214009702206,0.013209572061896324
1771681483007691000,4.92169091796875,-0.009544488042593002,-0.009544488042593002,0.024815669283270836
1771681483018049000,4.932049072265625,-0.013209572061896324,-0.0028251686599105597,0.015042114071547985
1771681483028406800,4.94240673828125,-0.010766183026134968,-0.015652960166335106,0.019318044185638428
1771681483038764800,4.952764892578125,-0.014431266114115715,-0.007711946498602629,0.02053973823785782
1771681483049122600,4.96312255859375,-0.012598725035786629,-0.011377030052244663,0.019928891211748123
1771681483059480600,4.97348046875,-0.012598725035786629,-0.024815669283270836,0.02053973823785782
1771681483069838300,4.98383837890625,-0.010155336000025272,-0.018707197159528732,0.02176143415272236
1771681483080196000,4.994196044921875,-0.010155336000025272,-0.033978380262851715,0.02176143415272236
1771681483090554000,5.00455419921875,-0.008933641016483307,-0.03092414326965809,0.012598725035786629
1771681483100911900,5.014911865234375,-0.0064902519807219505,-0.0364217683672905,0.016874656081199646
1771681483111270000,5.025269775390625,-0.007101099472492933,-0.033978380262851715,0.01382041908800602
1771681483121627600,5.035627685546875,-0.005268557462841272,-0.03764346241950989,0.015652960166335106
1771681483131985400,5.0459853515625,-0.0028251686599105597,-0.03703261539340019,0.01626380905508995
1771681483142343400,5.056343505859375,-0.0022143214009702206,-0.0364217683672905,0.018707197159528732
1771681483152701400,5.066701416015625,-0.0009926267666742206,-0.035200074315071106,0.01748550310730934
1771681483163059200,5.07705908203125,-0.0028251686599105597,-0.035200074315071106,0.02053973823785782
1771681483173417000,5.0874169921875,-0.004657710436731577,-0.030313294380903244,0.02542651630938053
1771681483183775000,5.09777490234375,-0.005879404954612255,-0.02053973823785782,0.02420482225716114
1771681483194132700,5.1081328125,-0.0064902519807219505,-0.02053973823785782,0.023593975231051445
1771681483204490800,5.11849072265625,-0.007101099472492933,-0.01626380905508995,0.02542651630938053
1771681483214848500,5.1288486328125,-0.008933641016483307,-0.011987877078354359,0.027259059250354767
1771681483225206500,5.13920654296875,-0.007101099472492933,-0.015652960166335106,0.031534988433122635
1771681483235564300,5.149564208984375,-0.010766183026134968,-0.0064902519807219505,0.02970244735479355
1771681483245922000,5.159922119140625,-0.011987877078354359,-0.008933641016483307,0.03214583545923233
1771681483256280000,5.170280029296875,-0.01382041908800602,-0.005879404954612255,0.03336753323674202
1771681483266637800,5.180637939453125,-0.015042114071547985,-0.007101099472492933,0.03092414326965809
1771681483276995800,5.190995849609375,-0.013209572061896324,-0.011987877078354359,0.032756682485342026
1771681483287353600,5.201353515625,-0.01626380905508995,-0.018096350133419037,0.02970244735479355
1771681483297711400,5.21171142578125,-0.01382041908800602,-0.018707197159528732,0.027869906276464462
1771681483308069400,5.2220693359375,-0.015652960166335106,-0.02053973823785782,0.027869906276464462
1771681483318427100,5.23242724609375,-0.01748550310730934,-0.01382041908800602,0.024815669283270836
1771681483328785200,5.24278515625,-0.01626380905508995,-0.013209572061896324,0.02298312820494175
1771681483339143000,5.253142822265625,-0.01626380905508995,-0.010155336000025272,0.019928891211748123
1771681483349501000,5.2635009765625,-0.011987877078354359,-0.007101099472492933,0.016874656081199646
1771681483359858700,5.273858642578125,-0.014431266114115715,-0.011377030052244663,0.016874656081199646
1771681483370216400,5.284216552734375,-0.013209572061896324,0.0008399150101467967,0.008322793990373611
1771681483380574500,5.294574462890625,-0.011987877078354359,-0.009544488042593002,0.015652960166335106
1771681483390932200,5.30493212890625,-0.015042114071547985,0.008170082233846188,0.004657710436731577
1771681483401290200,5.315290283203125,-0.013209572061896324,-0.007711946498602629,0.012598725035786629
1771681483411648000,5.32564794921875,-0.012598725035786629,0.011835165321826935,0.008322793990373611
1771681483422006000,5.336006103515625,-0.010155336000025272,-0.0016034740256145597,0.008933641016483307
1771681483432363800,5.34636376953125,-0.009544488042593002,0.0130568603053689,0.0022143214009702206
1771681483442721800,5.3567216796875,-0.008322793990373611,0.002061609411612153,0.008933641016483307
1771681483453079600,5.36707958984375,-0.008322793990373611,0.02160872146487236,0.0022143214009702206
1771681483463437300,5.377437255859375,-0.010155336000025272,0.0130568603053689,0.0034360159188508987
1771681483473795300,5.38779541015625,-0.008933641016483307,0.015500249341130257,0.0034360159188508987
1771681483484153000,5.398153076171875,-0.007711946498602629,0.014889402315020561,-0.002061609411612153
1771681483494511000,5.408510986328125,-0.008322793990373611,0.007559234742075205,0.010155336000025272
1771681483504868900,5.418868896484375,-0.007101099472492933,0.0051158457063138485,-0.0014507622690871358
1771681483515226600,5.4292265625,-0.007711946498602629,-0.004657710436731577,0.0064902519807219505
1771681483525584600,5.439584716796875,-0.010155336000025272,0.002061609411612153,0.0016034740256145597
1771681483535942400,5.4499423828125,-0.009544488042593002,-0.008933641016483307,0.004657710436731577
1771681483546300400,5.460300537109375,-0.013209572061896324,-0.0009926267666742206,0.004657710436731577
1771681483556658200,5.470658203125,-0.011377030052244663,-0.0034360159188508987,0.004657710436731577
1771681483567016200,5.48101611328125,-0.010766183026134968,-0.01382041908800602,0.0016034740256145597
1771681483577374000,5.4913740234375,-0.011987877078354359,0.006337540224194527,0.0009926267666742206
1771681483587731700,5.501731689453125,-0.011377030052244663,-0.021150587126612663,0.0064902519807219505
1771681483598089700,5.51208984375,-0.013209572061896324,-0.0016034740256145597,0.0009926267666742206
1771681483608447500,5.522447509765625,-0.012598725035786629,-0.010766183026134968,0.009544488042593002
1771681483618805500,5.532805419921875,-0.011987877078354359,-0.004046862944960594,0.0064902519807219505
1771681483629163300,5.543163330078125,-0.010766183026134968,-0.016874656081199646,0.014431266114115715
1771681483639521300,5.553521240234375,-0.010766183026134968,-0.011987877078354359,0.005268557462841272
1771681483649879000,5.563879150390625,-0.008322793990373611,-0.015042114071547985,0.018707197159528732
1771681483660236800,5.57423681640625,-0.010155336000025272,-0.009544488042593002,0.008322793990373611
1771681483670594800,5.5845947265625,-0.010766183026134968,-0.0064902519807219505,0.01382041908800602
1771681483680952600,5.59495263671875,-0.010766183026134968,0.0008399150101467967,0.015652960166335106
1771681483691310600,5.605310546875,-0.009544488042593002,-0.007101099472492933,0.01626380905508995
1771681483701668400,5.61566845703125,-0.010155336000025272,-0.009544488042593002,0.015652960166335106
1771681483712026400,5.6260263671875,-0.008933641016483307,-0.0022143214009702206,0.013209572061896324
1771681483722384100,5.636384033203125,-0.008933641016483307,-0.018096350133419037,0.02298312820494175
1771681483732742000,5.646741943359375,-0.010155336000025272,-0.00038177953683771193,0.011377030052244663
1771681483743100000,5.657099853515625,-0.012598725035786629,-0.018707197159528732,0.015652960166335106
1771681483753457700,5.667457763671875,-0.015652960166335106,0.007559234742075205,0.018707197159528732
1771681483763815700,5.677815673828125,-0.014431266114115715,-0.0064902519807219505,0.008933641016483307
1771681483774173400,5.68817333984375,-0.01626380905508995,-0.008933641016483307,0.010155336000025272
1771681483784531200,5.69853125,-0.016874656081199646,0.002672456670552492,0.007101099472492933
1771681483794889200,5.70888916015625,-0.014431266114115715,-0.013209572061896324,0.008933641016483307
1771681483805247000,5.7192470703125,-0.018707197159528732,0.00022906772210262716,-0.00022906772210262716
1771681483815605000,5.72960498046875,-0.016874656081199646,-0.010155336000025272,0.007101099472492933
1771681483825962800,5.739962646484375,-0.02053973823785782,0.00022906772210262716,0.0034360159188508987
1771681483836320800,5.75032080078125,-0.018096350133419037,-0.010155336000025272,0.00038177953683771193
1771681483846678500,5.760678466796875,-0.019318044185638428,-0.018096350133419037,0.004046862944960594
1771681483857036500,5.77103662109375,-0.016874656081199646,-0.012598725035786629,-0.0014507622690871358
1771681483867394300,5.781394287109375,-0.01748550310730934,-0.02970244735479355,-0.002061609411612153
1771681483877752000,5.791751953125,-0.018096350133419037,-0.013209572061896324,-0.002672456670552492
1771681483888110000,5.802110107421875,-0.019928891211748123,-0.018096350133419037,0.0028251686599105597
1771681483898467800,5.8124677734375,-0.01748550310730934,-0.010155336000025272,-0.004504998680204153
1771681483908825900,5.822825927734375,-0.016874656081199646,-0.010155336000025272,0.0016034740256145597
1771681483919183600,5.83318359375,-0.014431266114115715,-0.0009926267666742206,0.0009926267666742206
1771681483929541400,5.843541259765625,-0.015652960166335106,0.004504998680204153,0.0022143214009702206
1771681483939899400,5.8538994140625,-0.013209572061896324,0.014889402315020561,-0.0032833039294928312
1771681483950257200,5.864257080078125,-0.014431266114115715,0.018554486334323883,-0.002672456670552492
1771681483960615200,5.874615234375,-0.012598725035786629,0.025273805484175682,-0.008170082233846188
1771681483970973000,5.884972900390625,-0.009544488042593002,0.025884652510285378,-0.0038941511884331703
1771681483981330700,5.89533056640625,-0.0064902519807219505,0.03565821051597595,-0.006337540224194527
1771681483991688700,5.905688720703125,-0.004046862944960594,0.02405211143195629,-0.011835165321826935
1771681484002046500,5.91604638671875,-0.0022143214009702206,0.03443651273846626,-0.012446013279259205
1771681484012404500,5.926404541015625,-0.0022143214009702206,0.025884652510285378,-0.004504998680204153
1771681484022762200,5.93676220703125,-0.0016034740256145597,0.038101598620414734,-0.014278554357588291
1771681484033120300,5.947120361328125,-0.004657710436731577,0.025884652510285378,-0.009391776286065578
1771681484043478000,5.95747802734375,-0.004657710436731577,0.03871244564652443,-0.0130568603053689
1771681484053835800,5.967835693359375,-0.0022143214009702206,0.022219568490982056,-0.008780929259955883
1771681484064193800,5.97819384765625,-0.004657710436731577,0.02710634656250477,-0.012446013279259205
1771681484074551600,5.988551513671875,-0.004046862944960594,0.0130568603053689,-0.008780929259955883
1771681484084909600,5.99890966796875,-0.007711946498602629,0.014278554357588291,-0.010613471269607544
1771681484095267300,6.009267333984375,-0.010766183026134968,0.017332790419459343,-0.016721943393349648
1771681484105625300,6.019625244140625,-0.01382041908800602,0.01122431829571724,-0.010002624243497849
1771681484115983000,6.029983154296875,-0.016874656081199646,0.023441264405846596,-0.01794363744556904
1771681484126340900,6.0403408203125,-0.01748550310730934,0.014889402315020561,-0.01794363744556904
1771681484136699000,6.050698974609375,-0.019318044185638428,0.016721943393349648,-0.01916533336043358
1771681484147056600,6.061056640625,-0.019928891211748123,0.014889402315020561,-0.019776180386543274
1771681484157414700,6.07141455078125,-0.019318044185638428,0.014889402315020561,-0.020997874438762665
1771681484167772400,6.0817724609375,-0.022372281178832054,0.018554486334323883,-0.019776180386543274
1771681484178130200,6.092130126953125,-0.022372281178832054,0.026495499536395073,-0.018554486334323883
1771681484188488200,6.10248828125,-0.02053973823785782,0.02283041551709175,-0.02038702741265297
1771681484198846000,6.112845947265625,-0.02053973823785782,0.025884652510285378,-0.01916533336043358
1771681484209204000,6.123203857421875,-0.01748550310730934,0.02038702741265297,-0.01794363744556904
1771681484219561700,6.133561767578125,-0.01382041908800602,0.016721943393349648,-0.011835165321826935
1771681484229919500,6.14391943359375,-0.01382041908800602,0.006337540224194527,-0.008170082233846188
1771681484240277500,6.154277587890625,-0.011377030052244663,0.018554486334323883,-0.014889402315020561
1771681484250635300,6.16463525390625,-0.011987877078354359,-0.0034360159188508987,-0.008780929259955883
1771681484260993300,6.1749931640625,-0.010766183026134968,0.012446013279259205,-0.0038941511884331703
1771681484271351000,6.18535107421875,-0.010766183026134968,-0.0009926267666742206,0.0034360159188508987
1771681484281708800,6.195708740234375,-0.010155336000025272,-0.008322793990373611,-0.004504998680204153
1771681484292066800,6.20606689453125,-0.007101099472492933,-0.0016034740256145597,-0.002672456670552492
1771681484302424600,6.216424560546875,-0.009544488042593002,-0.013209572061896324,0.005879404954612255
1771681484312782600,6.226782470703125,-0.010766183026134968,0.0032833039294928312,0.005268557462841272
1771681484323140400,6.237140380859375,-0.013209572061896324,-0.008322793990373611,0.0034360159188508987
1771681484333498400,6.247498291015625,-0.014431266114115715,0.00022906772210262716,-0.0051158457063138485
1771681484343856000,6.257856201171875,-0.013209572061896324,-0.010155336000025272,-0.00022906772210262716
1771681484354214000,6.2682138671875,-0.013209572061896324,-0.004046862944960594,0.0016034740256145597
1771681484364572000,6.278572021484375,-0.015652960166335106,-0.019928891211748123,0.0022143214009702206
1771681484374929700,6.2889296875,-0.02053973823785782,-0.009544488042593002,-0.016111096367239952
1771681484385287700,6.29928759765625,-0.022372281178832054,-0.019928891211748123,-0.010002624243497849
1771681484395645400,6.3096455078125,-0.02542651630938053,-0.022372281178832054,-0.011835165321826935
1771681484406003200,6.320003173828125,-0.024815669283270836,-0.03214583545923233,-0.01122431829571724
1771681484416361200,6.330361328125,-0.03886515647172928,-0.07429429888725281,-0.04359922185540199
1771681484426719000,6.340718994140625,-0.0358109213411808,-0.05596888065338135,-0.053983625024557114
1771681484437077000,6.351076904296875,-0.030313294380903244,-0.027259059250354767,-0.03077143058180809
1771681484447434800,6.361434814453125,-0.02970244735479355,-0.02053973823785782,-0.0429883748292923
1771681484457792500,6.37179248046875,-0.03214583545923233,-0.048638712614774704,-0.05276193097233772
1771681484468150500,6.382150634765625,-0.0364217683672905,-0.0358109213411808,-0.07047650218009949
1771681484478508300,6.39250830078125,-0.02970244735479355,-0.019318044185638428,-0.07291989028453827
1771681484488866300,6.4028662109375,-0.028480753302574158,-0.02298312820494175,-0.07475243508815765
1771681484499224000,6.41322412109375,-0.026037365198135376,-0.005268557462841272,-0.07658497244119644
1771681484509581800,6.423581787109375,-0.03092414326965809,-0.027869906276464462,-0.08819106966257095
1771681484519939800,6.43393994140625,-0.030313294380903244,-0.012598725035786629,-0.10407309979200363
1771681484530297600,6.444297607421875,-0.02176143415272236,0.026495499536395073,-0.07780666649341583
1771681484540655600,6.454655517578125,-0.02542651630938053,0.047264307737350464,-0.07230904698371887
1771681484551013400,6.465013427734375,-0.01748550310730934,0.005726693198084831,-0.08574768155813217
1771681484561371100,6.47537109375,-0.018096350133419037,0.0051158457063138485,-0.0942995473742485
1771681484571729200,6.485729248046875,-0.010766183026134968,0.02832804247736931,-0.08574768155813217
1771681484582087000,6.4960869140625,-0.011377030052244663,0.02038702741265297,-0.07475243508815765
1771681484592445000,6.50644482421875,-0.011377030052244663,0.025884652510285378,-0.07658497244119644
1771681484602802700,6.516802734375,-0.021150587126612663,0.016721943393349648,-0.07780666649341583
1771681484613160700,6.52716064453125,-0.02176143415272236,0.038101598620414734,-0.08391514420509338
1771681484623518500,6.5375185546875,-0.02053973823785782,0.0429883748292923,-0.06314633786678314
1771681484633876200,6.547876220703125,-0.022372281178832054,0.039323292672634125,-0.05215108394622803
1771681484644234200,6.558234130859375,-0.02664821222424507,0.01916533336043358,-0.05703786388039589
1771681484654592000,6.568592041015625,-0.02542651630938053,0.027717193588614464,-0.060092099010944366
1771681484664950000,6.578949951171875,-0.024815669283270836,0.03993413969874382,-0.04604261368513107
1771681484675307800,6.589307861328125,-0.028480753302574158,0.041766680777072906,-0.030160583555698395
1771681484685665500,6.59966552734375,-0.033978380262851715,0.0423775278031826,-0.025273805484175682
1771681484696023600,6.6100234375,-0.031534988433122635,0.03871244564652443,-0.027717193588614464
1771681484706381300,6.62038134765625,-0.02970244735479355,0.050929389894008636,-0.02038702741265297
1771681484716739000,6.630739013671875,-0.032756682485342026,0.03687990456819534,-0.00022906772210262716
1771681484727097000,6.64109716796875,-0.031534988433122635,0.044820915907621384,0.004657710436731577
1771681484737454800,6.651454833984375,-0.03214583545923233,0.02710634656250477,0.0016034740256145597
1771681484747812900,6.661812744140625,-0.02970244735479355,0.03443651273846626,-0.0008399150101467967
1771681484758170600,6.672170654296875,-0.028480753302574158,0.02160872146487236,0.014431266114115715
1771681484768528400,6.6825283203125,-0.028480753302574158,0.026495499536395073,0.021150587126612663
1771681484778886400,6.692886474609375,-0.032756682485342026,-0.007101099472492933,0.011987877078354359
1771681484789244200,6.703244140625,-0.03092414326965809,0.0051158457063138485,0.0016034740256145597
1771681484799602200,6.713602294921875,-0.028480753302574158,-0.004046862944960594,0.01748550310730934
1771681484809960000,6.7239599609375,-0.03092414326965809,0.008170082233846188,0.02420482225716114
1771681484820318000,6.73431787109375,-0.035200074315071106,-0.04253023862838745,0.010155336000025272
1771681484830675700,6.74467578125,-0.03214583545923233,-0.0492495596408844,-0.0008399150101467967
1771681484841033500,6.755033447265625,-0.019928891211748123,0.04543176665902138,0.041919391602277756
1771681484851391500,6.7653916015625,-0.02053973823785782,0.049707695841789246,0.05047125369310379
1771681484861749200,6.775749267578125,-0.029091600328683853,-0.06818582862615585,0.0028251686599105597
1771681484872107300,6.786107177734375,-0.02542651630938053,-0.0761268362402916,-0.010002624243497849
1771681484882465000,6.796465087890625,-0.019318044185638428,0.022219568490982056,0.02970244735479355
1771681484892822800,6.80682275390625,-0.019928891211748123,0.028938889503479004,0.03886515647172928
1771681484903180800,6.817180908203125,-0.023593975231051445,-0.019928891211748123,0.01626380905508995
1771681484913538600,6.82753857421875,-0.02542651630938053,-0.029091600328683853,0.0028251686599105597
1771681484923896300,6.837896240234375,-0.01748550310730934,0.01122431829571724,0.018707197159528732
1771681484934254300,6.84825439453125,-0.02053973823785782,0.038101598620414734,0.032756682485342026
1771681484944612000,6.858612060546875,-0.023593975231051445,-0.03092414326965809,0.012598725035786629
1771681484954970000,6.86897021484375,-0.027259059250354767,-0.12255123257637024,-0.02160872146487236
1771681484965328000,6.879327880859375,-0.02053973823785782,0.03321481868624687,0.028480753302574158
1771681484975685600,6.889685546875,-0.03092414326965809,0.16943375766277313,0.0883437842130661
1771681484986043600,6.900043701171875,-0.019318044185638428,-0.040697697550058365,0.008322793990373611
1771681484996401400,6.9104013671875,-0.03092414326965809,-0.17386239767074585,-0.0423775278031826
1771681485006759400,6.920759521484375,-0.026037365198135376,-0.02664821222424507,0.019928891211748123
1771681485017117200,6.9311171875,-0.019928891211748123,0.15233004093170166,0.07001836597919464
1771681485027475000,6.941474853515625,-0.019928891211748123,-0.03886515647172928,0.016874656081199646
1771681485037833000,6.9518330078125,-0.03092414326965809,-0.09811734408140182,-0.0008399150101467967
1771681485048190700,6.962190673828125,-0.011987877078354359,0.06131379306316376,0.032756682485342026
1771681485058548500,6.972548583984375,-0.010766183026134968,0.09368869662284851,0.060244809836149216
1771681485068906500,6.982906494140625,-0.011987877078354359,-0.033978380262851715,0.01382041908800602
1771681485079264300,6.99326416015625,-0.01748550310730934,-0.08651123940944672,0.004657710436731577
1771681485089622300,7.003622314453125,-0.007101099472492933,0.06070294603705406,0.032756682485342026
1771681485099980000,7.01397998046875,-0.011987877078354359,0.07047650218009949,0.05413633957505226
1771681485110338000,7.024338134765625,-0.021150587126612663,-0.019928891211748123,0.02420482225716114
1771681485120695800,7.03469580078125,-0.01748550310730934,-0.0034360159188508987,0.02970244735479355
1771681485131053600,7.045053466796875,-0.015652960166335106,0.038101598620414734,0.04741701856255531
1771681485141411600,7.05541162109375,-0.015042114071547985,0.013667707331478596,0.057801421731710434
1771681485151769300,7.065769287109375,-0.015042114071547985,0.008170082233846188,0.05474718660116196
1771681485162127000,7.076127197265625,-0.011377030052244663,0.016111096367239952,0.06452073901891708
1771681485172485000,7.086485107421875,-0.012598725035786629,0.02160872146487236,0.0755159929394722
1771681485182843000,7.0968427734375,-0.011987877078354359,0.002061609411612153,0.07918107509613037
1771681485193201000,7.107200927734375,-0.008933641016483307,0.006948387715965509,0.07368344813585281
1771681485203558700,7.11755859375,-0.005268557462841272,0.0014507622690871358,0.08101361989974976
1771681485213916400,7.12791650390625,-0.005879404954612255,0.0130568603053689,0.08590039610862732
1771681485224274400,7.1382744140625,-0.004046862944960594,-0.004657710436731577,0.07857023179531097
1771681485234632200,7.148632080078125,-0.004046862944960594,-0.0009926267666742206,0.07246175408363342
1771681485244990200,7.158990234375,-0.004046862944960594,-0.00038177953683771193,0.07795938104391098
1771681485255348000,7.169347900390625,-0.005879404954612255,-0.0009926267666742206,0.07734853774309158
1771681485265705700,7.179705810546875,-0.005879404954612255,-0.011377030052244663,0.060244809836149216
1771681485276063700,7.190063720703125,-0.004657710436731577,-0.010155336000025272,0.05963396281003952
1771681485286421500,7.20042138671875,-0.005879404954612255,0.005726693198084831,0.05413633957505226
1771681485296779300,7.210779296875,-0.0064902519807219505,-0.018096350133419037,0.044362783432006836
1771681485307137300,7.22113720703125,-0.004657710436731577,0.002061609411612153,0.029091600328683853
1771681485317495000,7.2314951171875,-0.0028251686599105597,0.0008399150101467967,0.029091600328683853
1771681485327853000,7.24185302734375,-0.004046862944960594,0.006337540224194527,0.02176143415272236
1771681485338210800,7.2522109375,-0.004657710436731577,-0.0016034740256145597,0.009544488042593002
1771681485348568600,7.262568603515625,-0.0034360159188508987,0.002061609411612153,0.0064902519807219505
1771681485358926600,7.272926513671875,-0.005268557462841272,0.005726693198084831,0.005268557462841272
1771681485369284400,7.283284423828125,-0.0064902519807219505,-0.008933641016483307,-0.0008399150101467967
1771681485379642400,7.293642333984375,-0.008322793990373611,-0.007711946498602629,-0.0130568603053689
1771681485390000000,7.304000244140625,-0.010155336000025272,0.002061609411612153,-0.010613471269607544
1771681485400358000,7.31435791015625,-0.013209572061896324,-0.005268557462841272,-0.0130568603053689
1771681485410716000,7.3247158203125,-0.013209572061896324,-0.018096350133419037,-0.024662958458065987
1771681485421073700,7.33507373046875,-0.011987877078354359,-0.015042114071547985,-0.02283041551709175
1771681485431431700,7.345431640625,-0.012598725035786629,-0.0034360159188508987,-0.020997874438762665
1771681485441789400,7.35578955078125,-0.013209572061896324,-0.011377030052244663,-0.025884652510285378
1771681485452147200,7.366147216796875,-0.013209572061896324,-0.008933641016483307,-0.03504735976457596
1771681485462505200,7.376505126953125,-0.008322793990373611,-0.0016034740256145597,-0.02832804247736931
1771681485472863000,7.386863037109375,-0.007711946498602629,0.010002624243497849,-0.030160583555698395
1771681485483220700,7.397220703125,-0.005879404954612255,0.0038941511884331703,-0.03993413969874382
1771681485493578800,7.407578857421875,-0.0034360159188508987,0.008780929259955883,-0.039323292672634125
1771681485503936500,7.4179365234375,-0.0022143214009702206,0.03565821051597595,-0.03626905754208565
1771681485514294500,7.42829443359375,-0.0016034740256145597,0.014278554357588291,-0.0423775278031826
1771681485524652300,7.43865234375,0.0008399150101467967,0.022219568490982056,-0.04543176665902138
1771681485535010000,7.449010009765625,-0.00038177953683771193,0.040544986724853516,-0.03626905754208565
1771681485545368000,7.4593681640625,-0.0022143214009702206,0.03382566571235657,-0.03626905754208565
1771681485555725800,7.469725830078125,-0.0028251686599105597,0.03199312463402748,-0.041766680777072906
1771681485566083600,7.48008349609375,-0.0016034740256145597,0.039323292672634125,-0.025884652510285378
1771681485576441600,7.490441650390625,-0.0016034740256145597,0.04604261368513107,-0.022219568490982056
1771681485586799400,7.50079931640625,-0.0009926267666742206,0.026495499536395073,-0.02283041551709175
1771681485597157400,7.511157470703125,-0.0009926267666742206,0.06070294603705406,-0.015500249341130257
1771681485607515100,7.52151513671875,-0.00038177953683771193,0.04909684881567955,-0.007559234742075205
1771681485617873000,7.531872802734375,0.002061609411612153,0.04909684881567955,-0.010002624243497849
1771681485628231000,7.54223095703125,0.002672456670552492,0.047264307737350464,-0.0051158457063138485
1771681485638588700,7.552588623046875,0.004504998680204153,0.06497887521982193,0.005879404954612255
1771681485648946700,7.56294677734375,0.002672456670552492,0.05276193097233772,0.0016034740256145597
1771681485659304400,7.573304443359375,0.0014507622690871358,0.04787515476346016,0.00038177953683771193
1771681485669662200,7.583662109375,-0.00038177953683771193,0.06314633786678314,0.015042114071547985
1771681485680020200,7.594020263671875,-0.0009926267666742206,0.053983625024557114,0.010766183026134968
1771681485690378000,7.6043779296875,-0.0022143214009702206,0.03993413969874382,0.008933641016483307
1771681485700735700,7.61473583984375,-0.004657710436731577,0.05459447205066681,0.015652960166335106
1771681485711093800,7.62509375,-0.005879404954612255,0.03993413969874382,0.02053973823785782
1771681485721451500,7.635451416015625,-0.0034360159188508987,0.02710634656250477,0.015042114071547985
1771681485731809500,7.6458095703125,-0.0009926267666742206,0.027717193588614464,0.021150587126612663
1771681485742167300,7.656167236328125,0.0014507622690871358,0.023441264405846596,0.02970244735479355
1771681485752525000,7.666525146484375,0.0032833039294928312,0.011835165321826935,0.02420482225716114
1771681485762883000,7.676883056640625,0.004504998680204153,0.01122431829571724,0.02664821222424507
1771681485773240800,7.68724072265625,0.008170082233846188,0.01122431829571724,0.04130854457616806
1771681485783598600,7.6975986328125,0.007559234742075205,0.0008399150101467967,0.03764346241950989
1771681485793956600,7.70795654296875,0.006948387715965509,0.0014507622690871358,0.03458922728896141
1771681485804314400,7.718314453125,0.0051158457063138485,0.008780929259955883,0.04497363045811653
1771681485814672400,7.72867236328125,0.0051158457063138485,-0.0028251686599105597,0.043141089379787445
1771681485825030100,7.739030029296875,0.008170082233846188,-0.007101099472492933,0.03214583545923233
1771681485835388000,7.749387939453125,0.010002624243497849,0.00022906772210262716,0.04253023862838745
1771681485845746000,7.759745849609375,0.010002624243497849,0.0038941511884331703,0.04008685052394867
1771681485856103700,7.770103759765625,0.0130568603053689,-0.02053973823785782,0.033978380262851715
1771681485866461700,7.780461669921875,0.016721943393349648,0.013667707331478596,0.03825430944561958
1771681485876819500,7.7908193359375,0.019776180386543274,-0.007711946498602629,0.04130854457616806
1771681485887177200,7.80117724609375,0.02405211143195629,-0.004657710436731577,0.027869906276464462
1771681485897535200,7.81153515625,0.025884652510285378,-0.007101099472492933,0.04008685052394867
1771681485907893000,7.82189306640625,0.02710634656250477,-0.02053973823785782,0.040697697550058365
1771681485918250800,7.832250732421875,0.0295497365295887,-0.04497363045811653,0.031534988433122635
1771681485928608800,7.84260888671875,0.02832804247736931,-0.04375193640589714,0.03825430944561958
1771681485938966500,7.852966552734375,0.02710634656250477,-0.05657972767949104,0.041919391602277756
1771681485949324500,7.863324462890625,0.026495499536395073,-0.07307260483503342,0.02664821222424507
1771681485959682300,7.873682373046875,0.026495499536395073,-0.05719057470560074,0.0364217683672905
1771681485970040000,7.8840400390625,0.023441264405846596,-0.05841226875782013,0.043141089379787445
1771681485980398000,7.894398193359375,0.026495499536395073,-0.05291464552283287,0.03092414326965809
1771681485990755800,7.904755859375,0.027717193588614464,-0.018707197159528732,0.04130854457616806
1771681486001113600,7.915113525390625,0.026495499536395073,0.0014507622690871358,0.04558447748422623
1771681486011471600,7.9254716796875,0.03077143058180809,-0.0028251686599105597,0.03764346241950989
1771681486021829400,7.935829345703125,0.03199312463402748,0.04909684881567955,0.039476003497838974
1771681486032187400,7.9461875,0.030160583555698395,0.049707695841789246,0.04375193640589714
1771681486042545200,7.956545166015625,0.02038702741265297,0.008780929259955883,0.023593975231051445
1771681486052903000,7.96690283203125,0.02283041551709175,0.09185615926980972,0.027259059250354767
1771681486063261000,7.977260986328125,0.025884652510285378,0.08269345015287399,0.029091600328683853
1771681486073618700,7.98761865234375,0.022219568490982056,0.0429883748292923,0.011377030052244663
1771681486083976700,7.997976806640625,0.02405211143195629,0.08880192041397095,0.019318044185638428
1771681486094334500,8.00833447265625,0.014278554357588291,0.027717193588614464,0.024815669283270836
1771681486104692200,8.018692138671875,0.023441264405846596,0.013667707331478596,0.0064902519807219505
1771681486115050200,8.02905029296875,0.03443651273846626,0.0051158457063138485,0.0064902519807219505
1771681486125408000,8.039407958984375,0.038101598620414734,0.02038702741265297,0.0064902519807219505
1771681486135765800,8.049765869140625,0.03565821051597595,-0.0034360159188508987,-0.009391776286065578
1771681486146123800,8.060123779296875,0.03749075159430504,0.024662958458065987,-0.011835165321826935
1771681486156481500,8.0704814453125,0.03443651273846626,0.008780929259955883,-0.012446013279259205
1771681486166839600,8.080839599609375,0.03443651273846626,0.005726693198084831,-0.026495499536395073
1771681486177197300,8.091197265625,0.03321481868624687,0.016111096367239952,-0.01794363744556904
1771681486187555000,8.10155517578125,0.031382277607917786,0.01122431829571724,-0.025273805484175682
1771681486197913000,8.1119130859375,0.03321481868624687,-0.010155336000025272,-0.03687990456819534
1771681486208270800,8.122270751953126,0.03504735976457596,0.022219568490982056,-0.03626905754208565
1771681486218628600,8.132628662109376,0.03626905754208565,-0.0022143214009702206,-0.040544986724853516
1771681486228986600,8.142986572265626,0.03993413969874382,-0.013209572061896324,-0.05825955793261528
1771681486239344400,8.153344482421875,0.04359922185540199,0.0032833039294928312,-0.056427016854286194
1771681486249702400,8.163702392578125,0.04787515476346016,-0.01626380905508995,-0.056427016854286194
1771681486260060200,8.17406005859375,0.05154023692011833,-0.016874656081199646,-0.07047650218009949
1771681486270418000,8.18441796875,0.05337277799844742,-0.011987877078354359,-0.06497887521982193
1771681486280776000,8.19477587890625,0.05459447205066681,-0.01748550310730934,-0.06436803191900253
1771681486291133700,8.2051337890625,0.05215108394622803,-0.022372281178832054,-0.07108735293149948
1771681486301491500,8.215491455078125,0.048486001789569855,-0.019318044185638428,-0.07047650218009949
1771681486311849500,8.225849365234374,0.04909684881567955,-0.03336753323674202,-0.06192464008927345
1771681486322207200,8.236207275390624,0.04604261368513107,-0.03336753323674202,-0.06375718116760254
1771681486332565000,8.24656494140625,0.04787515476346016,-0.043141089379787445,-0.05948125198483467
1771681486342923000,8.256923095703126,0.04787515476346016,-0.060244809836149216,-0.0558161698281765
1771681486353280800,8.26728076171875,0.05215108394622803,-0.05657972767949104,-0.04665346071124077
1771681486363638800,8.277638671875,0.0558161698281765,-0.06940752267837524,-0.03871244564652443
1771681486373996500,8.28799658203125,0.057648710906505585,-0.0749051421880722,-0.040544986724853516
1771681486384354600,8.2983544921875,0.05703786388039589,-0.07734853774309158,-0.02832804247736931
1771681486394712300,8.30871240234375,0.0558161698281765,-0.06757497787475586,-0.026495499536395073
1771681486405070000,8.319070068359375,0.05215108394622803,-0.07368344813585281,-0.031382277607917786
1771681486415428000,8.329427978515625,0.04787515476346016,-0.06635328382253647,-0.032603971660137177
1771681486425785900,8.339785888671875,0.0423775278031826,-0.06146650388836861,-0.02405211143195629
1771681486436143600,8.3501435546875,0.03687990456819534,-0.060244809836149216,-0.027717193588614464
1771681486446501600,8.360501708984375,0.03443651273846626,-0.05230379477143288,-0.02405211143195629
1771681486456859400,8.370859375,0.032603971660137177,-0.03886515647172928,-0.02038702741265297
1771681486467217200,8.381217041015624,0.03443651273846626,-0.030313294380903244,-0.01916533336043358
1771681486477575200,8.3915751953125,0.03321481868624687,-0.02176143415272236,-0.020997874438762665
1771681486487933000,8.401932861328126,0.03687990456819534,0.008780929259955883,-0.024662958458065987
1771681486498291000,8.412291015625,0.03687990456819534,0.008780929259955883,-0.02405211143195629
1771681486508648700,8.422648681640625,0.038101598620414734,0.030160583555698395,-0.03443651273846626
1771681486519006500,8.43300634765625,0.03993413969874382,0.020997874438762665,-0.03382566571235657
1771681486529364500,8.443364501953125,0.0423775278031826,0.03443651273846626,-0.03443651273846626
1771681486539722200,8.45372216796875,0.048486001789569855,0.017332790419459343,-0.026495499536395073
1771681486550080000,8.464080078125,0.049707695841789246,0.025273805484175682,-0.02710634656250477
1771681486560438000,8.47443798828125,0.05337277799844742,0.02710634656250477,-0.016111096367239952
1771681486570795800,8.484795654296875,0.05276193097233772,0.016111096367239952,-0.012446013279259205
1771681486581153800,8.49515380859375,0.057648710906505585,0.010613471269607544,-0.026495499536395073
1771681486591511600,8.505511474609374,0.06192464008927345,0.019776180386543274,-0.019776180386543274
1771681486601869300,8.515869384765624,0.06070294603705406,0.048486001789569855,-0.005726693198084831
1771681486612227300,8.526227294921876,0.057648710906505585,0.019776180386543274,-0.016721943393349648
1771681486622585000,8.536585205078126,0.057648710906505585,0.018554486334323883,-0.014889402315020561
1771681486632943000,8.546943115234376,0.0558161698281765,0.03504735976457596,0.0016034740256145597
1771681486643300900,8.55730078125,0.05154023692011833,0.0130568603053689,0.010766183026134968
1771681486653658600,8.56765869140625,0.04604261368513107,0.015500249341130257,0.005879404954612255
1771681486664016600,8.5780166015625,0.04421006888151169,0.015500249341130257,0.021150587126612663
1771681486674374400,8.58837451171875,0.040544986724853516,0.008780929259955883,0.02542651630938053
1771681486684732200,8.598732177734375,0.03871244564652443,-0.0016034740256145597,0.026037365198135376
1771681486695090200,8.609090087890625,0.03749075159430504,0.002061609411612153,0.031534988433122635
1771681486705448000,8.619447998046875,0.039323292672634125,-0.007711946498602629,0.03336753323674202
1771681486715806000,8.629805908203124,0.03993413969874382,-0.015652960166335106,0.035200074315071106
1771681486726163700,8.640163818359374,0.039323292672634125,-0.010766183026134968,0.030313294380903244
1771681486736521500,8.650521484375,0.04115583375096321,-0.02176143415272236,0.03764346241950989
1771681486746879500,8.66087939453125,0.041766680777072906,-0.013209572061896324,0.0364217683672905
1771681486757237200,8.6712373046875,0.04359922185540199,-0.01748550310730934,0.035200074315071106
1771681486767595000,8.681594970703125,0.0429883748292923,-0.019318044185638428,0.03886515647172928
1771681486777953000,8.691953125,0.041766680777072906,-0.01748550310730934,0.035200074315071106
1771681486788310800,8.702310791015625,0.044820915907621384,-0.03764346241950989,0.03214583545923233
1771681486798668800,8.712668701171875,0.04421006888151169,-0.032756682485342026,0.02298312820494175
1771681486809026600,8.723026611328125,0.04421006888151169,-0.04497363045811653,0.01748550310730934
1771681486819384300,8.73338427734375,0.044820915907621384,-0.05047125369310379,0.009544488042593002
1771681486829742300,8.743742431640625,0.04421006888151169,-0.057801421731710434,-0.00022906772210262716
1771681486840100000,8.75410009765625,0.047264307737350464,-0.06940752267837524,-0.01122431829571724
1771681486850457900,8.764457763671874,0.047264307737350464,-0.07307260483503342,-0.01794363744556904
1771681486860816000,8.77481591796875,0.047264307737350464,-0.07368344813585281,-0.02160872146487236
1771681486871173600,8.785173583984376,0.04421006888151169,-0.06574243307113647,-0.02832804247736931
1771681486881531600,8.79553173828125,0.04359922185540199,-0.05535803362727165,-0.03077143058180809
1771681486891889400,8.805889404296876,0.04115583375096321,-0.051082100719213486,-0.027717193588614464
1771681486902247200,8.8162470703125,0.040544986724853516,-0.04253023862838745,-0.03077143058180809
1771681486912605200,8.826605224609375,0.038101598620414734,-0.03458922728896141,-0.03199312463402748
1771681486922963000,8.836962890625,0.039323292672634125,-0.019928891211748123,-0.030160583555698395
1771681486933321000,8.847321044921875,0.03871244564652443,-0.014431266114115715,-0.0295497365295887
1771681486943678700,8.8576787109375,0.039323292672634125,-0.0022143214009702206,-0.03321481868624687
1771681486954036500,8.868036376953125,0.0423775278031826,-0.0028251686599105597,-0.025273805484175682
1771681486964394500,8.87839453125,0.0429883748292923,0.0051158457063138485,-0.026495499536395073
1771681486974752300,8.888752197265624,0.04359922185540199,0.004504998680204153,-0.023441264405846596
1771681486985110000,8.899110107421874,0.0423775278031826,0.0130568603053689,-0.016111096367239952
1771681486995468000,8.909468017578124,0.040544986724853516,0.017332790419459343,-0.010613471269607544
1771681487005825800,8.91982568359375,0.03749075159430504,0.014278554357588291,-0.010002624243497849
1771681487016183800,8.930183837890626,0.03504735976457596,0.012446013279259205,-0.002672456670552492
1771681487026541600,8.94054150390625,0.031382277607917786,0.020997874438762665,-0.0032833039294928312
1771681487036899300,8.9508994140625,0.030160583555698395,0.016721943393349648,0.0009926267666742206
1771681487047257300,8.96125732421875,0.02710634656250477,0.025884652510285378,-0.002061609411612153
1771681487057615000,8.971614990234375,0.025884652510285378,0.024662958458065987,-0.0051158457063138485
1771681487067972900,8.981972900390625,0.025273805484175682,0.0295497365295887,-0.0038941511884331703
1771681487078331000,8.992330810546875,0.02710634656250477,0.030160583555698395,-0.0051158457063138485
1771681487088688600,9.002688720703125,0.02832804247736931,0.02832804247736931,-0.008170082233846188
1771681487099046700,9.013046630859375,0.027717193588614464,0.03443651273846626,-0.012446013279259205
1771681487109404400,9.023404296875,0.027717193588614464,0.030160583555698395,-0.010002624243497849
1771681487119762400,9.033762451171874,0.026495499536395073,0.032603971660137177,-0.014278554357588291
1771681487130120200,9.0441201171875,0.028938889503479004,0.02405211143195629,-0.02160872146487236
1771681487140478000,9.05447802734375,0.0295497365295887,0.024662958458065987,-0.020997874438762665
1771681487150836000,9.0648359375,0.03077143058180809,0.02405211143195629,-0.019776180386543274
1771681487161193700,9.07519384765625,0.031382277607917786,0.023441264405846596,-0.02283041551709175
1771681487171551500,9.085551513671875,0.03077143058180809,0.020997874438762665,-0.02405211143195629
1771681487181909500,9.095909423828125,0.032603971660137177,0.012446013279259205,-0.02160872146487236
1771681487192267300,9.106267333984375,0.03321481868624687,0.013667707331478596,-0.022219568490982056
1771681487202625000,9.116625,0.03565821051597595,0.008170082233846188,-0.02283041551709175
1771681487212983000,9.126983154296875,0.03626905754208565,-0.0016034740256145597,-0.02038702741265297
1771681487223340800,9.1373408203125,0.03382566571235657,0.007559234742075205,-0.02405211143195629
1771681487233698800,9.14769873046875,0.03443651273846626,0.00022906772210262716,-0.025273805484175682
1771681487244056600,9.158056640625,0.03199312463402748,0.006337540224194527,-0.026495499536395073
1771681487254414300,9.168414306640624,0.03199312463402748,0.0008399150101467967,-0.0295497365295887
1771681487264772400,9.1787724609375,0.031382277607917786,0.0014507622690871358,-0.028938889503479004
1771681487275130000,9.189130126953126,0.030160583555698395,-0.0034360159188508987,-0.027717193588614464
1771681487285488000,9.199488037109376,0.030160583555698395,-0.00038177953683771193,-0.030160583555698395
1771681487295846000,9.209845947265626,0.03077143058180809,-0.00038177953683771193,-0.027717193588614464
1771681487306203600,9.22020361328125,0.03199312463402748,0.005726693198084831,-0.020997874438762665
1771681487316561700,9.230561767578125,0.032603971660137177,-0.0034360159188508987,-0.02283041551709175
1771681487326919400,9.24091943359375,0.03504735976457596,-0.0009926267666742206,-0.02160872146487236
1771681487337277200,9.251277099609375,0.03382566571235657,-0.008933641016483307,-0.017332790419459343
1771681487347635200,9.26163525390625,0.032603971660137177,-0.0016034740256145597,-0.02038702741265297
1771681487357993000,9.271992919921875,0.03382566571235657,0.0130568603053689,-0.009391776286065578
1771681487368350700,9.282350830078125,0.03443651273846626,0.03443651273846626,0.0034360159188508987
1771681487378708700,9.292708740234374,0.03321481868624687,-0.008322793990373611,-0.005726693198084831
1771681487389066500,9.30306640625,0.03321481868624687,-0.0009926267666742206,-0.004504998680204153
1771681487399424500,9.313424560546874,0.032603971660137177,-0.004046862944960594,0.0016034740256145597
1771681487409782300,9.3237822265625,0.03199312463402748,0.00022906772210262716,-0.0008399150101467967
1771681487420140300,9.334140380859376,0.03077143058180809,0.0038941511884331703,-0.002061609411612153
1771681487430498000,9.344498046875,0.03199312463402748,0.002672456670552492,0.0022143214009702206
1771681487440855800,9.354855712890625,0.03077143058180809,0.0008399150101467967,-0.0008399150101467967
1771681487451213800,9.3652138671875,0.03199312463402748,0.0038941511884331703,-0.0008399150101467967
1771681487461571600,9.375571533203125,0.030160583555698395,0.002061609411612153,-0.00022906772210262716
1771681487471929300,9.385929443359375,0.02832804247736931,-0.0016034740256145597,-0.0038941511884331703
1771681487482287400,9.396287353515625,0.028938889503479004,-0.0016034740256145597,-0.006948387715965509
1771681487492645000,9.40664501953125,0.02832804247736931,-0.0009926267666742206,-0.002672456670552492
1771681487503003100,9.417003173828125,0.0295497365295887,-0.0034360159188508987,-0.002672456670552492
1771681487513361000,9.42736083984375,0.027717193588614464,-0.005879404954612255,-0.0051158457063138485
1771681487523718700,9.43771875,0.030160583555698395,0.00022906772210262716,-0.0038941511884331703
1771681487534076700,9.44807666015625,0.030160583555698395,-0.0009926267666742206,-0.0014507622690871358
1771681487544434400,9.458434326171876,0.02710634656250477,0.005726693198084831,-0.0051158457063138485
1771681487554792200,9.468792236328126,0.026495499536395073,0.008780929259955883,-0.006948387715965509
1771681487565150200,9.479150146484375,0.026495499536395073,0.011835165321826935,-0.006337540224194527
1771681487575508000,9.489508056640625,0.026495499536395073,0.014278554357588291,-0.0051158457063138485
1771681487585866000,9.499865966796875,0.025273805484175682,0.010002624243497849,-0.006948387715965509
1771681487596223700,9.5102236328125,0.025884652510285378,0.011835165321826935,-0.008170082233846188
1771681487606581500,9.52058154296875,0.024662958458065987,0.0130568603053689,-0.004504998680204153
1771681487616939500,9.530939453125,0.02283041551709175,0.006948387715965509,-0.007559234742075205
1771681487627297300,9.54129736328125,0.02405211143195629,0.007559234742075205,-0.002061609411612153
1771681487637655300,9.5516552734375,0.025273805484175682,0.006337540224194527,0.0022143214009702206
1771681487648013000,9.562012939453124,0.02710634656250477,0.0008399150101467967,0.0034360159188508987
1771681487658370800,9.572370849609374,0.026495499536395073,0.0008399150101467967,-0.00022906772210262716
1771681487668728800,9.582728759765626,0.026495499536395073,-0.00038177953683771193,0.0034360159188508987
1771681487679086600,9.593086669921876,0.026495499536395073,0.002061609411612153,-0.0008399150101467967
1771681487689444600,9.603444580078126,0.025273805484175682,0.005726693198084831,0.0022143214009702206
1771681487699802400,9.61380224609375,0.026495499536395073,0.0008399150101467967,-0.00022906772210262716
1771681487710160100,9.62416015625,0.02832804247736931,0.0014507622690871358,0.008322793990373611
1771681487720518100,9.63451806640625,0.028938889503479004,0.0014507622690871358,0.011377030052244663
1771681487730876000,9.6448759765625,0.028938889503479004,-0.004657710436731577,0.005879404954612255
1771681487741233700,9.655233642578125,0.027717193588614464,0.00022906772210262716,0.005268557462841272
1771681487751591700,9.665591796875,0.02710634656250477,0.004504998680204153,0.010155336000025272
1771681487761949400,9.675949462890625,0.02710634656250477,-0.0009926267666742206,0.0009926267666742206
1771681487772307500,9.686307373046875,0.02710634656250477,-0.0028251686599105597,-0.00022906772210262716
1771681487782665200,9.696665283203124,0.027717193588614464,-0.004046862944960594,0.004657710436731577
1771681487793023000,9.70702294921875,0.025273805484175682,-0.008933641016483307,-0.0038941511884331703
1771681487803381000,9.717381103515624,0.025884652510285378,-0.008322793990373611,-0.0008399150101467967
1771681487813738800,9.72773876953125,0.022219568490982056,-0.0034360159188508987,0.004657710436731577
1771681487824096500,9.738096435546876,0.02160872146487236,-0.0009926267666742206,0.0028251686599105597
1771681487834454500,9.74845458984375,0.022219568490982056,-0.0028251686599105597,0.004046862944960594
1771681487844812300,9.758812255859375,0.024662958458065987,0.00022906772210262716,0.008933641016483307
1771681487855170300,9.76917041015625,0.023441264405846596,-0.0064902519807219505,0.009544488042593002
1771681487865528000,9.779528076171875,0.023441264405846596,0.0051158457063138485,0.0034360159188508987
1771681487875885800,9.7898857421875,0.02405211143195629,-0.005879404954612255,0.008322793990373611
1771681487886243800,9.800243896484375,0.02405211143195629,0.005726693198084831,0.008322793990373611
1771681487896601600,9.8106015625,0.02405211143195629,-0.0022143214009702206,0.007101099472492933
1771681487906959600,9.820959716796875,0.025273805484175682,-0.0009926267666742206,0.007711946498602629
1771681487917317400,9.8313173828125,0.026495499536395073,-0.010155336000025272,0.007711946498602629
1771681487927675100,9.841675048828124,0.027717193588614464,-0.015042114071547985,0.004046862944960594
1771681487938033200,9.852033203125,0.027717193588614464,-0.012598725035786629,0.004046862944960594
1771681487948391000,9.862390869140626,0.027717193588614464,-0.018707197159528732,0.008933641016483307
1771681487958749000,9.8727490234375,0.025273805484175682,-0.01626380905508995,0.00038177953683771193
1771681487969106700,9.883106689453125,0.02710634656250477,-0.019318044185638428,0.0034360159188508987
1771681487979464400,9.89346435546875,0.026495499536395073,-0.02176143415272236,0.0022143214009702206
1771681487989822500,9.903822509765625,0.027717193588614464,-0.02420482225716114,-0.002672456670552492
1771681488000180200,9.91418017578125,0.026495499536395073,-0.03092414326965809,-0.004504998680204153
1771681488010538200,9.924538330078125,0.025884652510285378,-0.02298312820494175,-0.006337540224194527
1771681488020896000,9.93489599609375,0.026495499536395073,-0.03092414326965809,-0.005726693198084831
1771681488031253800,9.945253662109375,0.024662958458065987,-0.022372281178832054,-0.007559234742075205
1771681488041611800,9.95561181640625,0.024662958458065987,-0.02970244735479355,-0.002672456670552492
1771681488051969500,9.965969482421874,0.02405211143195629,-0.023593975231051445,-0.007559234742075205
1771681488062327300,9.976327392578124,0.024662958458065987,-0.0358109213411808,-0.006337540224194527
1771681488072685300,9.986685302734376,0.02160872146487236,-0.031534988433122635,-0.005726693198084831
1771681488083043000,9.99704296875,0.02038702741265297,-0.02970244735479355,-0.009391776286065578
1771681488093401000,10.007401123046876,0.019776180386543274,-0.03336753323674202,-0.01122431829571724
1771681488103758800,10.0177587890625,0.01916533336043358,-0.027259059250354767,-0.010002624243497849
1771681488114116600,10.02811669921875,0.018554486334323883,-0.03092414326965809,-0.010613471269607544
1771681488124474600,10.038474609375,0.018554486334323883,-0.030313294380903244,-0.008780929259955883
1771681488134832400,10.048832275390625,0.02038702741265297,-0.03214583545923233,-0.006948387715965509
1771681488145190400,10.0591904296875,0.01916533336043358,-0.03214583545923233,-0.009391776286065578
1771681488155548200,10.069548095703125,0.017332790419459343,-0.02664821222424507,-0.006337540224194527
1771681488165906000,10.079906005859375,0.015500249341130257,-0.022372281178832054,-0.005726693198084831
1771681488176264000,10.090263916015624,0.014889402315020561,-0.018707197159528732,-0.006337540224194527
1771681488186621700,10.10062158203125,0.014889402315020561,-0.019928891211748123,-0.006337540224194527
1771681488196979700,10.110979736328124,0.014889402315020561,-0.02053973823785782,-0.008170082233846188
1771681488207337500,10.12133740234375,0.014889402315020561,-0.016874656081199646,-0.005726693198084831
1771681488217695200,10.1316953125,0.0130568603053689,-0.01626380905508995,-0.004504998680204153
1771681488228053200,10.14205322265625,0.013667707331478596,-0.010766183026134968,-0.0038941511884331703
1771681488238411000,10.152410888671875,0.0130568603053689,-0.007101099472492933,-0.0032833039294928312
1771681488248769000,10.16276904296875,0.013667707331478596,-0.004046862944960594,-0.002672456670552492
1771681488259126800,10.173126708984375,0.013667707331478596,-0.005268557462841272,0.0016034740256145597
1771681488269484500,10.183484619140625,0.012446013279259205,0.002061609411612153,-0.004504998680204153
1771681488279842600,10.193842529296875,0.012446013279259205,-0.004657710436731577,0.0009926267666742206
1771681488290200300,10.204200439453125,0.010002624243497849,0.010002624243497849,-0.0038941511884331703
1771681488300558000,10.21455810546875,0.008170082233846188,0.0051158457063138485,-0.0038941511884331703
1771681488310916000,10.224916015625,0.005726693198084831,0.01794363744556904,-0.0014507622690871358
1771681488321273900,10.23527392578125,0.004504998680204153,0.016721943393349648,0.0009926267666742206
1771681488331631900,10.2456318359375,0.004504998680204153,0.016721943393349648,0.00038177953683771193
1771681488341989600,10.25598974609375,0.005726693198084831,0.01794363744556904,0.005879404954612255
1771681488352347400,10.266347412109376,0.0032833039294928312,0.018554486334323883,0.005879404954612255
1771681488362705400,10.276705322265625,0.0032833039294928312,0.014889402315020561,0.007101099472492933
1771681488373063200,10.287063232421875,0.0008399150101467967,0.018554486334323883,0.011377030052244663
1771681488383421200,10.297421142578125,0.0008399150101467967,0.013667707331478596,0.013209572061896324
1771681488393779000,10.307779052734375,0.0014507622690871358,0.010613471269607544,0.015042114071547985
1771681488404136700,10.31813671875,0.002672456670552492,0.012446013279259205,0.018707197159528732
1771681488414494700,10.32849462890625,0.002061609411612153,0.005726693198084831,0.023593975231051445
1771681488424852500,10.3388525390625,0.0008399150101467967,0.010002624243497849,0.02298312820494175
1771681488435210500,10.34921044921875,0.002061609411612153,0.008780929259955883,0.027869906276464462
1771681488445568300,10.359568359375,0.0014507622690871358,0.014278554357588291,0.030313294380903244
1771681488455926000,10.369926025390624,0.002061609411612153,0.012446013279259205,0.03336753323674202
1771681488466284000,10.380283935546874,0.002061609411612153,0.0130568603053689,0.035200074315071106
1771681488476641800,10.390641845703126,0.0032833039294928312,0.009391776286065578,0.03703261539340019
1771681488486999800,10.400999755859376,0.004504998680204153,0.007559234742075205,0.03764346241950989
1771681488497357600,10.411357666015626,0.004504998680204153,0.008170082233846188,0.03825430944561958
1771681488507715300,10.42171533203125,0.0051158457063138485,0.01122431829571724,0.03825430944561958
1771681488518073300,10.4320732421875,0.0038941511884331703,0.012446013279259205,0.0364217683672905
1771681488528431000,10.44243115234375,0.005726693198084831,0.011835165321826935,0.0358109213411808
1771681488538788900,10.452788818359375,0.006337540224194527,0.010613471269607544,0.03458922728896141
1771681488549147000,10.46314697265625,0.008780929259955883,0.008170082233846188,0.033978380262851715
1771681488559504600,10.473504638671875,0.008170082233846188,0.0051158457063138485,0.032756682485342026
1771681488569862700,10.483862548828125,0.008780929259955883,0.0038941511884331703,0.02970244735479355
1771681488580220400,10.494220458984374,0.008170082233846188,0.0032833039294928312,0.029091600328683853
1771681488590578200,10.504578125,0.007559234742075205,0.006948387715965509,0.027259059250354767
1771681488600936200,10.514936279296874,0.008170082233846188,0.0051158457063138485,0.02664821222424507
1771681488611294000,10.5252939453125,0.008170082233846188,0.0038941511884331703,0.02420482225716114
1771681488621652000,10.53565185546875,0.008780929259955883,0.002672456670552492,0.021150587126612663
1771681488632009700,10.546009765625,0.008780929259955883,0.0008399150101467967,0.019928891211748123
1771681488642367700,10.55636767578125,0.009391776286065578,0.004504998680204153,0.018096350133419037
1771681488652725500,10.5667255859375,0.006948387715965509,0.0038941511884331703,0.018096350133419037
1771681488663083300,10.577083251953125,0.0051158457063138485,0.0051158457063138485,0.01382041908800602
1771681488673441300,10.587441162109375,0.005726693198084831,0.0051158457063138485,0.01382041908800602
1771681488683799000,10.597799072265625,0.005726693198084831,0.0038941511884331703,0.011987877078354359
1771681488694156800,10.60815673828125,0.0051158457063138485,0.004504998680204153,0.008933641016483307
1771681488704514800,10.618514892578125,0.0051158457063138485,0.00022906772210262716,0.008322793990373611
1771681488714872600,10.62887255859375,0.0032833039294928312,0.007559234742075205,0.004046862944960594
1771681488725230600,10.639230712890624,0.0014507622690871358,0.0014507622690871358,0.005268557462841272
1771681488735588400,10.64958837890625,-0.0016034740256145597,0.006948387715965509,0.00038177953683771193
1771681488745946000,10.659946044921876,-0.0022143214009702206,0.002672456670552492,-0.0008399150101467967
1771681488756304100,10.67030419921875,-0.0028251686599105597,-0.00038177953683771193,-0.002061609411612153
1771681488766662000,10.680661865234375,-0.0022143214009702206,-0.0028251686599105597,-0.004504998680204153
1771681488777020000,10.69102001953125,-0.0022143214009702206,-0.005268557462841272,-0.004504998680204153
1771681488787377700,10.701377685546875,-0.0028251686599105597,-0.0034360159188508987,-0.002061609411612153
1771681488797735400,10.7117353515625,-0.004657710436731577,-0.0016034740256145597,-0.0038941511884331703
1771681488808093400,10.722093505859375,-0.004046862944960594,-0.0009926267666742206,-0.0032833039294928312
1771681488818451200,10.732451171875,-0.0034360159188508987,-0.00038177953683771193,-0.0014507622690871358
1771681488828809000,10.74280908203125,-0.0016034740256145597,-0.005879404954612255,-0.004504998680204153
1771681488839167000,10.7531669921875,-0.0009926267666742206,-0.008322793990373611,-0.0008399150101467967
1771681488849524700,10.763524658203124,-0.00038177953683771193,-0.010155336000025272,-0.0008399150101467967
1771681488859882800,10.7738828125,-0.00038177953683771193,-0.010155336000025272,-0.0008399150101467967
1771681488870240500,10.784240478515626,0.00022906772210262716,-0.007101099472492933,0.0009926267666742206
1771681488880598300,10.794598388671876,0.0014507622690871358,-0.007101099472492933,0.005268557462841272
1771681488890956300,10.804956298828126,0.002672456670552492,-0.005268557462841272,0.004046862944960594
1771681488901314000,10.81531396484375,0.004504998680204153,-0.011377030052244663,0.004046862944960594
1771681488911672000,10.825672119140625,0.006948387715965509,-0.010766183026134968,0.0064902519807219505
1771681488922029800,10.83602978515625,0.008170082233846188,-0.011987877078354359,0.0064902519807219505
1771681488932387800,10.846387939453125,0.006337540224194527,-0.008933641016483307,0.007101099472492933
1771681488942745600,10.85674560546875,0.005726693198084831,-0.005268557462841272,0.007711946498602629
1771681488953103400,10.867103271484375,0.005726693198084831,-0.004657710436731577,0.007711946498602629
1771681488963461400,10.87746142578125,0.006948387715965509,-0.004657710436731577,0.007101099472492933
1771681488973819100,10.887819091796874,0.007559234742075205,-0.009544488042593002,0.010155336000025272
1771681488984177000,10.898177001953124,0.006337540224194527,-0.0064902519807219505,0.010155336000025272
1771681488994535000,10.908534912109374,0.006337540224194527,-0.007711946498602629,0.009544488042593002
1771681489004892700,10.918892578125,0.005726693198084831,-0.005268557462841272,0.010155336000025272
1771681489015250700,10.929250732421876,0.004504998680204153,-0.0016034740256145597,0.009544488042593002
1771681489025608400,10.9396083984375,0.0032833039294928312,-0.0009926267666742206,0.009544488042593002
1771681489035966200,10.94996630859375,0.0038941511884331703,0.00022906772210262716,0.009544488042593002
1771681489046324200,10.96032421875,0.004504998680204153,-0.0034360159188508987,0.007711946498602629
1771681489056682000,10.970681884765625,0.0032833039294928312,-0.004046862944960594,0.005879404954612255
1771681489067040000,10.9810400390625,0.002061609411612153,-0.0022143214009702206,0.0064902519807219505
1771681489077397800,10.991397705078125,0.0008399150101467967,-0.00038177953683771193,0.007101099472492933
1771681489087755500,11.001755615234375,-0.00038177953683771193,0.0032833039294928312,0.004657710436731577
1771681489098113500,11.012113525390625,-0.0016034740256145597,0.0051158457063138485,0.005879404954612255
1771681489108471300,11.02247119140625,-0.00038177953683771193,0.002672456670552492,0.005879404954612255
1771681489118829000,11.0328291015625,-0.0009926267666742206,-0.0016034740256145597,0.005879404954612255
1771681489129187000,11.04318701171875,-0.00038177953683771193,0.002672456670552492,0.004657710436731577
1771681489139544800,11.053544921875,-0.0016034740256145597,0.002061609411612153,0.0034360159188508987
1771681489149902800,11.06390283203125,-0.0022143214009702206,0.004504998680204153,0.005268557462841272
1771681489160260600,11.074260498046876,-0.0016034740256145597,0.010002624243497849,0.0034360159188508987
1771681489170618600,11.08461865234375,-0.0016034740256145597,0.0014507622690871358,0.007711946498602629
1771681489180976400,11.094976318359375,-0.00038177953683771193,0.006337540224194527,0.005879404954612255
1771681489191334100,11.105334228515625,0.0014507622690871358,-0.004046862944960594,0.007711946498602629
1771681489201692200,11.115692138671875,0.002061609411612153,-0.0022143214009702206,0.007101099472492933
1771681489212050000,11.1260498046875,0.002061609411612153,-0.0028251686599105597,0.008933641016483307
1771681489222408000,11.136407958984375,0.0014507622690871358,-0.00038177953683771193,0.007101099472492933
1771681489232765700,11.146765625,0.002672456670552492,0.0051158457063138485,0.007101099472492933
1771681489243123500,11.15712353515625,0.0032833039294928312,0.002672456670552492,0.005879404954612255
1771681489253481500,11.1674814453125,0.002061609411612153,0.004504998680204153,0.0022143214009702206
1771681489263839200,11.177839111328124,0.0038941511884331703,0.0008399150101467967,0.005879404954612255
1771681489274197000,11.188197021484376,0.0032833039294928312,0.002061609411612153,0.0022143214009702206
1771681489284555000,11.198554931640626,0.002672456670552492,0.00022906772210262716,0.0016034740256145597
1771681489294912800,11.208912841796876,0.0014507622690871358,0.0008399150101467967,0.004046862944960594
1771681489305270800,11.219270751953125,0.002061609411612153,0.004504998680204153,0.0022143214009702206
1771681489315628500,11.229628662109375,0.002672456670552492,0.0014507622690871358,0.0022143214009702206
1771681489325986300,11.239986328125,0.0032833039294928312,-0.0016034740256145597,-0.00022906772210262716
1771681489336344300,11.25034423828125,0.004504998680204153,-0.008322793990373611,-0.002061609411612153
1771681489346702000,11.2607021484375,0.0038941511884331703,-0.005268557462841272,-0.0038941511884331703
1771681489357060000,11.27106005859375,0.004504998680204153,-0.010155336000025272,-0.004504998680204153
1771681489367417900,11.28141796875,0.002672456670552492,-0.010766183026134968,-0.004504998680204153
1771681489377775600,11.291775634765624,0.002061609411612153,-0.007101099472492933,-0.008780929259955883
1771681489388133600,11.302133544921874,0.002061609411612153,-0.01382041908800602,-0.007559234742075205
1771681489398491400,11.312491455078124,0.002061609411612153,-0.013209572061896324,-0.010002624243497849
1771681489408849400,11.322849365234376,0.002672456670552492,-0.019318044185638428,-0.010613471269607544
1771681489419207200,11.333207275390626,0.00022906772210262716,-0.02053973823785782,-0.014889402315020561
1771681489429565000,11.34356494140625,-0.00038177953683771193,-0.018707197159528732,-0.014889402315020561
1771681489439923000,11.3539228515625,-0.0028251686599105597,-0.01626380905508995,-0.018554486334323883
1771681489450280700,11.36428076171875,-0.004046862944960594,-0.011987877078354359,-0.018554486334323883
1771681489460638700,11.374638671875,-0.004046862944960594,-0.014431266114115715,-0.01916533336043358
1771681489470996500,11.38499658203125,-0.0034360159188508987,-0.01382041908800602,-0.020997874438762665
1771681489481354200,11.395354248046875,-0.0034360159188508987,-0.01626380905508995,-0.019776180386543274
1771681489491712300,11.405712158203125,-0.004657710436731577,-0.014431266114115715,-0.01916533336043358
1771681489502070000,11.416070068359375,-0.005268557462841272,-0.013209572061896324,-0.018554486334323883
1771681489512428000,11.426427978515624,-0.0064902519807219505,-0.008933641016483307,-0.01916533336043358
1771681489522785800,11.436785888671874,-0.005879404954612255,-0.007101099472492933,-0.017332790419459343
1771681489533143600,11.4471435546875,-0.004046862944960594,-0.004657710436731577,-0.01794363744556904
1771681489543501600,11.45750146484375,-0.0034360159188508987,-0.007711946498602629,-0.016111096367239952
1771681489553859300,11.467859375,-0.0028251686599105597,-0.004657710436731577,-0.014278554357588291
1771681489564217000,11.478217041015625,-0.0034360159188508987,-0.0009926267666742206,-0.015500249341130257
1771681489574575000,11.4885751953125,-0.0034360159188508987,0.006337540224194527,-0.014889402315020561
1771681489584932900,11.498932861328125,-0.0034360159188508987,0.010613471269607544,-0.01122431829571724
1771681489595291000,11.509290771484375,-0.0034360159188508987,0.016111096367239952,-0.011835165321826935
1771681489605648600,11.519648681640625,-0.0034360159188508987,0.015500249341130257,-0.012446013279259205
1771681489616006400,11.53000634765625,-0.0016034740256145597,0.016721943393349648,-0.011835165321826935
1771681489626364400,11.540364501953125,-0.0016034740256145597,0.016111096367239952,-0.011835165321826935
1771681489636722200,11.55072216796875,-0.0028251686599105597,0.020997874438762665,-0.011835165321826935
1771681489647080200,11.561080078125,-0.004046862944960594,0.024662958458065987,-0.009391776286065578
1771681489657438000,11.57143798828125,-0.004657710436731577,0.030160583555698395,-0.009391776286065578
1771681489667795700,11.581795654296876,-0.005268557462841272,0.030160583555698395,-0.010613471269607544
1771681489678153700,11.59215380859375,-0.004657710436731577,0.025884652510285378,-0.007559234742075205
1771681489688511500,11.602511474609376,-0.005268557462841272,0.028938889503479004,-0.007559234742075205
1771681489698869500,11.612869384765625,-0.005268557462841272,0.025273805484175682,-0.006337540224194527
1771681489709227300,11.623227294921875,-0.005879404954612255,0.02405211143195629,-0.004504998680204153
1771681489719585000,11.6335849609375,-0.007711946498602629,0.025273805484175682,-0.0038941511884331703
1771681489729943000,11.643943115234375,-0.008933641016483307,0.026495499536395073,-0.006337540224194527
1771681489740300800,11.65430078125,-0.008933641016483307,0.023441264405846596,-0.002061609411612153
1771681489750658800,11.664658935546875,-0.008933641016483307,0.020997874438762665,-0.002061609411612153
1771681489761016600,11.6750166015625,-0.008933641016483307,0.014278554357588291,-0.0038941511884331703
1771681489771374300,11.685374267578124,-0.008322793990373611,0.013667707331478596,-0.0014507622690871358
1771681489781732400,11.695732421875,-0.008933641016483307,0.011835165321826935,0.0009926267666742206
1771681489792090000,11.706090087890624,-0.009544488042593002,0.014278554357588291,-0.00022906772210262716
1771681489802448100,11.7164482421875,-0.009544488042593002,0.012446013279259205,0.0009926267666742206
1771681489812806000,11.726805908203126,-0.008322793990373611,0.010002624243497849,0.0028251686599105597
1771681489823163600,11.73716357421875,-0.007711946498602629,0.005726693198084831,0.0028251686599105597
1771681489833521700,11.747521728515625,-0.007101099472492933,0.0014507622690871358,0.004657710436731577
1771681489843879400,11.75787939453125,-0.005879404954612255,0.00022906772210262716,0.0064902519807219505
1771681489854237200,11.7682373046875,-0.0064902519807219505,-0.0022143214009702206,0.004657710436731577
1771681489864595200,11.77859521484375,-0.005879404954612255,-0.0009926267666742206,0.005268557462841272
1771681489874953000,11.788952880859375,-0.0064902519807219505,-0.00038177953683771193,0.009544488042593002
1771681489885311000,11.79931103515625,-0.004657710436731577,-0.0028251686599105597,0.008933641016483307
1771681489895668700,11.809668701171875,-0.0034360159188508987,-0.008933641016483307,0.007101099472492933
1771681489906026800,11.82002685546875,-0.0022143214009702206,-0.012598725035786629,0.010155336000025272
1771681489916384500,11.830384521484374,-0.0022143214009702206,-0.010155336000025272,0.010766183026134968
1771681489926742300,11.8407421875,-0.0022143214009702206,-0.012598725035786629,0.008933641016483307
1771681489937100300,11.851100341796876,-0.0022143214009702206,-0.007711946498602629,0.009544488042593002
1771681489947458000,11.8614580078125,-0.0022143214009702206,-0.008933641016483307,0.009544488042593002
1771681489957816000,11.871816162109376,-0.0016034740256145597,-0.009544488042593002,0.005268557462841272
1771681489968173800,11.882173828125,-0.00038177953683771193,-0.010766183026134968,0.008933641016483307
1771681489978531600,11.892531494140625,-0.00038177953683771193,-0.011987877078354359,0.007711946498602629
1771681489988889600,11.9028896484375,0.00022906772210262716,-0.016874656081199646,0.004657710436731577
1771681489999247400,11.913247314453125,0.0008399150101467967,-0.016874656081199646,0.010155336000025272
1771681490009605000,11.923605224609375,-0.0009926267666742206,-0.010766183026134968,0.005879404954612255
1771681490019963100,11.933963134765625,-0.0009926267666742206,-0.018707197159528732,0.00038177953683771193
1771681490030321000,11.94432080078125,0.0008399150101467967,-0.019318044185638428,0.013209572061896324
1771681490040679000,11.954678955078125,0.0014507622690871358,-0.015652960166335106,0.009544488042593002
1771681490051036700,11.96503662109375,0.002672456670552492,-0.027259059250354767,0.007711946498602629
1771681490061394400,11.97539453125,0.0008399150101467967,-0.02053973823785782,0.0009926267666742206
1771681490071752400,11.98575244140625,-0.00038177953683771193,-0.019318044185638428,0.010766183026134968
1771681490082110200,11.996110107421876,-0.0064902519807219505,-0.02176143415272236,0.015042114071547985
1771681490092468200,12.00646826171875,-0.005879404954612255,-0.015042114071547985,0.007101099472492933
1771681490102826000,12.016825927734375,-0.004046862944960594,-0.035200074315071106,0.008933641016483307
1771681490113183700,12.027183837890625,-0.0034360159188508987,-0.019928891211748123,0.011987877078354359
1771681490123541800,12.037541748046875,-0.0034360159188508987,-0.030313294380903244,0.018096350133419037
1771681490133899500,12.0478994140625,-0.005268557462841272,-0.027869906276464462,0.014431266114115715
1771681490144257500,12.058257568359375,-0.007711946498602629,-0.02664821222424507,0.01626380905508995
1771681490154615300,12.068615234375,-0.008933641016483307,-0.019928891211748123,0.015652960166335106
1771681490164973000,12.07897314453125,-0.009544488042593002,-0.021150587126612663,0.014431266114115715
1771681490175331000,12.0893310546875,-0.010155336000025272,-0.021150587126612663,0.015652960166335106
1771681490185688800,12.099688720703124,-0.009544488042593002,-0.022372281178832054,0.018096350133419037
1771681490196046800,12.110046875,-0.008933641016483307,-0.027259059250354767,0.010155336000025272
1771681490206404600,12.120404541015626,-0.007711946498602629,-0.028480753302574158,0.011987877078354359
1771681490216762400,12.130762451171876,-0.008322793990373611,-0.023593975231051445,0.009544488042593002
1771681490227120400,12.141120361328126,-0.009544488042593002,-0.01626380905508995,0.013209572061896324
1771681490237478100,12.15147802734375,-0.010766183026134968,-0.01748550310730934,0.008322793990373611
1771681490247836000,12.1618359375,-0.008933641016483307,-0.008322793990373611,0.0034360159188508987
1771681490258194000,12.17219384765625,-0.0064902519807219505,-0.01626380905508995,0.0009926267666742206
1771681490268551700,12.1825517578125,-0.004046862944960594,-0.005268557462841272,-0.0008399150101467967
1771681490278909700,12.19290966796875,-0.0022143214009702206,-0.009544488042593002,-0.0038941511884331703
1771681490289267500,12.203267333984375,-0.0016034740256145597,0.006948387715965509,-0.006337540224194527
1771681490299625200,12.213625244140625,-0.0034360159188508987,0.0038941511884331703,-0.012446013279259205
1771681490309983200,12.223983154296874,-0.004046862944960594,0.01916533336043358,-0.011835165321826935
1771681490320341000,12.234341064453124,-0.0064902519807219505,0.0130568603053689,-0.0130568603053689
1771681490330699000,12.244698974609374,-0.005879404954612255,0.024662958458065987,-0.016111096367239952
1771681490341056800,12.255056884765626,-0.0064902519807219505,0.007559234742075205,-0.018554486334323883
1771681490351414500,12.26541455078125,-0.005879404954612255,0.02405211143195629,-0.01916533336043358
1771681490361772500,12.2757724609375,-0.0064902519807219505,0.0014507622690871358,-0.018554486334323883
1771681490372130300,12.28613037109375,-0.005879404954612255,0.030160583555698395,-0.02405211143195629
1771681490382488000,12.296488037109375,-0.005879404954612255,-0.005268557462841272,-0.016111096367239952
1771681490392846000,12.30684619140625,-0.005268557462841272,0.026495499536395073,-0.02038702741265297
1771681490403203800,12.317203857421875,-0.005268557462841272,0.00022906772210262716,-0.013667707331478596
1771681490413561900,12.327561767578125,-0.007101099472492933,0.012446013279259205,-0.014889402315020561
1771681490423919600,12.337919677734375,-0.008322793990373611,0.0038941511884331703,-0.01794363744556904
1771681490434277600,12.348277587890625,-0.007101099472492933,0.007559234742075205,-0.0130568603053689
