latitude,longitude,event_type,severity,avg_severity,confidence,n_detections,total_duration,max_gyro_peak,max_dip_dev,max_bump_dev,abs_max_dev,max_accel_x,avg_speed,est_size_m,route
30.6539699,76.7412439,Acceleration,3.8506074,3.8506074,0.75,1,0.02071380615234375,0.2477150857448578,-0.2023888296798022,0.8564469147510945,0.8564469147510945,2.5670716762542725,10.29105228389543,0.21316686211224437,A
30.6492686,76.7400562,Hard Braking,3.5749645,1.0829248,0.7,5,0.06214141845703125,0.24867349863052368,-0.7156670917089691,0.9028293399170337,0.9028293399170337,2.3833096027374268,7.947908842892458,0.166240412452865,A
30.64939077777778,76.74029773333332,Hard Braking,4.0640078,1.1938548,0.8,9,0.12428474426269531,0.28635022044181824,-1.3584429856981677,0.9884291677874071,1.3584429856981677,2.709338426589966,8.464868526876218,0.17851530797975151,A
30.6499053,76.7413048,Hard Braking,0.48240393,0.48240393,0.65,1,0.010356903076171875,0.05135461315512657,0.0,0.4109722057906815,0.4109722057906815,0.40200328826904297,9.550645414566995,0.09891510887355573,A
30.65131610909091,76.74344135454545,Hard Braking,2.1275964,1.3375632,0.65,11,0.11391448974609375,0.2593015730381012,-1.1826053980581044,0.7917442980510163,1.1826053980581044,1.7729970216751099,4.666725093232416,0.050199507894780726,A
30.6522617,76.7427913,Hard Braking,1.0187913,1.0187913,0.65,1,0.01035308837890625,0.15838469564914703,-1.4938075943121278,0.0,1.4938075943121278,0.8489927649497986,7.003950442112026,0.07251251792866531,A
30.65345735,76.74185021666666,Hard Braking,2.1661854,1.3144274,0.65,6,0.072509765625,0.24105408787727356,-0.8034046689313552,1.5066001587703042,1.5066001587703042,1.8051544427871704,5.625654285097593,0.12038119781521883,A
30.654110425,76.741071,Hard Braking,1.6214368,0.7527132,0.65,4,0.04144287109375,0.10157060623168945,-1.4051921802849723,0.41787281660701403,1.4051921802849723,1.351197361946106,9.54493429033846,0.10037792055643179,A
30.654445299999995,76.7406684,Hard Braking,1.5629296,0.7159755,0.65,6,0.0725250244140625,0.2706678509712219,-1.310407571998974,1.856009415107069,1.856009415107069,1.3024413585662842,6.9019538870269885,0.14264974342535547,A
30.6489055,76.7394329,Minor Anomaly,0.018201195,0.018201195,0.2,1,0.010334014892578125,0.049533095210790634,0.0,0.03640239097534703,0.03640239097534703,0.14190462231636047,4.531793219482342,0.04683161862021509,A
30.649429238461543,76.74037228461538,Minor Anomaly,0.24743709,0.103595145,0.2,13,0.15535545349121094,0.10614242404699326,-0.4948741746482854,0.4706070231158943,0.4948741746482854,1.1703397035598755,8.024864419482302,0.16599286935289323,A
30.6496583,76.7408415,Minor Anomaly,0.18832837,0.11440362,0.2,2,0.02071380615234375,0.06464514136314392,0.0,0.37665674462806464,0.37665674462806464,0.9711382389068604,7.906448773633519,0.0822551124993604,A
30.649814199999998,76.7411449,Minor Anomaly,0.23273979,0.12507798,0.2,3,0.031070709228515625,0.1388552039861679,0.0,0.4654795862546184,0.4654795862546184,1.2143595218658447,8.86679944456609,0.09207395454677693,A
30.650135472727268,76.74168696363637,Minor Anomaly,0.23441729,0.15021826,0.2,11,0.1346435546875,0.0678877905011177,-0.46883459004838457,0.3864344556580743,0.46883459004838457,1.3229455947875977,10.760230543107726,0.23222826432430377,A
30.6515179,76.7434598,Minor Anomaly,0.07243973,0.07243973,0.2,1,0.01035308837890625,0.07542283087968826,-0.14487945825816162,0.0,0.14487945825816162,0.13403604924678802,6.160702816455997,0.06378230073494558,A
30.651988250000002,76.74314395,Minor Anomaly,0.1843463,0.07643849,0.2,8,0.082855224609375,0.06878328323364258,-0.3686926169938678,0.2137921233158817,0.3686926169938678,1.4211171865463257,7.170398961695089,0.07565208861745894,A
30.6521786,76.7429015,Minor Anomaly,0.1053098,0.1053098,0.2,1,0.01035308837890625,0.01825353316962719,-0.21061959527977425,0.0,0.21061959527977425,0.1471748650074005,7.19908211833085,0.0745327334180829,A
30.65263845,76.74234634999999,Minor Anomaly,0.006158332,0.003442059,0.2,2,0.02071380615234375,0.053976066410541534,0.0,0.012316663993228616,0.012316663993228616,1.554836630821228,7.573622523229926,0.07845863615540893,A
30.6532324,76.7419746,Minor Anomaly,0.08146219,0.08146219,0.2,1,0.0103607177734375,0.07617170363664627,0.0,0.16292437179498442,0.16292437179498442,0.14359323680400848,7.5082656272805774,0.07779102113225574,A
30.6535651625,76.7417491125,Minor Anomaly,0.20747398,0.097955085,0.2,8,0.08286285400390625,0.4318754971027374,-0.17392058175057734,0.4149479524343871,0.4149479524343871,1.136698603630066,5.393362255204282,0.05900492042858906,A
30.653825766666667,76.74142683333334,Minor Anomaly,0.23583071,0.1441575,0.2,6,0.07248687744140625,0.08934245258569717,-0.30026737374714685,0.4716614314587737,0.4716614314587737,0.7177689075469971,9.82691820312638,0.19842379930257686,A
30.6539699,76.7412439,Minor Anomaly,0.011767549,0.011767549,0.2,1,0.0103607177734375,0.03888825327157974,-0.02353509816747401,0.0,0.02353509816747401,0.4044545590877533,10.317886230376518,0.10690070725136804,A
30.65426605,76.7408814,Minor Anomaly,0.2095427,0.13643728,0.2,8,0.103546142578125,0.25292688608169556,-0.41908542488237455,0.3254000724917052,0.41908542488237455,1.5220131874084473,8.253518114902159,0.27675778007677104,A
30.649519825,76.74054699999999,Pothole,8.446152,6.115263,0.8778498,4,0.08285713195800781,0.4786246418952942,-6.807983508995457,6.7823179490592125,6.807983508995457,1.0228443145751953,8.015460607694902,0.2495491640495968,A
30.64979255,76.74110529999999,Pothole,3.6083739,3.4407687,0.8080116,2,0.031070709228515625,0.3244459927082062,-2.6970263090510045,0.0,2.6970263090510045,0.3637234568595886,8.855794101532254,0.18251194261392817,A
30.6513128875,76.7434406625,Pothole,10.0,4.907107,1.0,8,0.16571044921875,1.6613616943359375,-7.198139119709304,12.256482612593677,12.256482612593677,1.9792077541351318,4.732808600376431,0.2479972893499673,A
30.653579450000002,76.74173235,Pothole,2.8015115,2.2347806,0.79027885,2,0.03107452392578125,0.38599029183387756,-1.745863513940228,0.17000004735956864,1.745863513940228,0.47056812047958374,5.462473185639523,0.11039561198226104,A
30.6539699,76.7412439,Pothole,10.0,6.5230603,0.55,4,0.1346435546875,0.2766709625720978,-8.263271384904996,4.8847700558348865,8.263271384904996,1.3325977325439453,10.287970050298021,0.6379683047549409,A
30.6542099,76.7409474,Pothole,6.3713584,6.3713584,0.95,1,0.0414276123046875,0.5763904452323914,-4.348814573687703,3.6878818269954596,4.348814573687703,1.4647836685180664,8.884936814480396,0.368081717701939,A
30.654445300000003,76.7406684,Pothole,9.292264,6.3995953,0.8091758,3,0.0828399658203125,0.5158488154411316,-7.256159565582217,4.2606782061512956,7.256159565582217,0.9952684640884399,6.8947265886921905,0.3580093164388466,A
30.6493824,76.740282,Road Bump,1.1894451,1.1894451,0.5,1,0.02071380615234375,0.44527965784072876,-0.022636434633133362,0.7929634583665273,0.7929634583665273,0.5276260375976562,8.480199664889223,0.1756572119916858,A
30.649519825,76.74054699999999,Road Bump,5.6011605,2.8905783,0.5,8,0.09321212768554688,0.2342754304409027,-0.062066788229555137,3.734106897195103,3.734106897195103,1.0322309732437134,8.00450716861919,0.16366079291299476,A
30.649814199999998,76.7411449,Road Bump,2.0741062,1.9221824,0.5,3,0.031070709228515625,0.15939831733703613,0.0,1.382737553713195,1.382737553713195,0.5803942084312439,8.852125653854307,0.09177894419799197,A
30.6500037,76.7414665,Road Bump,1.0392675,1.0392675,0.5,1,0.0414276123046875,0.11483555287122726,-0.26424348950648824,0.6928450442212224,0.6928450442212224,0.8142289519309998,9.468481222177598,0.3922565691865872,A
30.6502816,76.7419308,Road Bump,1.1519845,1.1519845,0.5,1,0.02071380615234375,0.042700160294771194,-0.029271572683568614,0.7679896486087578,0.7679896486087578,1.4136860370635986,10.985186117741122,0.22754501579030723,A
30.6512977,76.7434374,Road Bump,5.321893,5.2649565,0.5,2,0.03107452392578125,0.8468717336654663,0.0,3.547928837483175,3.547928837483175,1.2009851932525635,4.806057552986827,0.09947662745168073,A
30.6522617,76.7427913,Road Bump,4.0754933,2.9076269,0.5,2,0.03107452392578125,0.3204987943172455,-0.333508949072268,2.716995400338604,2.716995400338604,0.48190322518348694,7.007756012097467,0.14516803401071096,A
30.6529287,76.7421046,Road Bump,0.8111643,0.8111643,0.5,1,0.01035308837890625,0.11286582797765732,0.0,0.5407761961053339,0.5407761961053339,0.20767515897750854,6.291794782995241,0.065139507450291,A
30.65351575,76.74179757499999,Road Bump,4.180223,3.7192314,0.5,4,0.051788330078125,0.41721245646476746,0.0,2.7868153390696833,2.7868153390696833,1.4110958576202393,5.491521993002964,0.11368653902142371,A
30.653969900000003,76.7412439,Road Bump,6.47366,4.4565167,0.5,3,0.051788330078125,0.28551045060157776,0.0,4.315773239042496,4.315773239042496,1.1069992780685425,10.27872338512198,0.21304668316465283,A
30.654327930000004,76.74080661,Road Bump,9.623358,3.834823,0.5,10,0.11395263671875,0.8078263401985168,0.0,6.415571652827586,6.415571652827586,1.0220637321472168,7.510861703355799,0.15194002291503023,A
30.649528900000004,76.7405649,Rough Patch,1.8685687,0.89130884,0.3,7,0.10356903076171875,0.28897786140441895,-2.335710871563635,3.677376050565469,3.677376050565469,0.986950695514679,8.006894406451057,0.24886944190255764,A
30.6497709,76.7410657,Rough Patch,0.83519423,0.77256924,0.3,2,0.020717620849609375,0.16990993916988373,-1.0439927776767783,0.0,1.0439927776767783,1.043745994567871,8.770988222859753,0.09116210437780524,A
30.650055674999997,76.741553025,Rough Patch,0.7662225,0.62303066,0.3,4,0.09321212768554688,0.06925228238105774,-0.9577780641348204,1.2852481668780218,1.2852481668780218,0.9964148998260498,9.985739711175505,0.3088567244785261,A
30.6502816,76.7419308,Rough Patch,0.72479963,0.72479963,0.3,1,0.010356903076171875,0.05647927522659302,-0.9059995160607794,0.0,0.9059995160607794,0.01376398652791977,10.998133481343151,0.11390660248507177,A
30.651975566666664,76.74316019999999,Rough Patch,0.83630013,0.59515417,0.3,3,0.03106689453125,0.06540261954069138,-1.0453752003623027,0.0,1.0453752003623027,0.6997267007827759,7.222775740571438,0.07558105191618042,A
30.6521786,76.7429015,Rough Patch,0.6658618,0.6658618,0.3,1,0.01035308837890625,0.12423978745937347,-0.8323272078939938,0.0,0.8323272078939938,0.08302832394838333,7.223986432585867,0.07479056998458115,A
30.6526652,76.7423183,Rough Patch,0.6801675,0.6801675,0.3,1,0.02071380615234375,0.07861191779375076,-0.8502093356911216,0.0,0.8502093356911216,0.542555034160614,7.580613485582099,0.15702335825619046,A
30.6535604,76.7417547,Rough Patch,0.44811803,0.44811803,0.3,1,0.01035308837890625,0.20868858695030212,-0.5601475305496475,0.0,0.5601475305496475,0.07246354222297668,5.166456530812089,0.05348878106927493,A
30.6539699,76.7412439,Rough Patch,0.7172916,0.7172916,0.3,1,0.01035308837890625,0.1360345333814621,-0.8966144814616532,0.0,0.8966144814616532,0.10244804620742798,10.256966525884236,0.1061912809419625,A
30.654278141666666,76.74086685833332,Rough Patch,1.8139312,0.9863189,0.3,12,0.258941650390625,0.18985237181186676,-2.26741402059384,2.952479892365062,2.952479892365062,2.1284639835357666,8.127248504139414,0.458631472362285,A
30.65869288333333,76.73718106666666,Hard Braking,4.1864023,0.7592589,0.8,18,0.23817920684814453,0.26866158843040466,-0.6440032974992427,0.9656905553969661,0.9656905553969661,2.7909348011016846,6.567503582710933,0.14888352614987307,B
30.66174295454546,76.73505902727271,Hard Braking,1.9475412,0.9001873,0.65,11,0.17596435546875,0.05570586025714874,-0.8471640879799729,1.5059562665102106,1.5059562665102106,1.6229510307312012,4.2222968275764865,0.1301554197991382,B
30.65864600277777,76.73721479444443,Minor Anomaly,0.2460723,0.105303384,0.2,36,0.4142901301383972,0.1142224371433258,-0.48512571343265876,0.49214462253788405,0.49214462253788405,0.997000515460968,5.291970354722178,0.12107054678209295,B
30.659428679999998,76.73666361,Minor Anomaly,0.19339433,0.08055078,0.2,20,0.2071685791015625,0.0616791769862175,-0.2957534499718264,0.38678865144615493,0.38678865144615493,1.4507834911346436,4.991130189065377,0.06988886374928518,B
30.660321439622653,76.73604063207546,Minor Anomaly,0.23736797,0.08631893,0.2,53,0.5697708129882812,0.3255690634250641,-0.47473595400154167,0.42238080906554387,0.47473595400154167,1.1305524110794067,4.132271360592864,0.07428960632864948,B
30.66078933,76.73571369999999,Minor Anomaly,0.22797538,0.09425537,0.2,10,0.1138916015625,0.050381649285554886,-0.455950754980055,0.22114620876172175,0.455950754980055,0.8566225171089172,3.146468793405583,0.061153860977224535,B
30.66163015064102,76.73513767179487,Minor Anomaly,0.24994856,0.10698084,0.2,156,1.8126678466796875,0.11860378086566925,-0.49492332804572214,0.4998971170568858,0.4998971170568858,1.1927810907363892,3.8564164689850506,0.12458340118068313,B
30.658623749999997,76.73723085,Road Bump,2.1099088,1.3990798,0.5,4,0.04142951965332031,0.04502830281853676,0.0,1.4066059387734082,1.4066059387734082,1.2839401960372925,4.834886677434154,0.0596025177924008,B
30.6588733,76.7370527,Road Bump,1.2766172,1.2766172,0.5,1,0.010356903076171875,0.025781286880373955,0.0,0.8510780776336073,0.8510780776336073,0.0671713650226593,6.701361720755577,0.06940535382023388,B
30.659321733333332,76.73673843333333,Road Bump,1.6559757,1.3226177,0.5,3,0.0414276123046875,0.05887575075030327,-0.08649216940308513,1.1039837631939147,1.1039837631939147,0.23824754357337952,6.168561795619687,0.13769277899623622,B
30.6595619,76.7365703,Road Bump,0.8589236,0.8589236,0.5,1,0.020633697509765625,0.02251722663640976,-0.009577124590689934,0.5726157242784371,0.5726157242784371,0.5059617757797241,3.1612672826878603,0.06522863285850004,B
30.65997695,76.73627665000001,Road Bump,1.1756656,1.1596371,0.5,2,0.02072906494140625,0.0150444395840168,0.0,0.7837770546422806,0.7837770546422806,0.5234631299972534,4.683757919220671,0.05256545829373497,B
30.6604997,76.7359185,Road Bump,1.3619822,1.157775,0.5,2,0.0207061767578125,0.015845827758312225,0.0,0.9079881294723151,0.9079881294723151,0.28457239270210266,4.161491114116799,0.0437565289650736,B
30.66108303333333,76.73551746666666,Road Bump,1.5837903,1.2290992,0.5,3,0.0517578125,0.026852430775761604,-0.2881407176845894,1.055860218610924,1.055860218610924,0.9489412307739258,3.7997595443831655,0.0932196518446977,B
30.661655168000003,76.735121132,Road Bump,2.2935429,1.282312,0.5,25,0.372772216796875,0.1916281282901764,-0.32892191739241206,1.529028513923329,1.529028513923329,1.0920639038085938,3.7676018536087703,0.13535496487795498,B
30.6586424,76.73721730000001,Rough Patch,1.175918,0.6069228,0.3,14,0.32107341289520264,0.10097348690032959,-1.469897475103263,0.9143281017610292,1.469897475103263,1.401809573173523,5.427697014573369,0.4519615143077479,B
30.65932935,76.7367332,Rough Patch,0.4400083,0.43044505,0.3,2,0.020715713500976562,0.045436639338731766,-0.5500103761430655,0.0,0.5500103761430655,0.31976670026779175,6.483360952244917,0.06819001524140508,B
30.6595619,76.7365703,Rough Patch,0.5133536,0.5133536,0.3,1,0.01036834716796875,0.019435390830039978,-0.6416919923572504,0.0,0.6416919923572504,0.39497339725494385,3.4034937208581795,0.03528860448185933,B
30.6600114,76.7362524,Rough Patch,0.644651,0.644651,0.3,1,0.0103759765625,0.01478803250938654,-0.8058137651988257,0.0,0.8058137651988257,0.19883963465690613,4.950411828090772,0.05136535710299263,B
30.6605231,76.7359027,Rough Patch,0.8690442,0.5724489,0.3,5,0.1035919189453125,0.2983628809452057,-1.0863052136299167,0.48268380190752147,1.0863052136299167,0.7143380045890808,3.4663453394007293,0.14520531347769985,B
30.6607468,76.7357441,Rough Patch,0.7008544,0.608571,0.3,3,0.04144287109375,0.029948163777589798,-0.876068037939822,0.30789041989516086,0.876068037939822,0.5643908977508545,2.8619840565873997,0.059100593466916575,B
30.661141,76.7354774,Rough Patch,0.5026157,0.47687542,0.3,3,0.03106689453125,0.07578057795763016,-0.6282696028986194,0.0,0.6282696028986194,0.10003277659416199,4.408881575444165,0.051349654975445795,B
30.661628431428575,76.73513956857144,Rough Patch,1.6946516,0.7168608,0.3,35,0.6835784912109375,0.1164732500910759,-2.1183145045019156,2.634639350879837,2.634639350879837,1.290413737297058,3.7044463874254485,0.1532008906981225,B
30.6622306,76.7347177,Rough Patch,0.8426162,0.8426162,0.3,1,0.02069091796875,0.03389746695756912,-1.0532702536017755,0.19000603342372635,1.0532702536017755,0.7098336219787598,4.2044453801678525,0.08699383446514294,B
30.6670052,76.7309689,Acceleration,3.125709,3.125709,0.7,1,0.01035308837890625,0.18648400902748108,-1.679809074763564,0.0,1.679809074763564,2.083806037902832,11.270618347644602,0.11668570783808689,C
30.6708084,76.7281226,Acceleration,3.961223,3.961223,0.75,1,0.01035308837890625,0.018496735021471977,0.0,0.9801891833732821,0.9801891833732821,2.640815258026123,15.546223128488595,0.16095142200743884,C
30.6634208,76.7338495,Hard Braking,0.27623913,0.27623913,0.65,1,0.010356903076171875,0.10030768811702728,-0.09029613444604401,0.0,0.09029613444604401,0.23019926249980927,9.767273419241377,0.10115870412155281,C
30.663960449999998,76.7334302,Hard Braking,0.70209205,0.5062659,0.65,2,0.02071380615234375,0.03034578263759613,0.0,1.1116545992981361,1.1116545992981361,0.5850766897201538,12.797856758298202,0.13429615154900104,C
30.665445,76.732192,Hard Braking,1.9769009,1.9769009,0.65,1,0.010356903076171875,0.03763122484087944,-1.9900850660245064,0.0,1.9900850660245064,1.647417426109314,8.568186269925198,0.0887398747362019,C
30.666698666666665,76.73120756666667,Hard Braking,1.6910341,0.81214404,0.65,6,0.07248687744140625,0.19275827705860138,-1.745369364800724,1.1068914910817451,1.745369364800724,1.409195065498352,10.60188868996871,0.2293784551787966,C
30.667513200000002,76.7305969,Hard Braking,1.00614,0.62681234,0.65,2,0.020721435546875,0.1553458720445633,0.0,1.4554810318802645,1.4554810318802645,0.838450014591217,13.231412712621827,0.1390891763479818,C
30.66790317142857,76.73032478571429,Hard Braking,1.9024632,0.9351301,0.65,7,0.0724945068359375,0.14696452021598816,-0.38835978258874526,1.8513883762509664,1.8513883762509664,1.585386037826538,14.612110897473539,0.15377303464340594,C
30.6682273,76.7300858,Hard Braking,1.41902,1.1781185,0.65,2,0.03107452392578125,0.2718160152435303,-1.2174317923962006,0.11287116007232001,1.2174317923962006,1.1825166940689087,14.847217846337777,0.30848835667636765,C
30.6684572,76.7299127,Hard Braking,1.1601604,0.6097747,0.65,4,0.04143524169921875,0.14217810332775116,0.0,1.1965685517872053,1.1965685517872053,0.966800332069397,15.187208602979474,0.15739115160589362,C
30.66933031666666,76.7292523,Hard Braking,2.159646,0.9548901,0.65,12,0.15537261962890625,0.22455506026744843,-1.002588584206932,1.8914652002418482,1.8914652002418482,1.7997050285339355,17.48139537652401,0.5540141502391362,C
30.6700966,76.7286668,Hard Braking,1.0240115,0.67071974,0.65,5,0.0621490478515625,0.180277481675148,-0.9859930883392325,0.4518555809705447,0.9859930883392325,0.8533429503440857,16.56760778174083,0.34267956585956477,C
30.670837175,76.728100225,Hard Braking,2.2038393,1.1976792,0.65,4,0.0414276123046875,0.14546363055706024,-1.9183016548052336,1.3717742948411669,1.9183016548052336,1.836532711982727,15.414903580806392,0.1614242697020507,C
30.6635667,76.7337349,Minor Anomaly,0.18920437,0.12445037,0.2,4,0.041439056396484375,0.18244779109954834,-0.08366130484221213,0.37840872859764296,0.37840872859764296,0.7989931702613831,10.302574163249577,0.10835459180167202,C
30.6644026,76.7330712,Minor Anomaly,0.07382088,0.07382088,0.2,1,0.010356903076171875,0.08550044894218445,-0.1476417626274955,0.0,0.1476417626274955,0.3900446891784668,13.994837997076301,0.14494318070244658,C
30.6651085,76.7325036,Minor Anomaly,0.12820113,0.12820113,0.2,1,0.010356903076171875,0.07752448320388794,0.0,0.2564022618626982,0.2564022618626982,0.30490589141845703,12.515885531628186,0.12962581336353501,C
30.6658861,76.7318299,Minor Anomaly,0.041428097,0.041428097,0.2,1,0.0103607177734375,0.10358843207359314,-0.08285619351274676,0.0,0.08285619351274676,0.08971154689788818,8.808511660088556,0.09126250331421096,C
30.6661548,76.7316227,Minor Anomaly,0.17371598,0.17371598,0.2,1,0.01035308837890625,0.6485259532928467,-0.3474319512170281,0.0,0.3474319512170281,1.3574808835983276,7.7611066377640325,0.08035142293888696,C
30.6663536,76.7314704,Minor Anomaly,0.06411135,0.06411135,0.2,1,0.0103607177734375,0.01798534207046032,0.0,0.12822270615207465,0.12822270615207465,0.10737085342407227,6.347297843197581,0.06576256157731869,C
30.6665983,76.7312848,Minor Anomaly,0.24954604,0.14001206,0.2,2,0.04143524169921875,0.8634781241416931,-0.49909207782116294,0.06095615898468054,0.49909207782116294,1.775569200515747,9.809298068974591,0.30559637418472424,C
30.6670052,76.7309689,Minor Anomaly,0.09634153,0.09634153,0.2,1,0.01035308837890625,1.28688645362854,0.0,0.1926830513643054,0.1926830513643054,5.12520694732666,11.25558964382537,0.11653011433922598,C
30.6673596,76.7307034,Minor Anomaly,0.1121491,0.1121491,0.2,1,0.0103607177734375,0.0692063421010971,0.0,0.22429818870180895,0.22429818870180895,1.3600733280181885,12.407855749124794,0.12855429159020593,C
30.6678861,76.7303372,Minor Anomaly,0.09358587,0.09358587,0.2,1,0.01035308837890625,0.11843059211969376,-0.18717173913741814,0.0,0.18717173913741814,0.09699466824531555,14.696263849909926,0.15215171847784248,C
30.6682273,76.7300858,Minor Anomaly,0.14165048,0.14165048,0.2,1,0.020721435546875,0.1056949719786644,0.0,0.2833009517678349,0.2833009517678349,0.8889855742454529,14.90696918433197,0.30889380115238674,C
30.6686926,76.7297294,Minor Anomaly,0.07338065,0.07338065,0.2,1,0.01035308837890625,0.05413041263818741,0.0,0.1467612959711495,0.1467612959711495,0.09847709536552429,15.381944744740204,0.15925063338174789,C
30.6689821,76.72950875000001,Minor Anomaly,0.16269799,0.0867436,0.2,2,0.02071380615234375,0.05039454996585846,-0.3253959705271594,0.021578443657281454,0.3253959705271594,1.1776759624481201,16.068134242026403,0.16911518173475285,C
30.669837,76.7288694,Minor Anomaly,0.09448917,0.08316145,0.2,3,0.0310821533203125,0.07290457934141159,-0.1496406437001152,0.18897834251943202,0.18897834251943202,0.6230809688568115,17.216043846249143,0.17884644366320293,C
30.6705129,76.72835005,Minor Anomaly,0.10409404,0.06319803,0.2,4,0.0414276123046875,0.15945179760456085,-0.20818809170062025,0.1852618312194938,0.20818809170062025,0.4183308780193329,15.828133721796291,0.16438133609440586,C
30.6635667,76.7337349,Pothole,5.1547456,4.189414,0.89245003,2,0.0414276123046875,0.41503414511680603,-3.6038976820559165,0.958745367715677,3.6038976820559165,1.0416662693023682,10.326076842418251,0.21407897922580033,C
30.6661548,76.7316227,Pothole,5.529115,5.529115,0.9586842,1,0.01035308837890625,0.424565851688385,-3.8999860522879946,0.0,3.8999860522879946,0.21357205510139465,8.084841870737128,0.08370308241722323,C
30.66666393076923,76.73123476923078,Pothole,10.0,6.0889025,1.0,13,0.36251068115234375,2.410837173461914,-7.307729009733545,34.558604602311256,34.558604602311256,4.396569728851318,10.129760307718055,0.8294040910572277,C
30.6670658,76.73092315,Pothole,9.6930275,4.6925874,0.95,4,0.0828704833984375,1.6902787685394287,-5.260392007314842,2.003288026942432,5.260392007314842,1.5644288063049316,11.428808804817674,0.463470912477896,C
30.6682273,76.7300858,Pothole,2.8367867,2.8367867,0.8631789,1,0.02071380615234375,0.6746919751167297,-1.2395023607074531,0.0,1.2395023607074531,0.3857688009738922,14.82247095410779,0.30702979004213443,C
30.6684572,76.7299127,Pothole,5.094381,5.094381,0.55,1,0.0103607177734375,0.10389819741249084,-4.0721538254669145,0.0,4.0721538254669145,0.22420412302017212,15.173746220699982,0.1572109021584364,C
30.669265233333334,76.72930043333334,Pothole,4.4883947,3.6554387,0.8120172,3,0.05179595947265625,0.3260497748851776,-3.4819018906573023,1.9989217058845394,3.4819018906573023,2.258845090866089,17.258001178934382,0.3600116331082381,C
30.670096600000004,76.7286668,Pothole,9.150053,6.400955,0.95,3,0.1450042724609375,0.5469630360603333,-6.713439020780552,8.959233443877183,8.959233443877183,2.2731361389160156,16.506242263312743,1.7101764661480086,C
30.6704526,76.7283962,Pothole,4.7520733,4.7520733,0.55,1,0.01035308837890625,0.09002938121557236,-3.810012060256814,0.0,3.810012060256814,1.0140743255615234,15.915965873898218,0.1647794013281241,C
30.6706996,76.7282065,Pothole,5.677783,5.677783,0.55,1,0.0103607177734375,0.24044302105903625,-4.330747386474116,0.0,4.330747386474116,0.42758050560951233,15.589738678606865,0.1615208826106882,C
30.6709235,76.7280331,Pothole,3.612179,3.612179,0.5,1,0.01035308837890625,0.21771769225597382,-2.647286349303129,0.0,2.647286349303129,0.6655588150024414,15.096188197841306,0.15629217059685252,C
30.663579883333338,76.73372461666666,Road Bump,5.913571,2.579048,0.5,6,0.06214141845703125,0.2614189386367798,0.0,3.942380557770175,3.942380557770175,1.0294474363327026,10.372269339065278,0.10899897400405474,C
30.666154800000005,76.7316227,Road Bump,9.103035,4.80551,0.5,5,0.05179595947265625,0.3998437225818634,0.0,6.06868998864401,6.06868998864401,2.0048248767852783,7.949884658227157,0.08446422221663485,C
30.666640960000002,76.73125228,Road Bump,10.0,4.1509714,0.5,5,0.0621490478515625,1.0832599401474,-0.2324859222606257,9.038389610524947,9.038389610524947,2.058534860610962,9.891866608050956,0.21271290670979498,C
30.66702136,76.73095670000001,Road Bump,10.0,4.0710754,0.5,5,0.072509765625,2.064239978790283,-0.36532673250257286,10.395203298726004,10.395203298726004,1.928339958190918,11.223320767040887,0.2320174150062002,C
30.6674653,76.7306294,Road Bump,1.024748,1.024748,0.5,1,0.02071380615234375,0.08463851362466812,-0.16765719488432929,0.683165298424445,0.683165298424445,1.257047176361084,12.934670044551176,0.26792624794736053,C
30.6682273,76.7300858,Road Bump,5.93122,4.691226,0.5,2,0.020721435546875,0.756571888923645,0.0,3.9541467787406077,3.9541467787406077,1.163328766822815,14.82599268619644,0.15380855439270555,C
30.6690439,76.7294637,Road Bump,1.1800543,1.1800543,0.5,1,0.0103607177734375,0.043926484882831573,0.0,0.7867028747514748,0.7867028747514748,1.2344439029693604,16.334119537818655,0.16923320260893046,C
30.6694371,76.7291732,Road Bump,3.606891,3.606891,0.5,1,0.01035308837890625,0.016226662322878838,0.0,2.40459392272966,2.40459392272966,0.6261915564537048,17.86444824092466,0.1849522114786893,C
30.669837,76.7288694,Road Bump,2.0903175,2.0903175,0.5,1,0.020721435546875,0.10200860351324081,0.0,1.3935449240908326,1.3935449240908326,0.6751558780670166,17.23477873134089,0.3571293566461323,C
30.6700966,76.7286668,Road Bump,10.0,6.533494,0.5,4,0.072509765625,0.3295019567012787,0.0,9.795154664871532,9.795154664871532,1.7170467376708984,16.476719420837576,0.5117261487608743,C
30.6704526,76.7283962,Road Bump,3.8770444,3.0279686,0.5,3,0.051788330078125,0.150362029671669,0.0,2.584696363538548,2.584696363538548,3.123021125793457,15.913687366722826,0.494793559874192,C
30.67086595,76.72807785,Road Bump,6.227178,3.6941986,0.5,2,0.020721435546875,0.09525085985660553,0.0,4.151451934120791,4.151451934120791,0.5688982009887695,15.27693331542936,0.15861311604834444,C
30.663593066666667,76.73371433333334,Rough Patch,0.85811204,0.6894911,0.3,3,0.031070709228515625,0.22379732131958008,-1.072640056613892,0.0,1.072640056613892,0.2541535198688507,10.400153778783244,0.10931000072693181,C
30.6644026,76.7330712,Rough Patch,0.46929434,0.46929434,0.3,1,0.0103607177734375,0.09598162770271301,-0.586617920172432,0.0,0.586617920172432,0.8631041049957275,13.86659616252163,0.14366788931811808,C
30.6661548,76.7316227,Rough Patch,0.4428027,0.4428027,0.3,1,0.0103607177734375,0.20959153771400452,-0.5535033628365653,0.0,0.5535033628365653,0.07560259103775024,8.25363058107479,0.08551353705672886,C
30.6665983,76.7312848,Rough Patch,1.6164961,1.1492345,0.3,2,0.03106689453125,0.2294480949640274,-2.02062014012445,1.2122727290562647,2.02062014012445,0.5114931464195251,9.718200595620468,0.20318793502995255,C
30.6678861,76.7303372,Rough Patch,1.525646,1.525646,0.3,1,0.0103607177734375,0.06019451841711998,-1.907057470267259,0.0,1.907057470267259,0.1445634961128235,14.642596360404267,0.15170780836051173,C
30.6684572,76.7299127,Rough Patch,1.2983903,1.2983903,0.3,1,0.0103607177734375,0.050912044942379,-1.6229877793272331,0.0,1.6229877793272331,0.03806956112384796,15.170432722715818,0.15717657194097961,C
30.6686926,76.7297294,Rough Patch,0.7916892,0.7916892,0.3,1,0.0103607177734375,0.02353471890091896,-0.989611509594531,0.0,0.989611509594531,0.22322630882263184,15.389403053746468,0.1594452617415444,C
30.6689203,76.7295538,Rough Patch,0.4073112,0.4073112,0.3,1,0.0103607177734375,0.05401650443673134,-0.5091390128726418,0.0,0.5091390128726418,0.0368693470954895,15.998052247988062,0.16575130426611165,C
30.6694371,76.7291732,Rough Patch,1.9856541,1.9856541,0.3,1,0.02071380615234375,0.11651685833930969,-2.482067668573694,1.0756184216015061,2.482067668573694,0.5130866765975952,17.852223176038954,0.36978749025684937,C
30.669837,76.7288694,Rough Patch,0.6949423,0.6949423,0.3,1,0.03107452392578125,0.03915815055370331,-0.8686778545774683,0.6043183809179506,0.8686778545774683,1.4248521327972412,17.247469272237993,0.5359568965593364,C
30.6704526,76.7283962,Rough Patch,0.8576236,0.8576236,0.3,1,0.01035308837890625,0.03951504826545715,-1.0720294645343174,0.0,1.0720294645343174,0.5326951146125793,15.874940993128236,0.16435466711177837,C
30.6709235,76.7280331,Rough Patch,1.9738783,1.9084713,0.3,2,0.03107452392578125,0.0625109151005745,-2.4673478752684197,0.0,2.4673478752684197,0.6544822454452515,15.187403521315659,0.31218424837489694,C
30.6748524,76.7249044,Acceleration,3.3064084,3.3064084,0.7,1,0.010356903076171875,0.0406530499458313,0.0,0.32228925143638776,0.32228925143638776,2.2042722702026367,9.32843041194123,0.0966136496292894,D
30.673321539473687,76.7261750526316,Hard Braking,2.275212,0.69996405,0.65,38,0.5178899765014648,0.2751186490058899,-1.9239299429687051,1.786854916970258,1.9239299429687051,1.8960100412368774,9.005890436682089,0.22093098702178093,D
30.6738785,76.7257284,Hard Braking,3.0878778,0.97940016,0.7,6,0.08285903930664062,0.11861712485551834,-1.1432630327086297,1.4035481045488876,1.4035481045488876,2.0585851669311523,8.26609042624984,0.17464628761791964,D
30.674163017391304,76.72549659130435,Hard Braking,1.573345,0.52291626,0.65,23,0.3003807067871094,0.28680574893951416,-1.4826141411219869,1.000683980261769,1.4826141411219869,1.3111207485198975,7.43220908810698,0.15548456532925337,D
30.6745098,76.7252048,Hard Braking,0.59527403,0.50223565,0.65,2,0.041431427001953125,0.18360422551631927,-0.36052023959733237,1.7099831798519123,1.7099831798519123,0.49606168270111084,9.123255282429216,0.1891609942322561,D
30.6751238,76.7246748,Hard Braking,0.99802,0.35318953,0.65,5,0.062145233154296875,0.09381214529275894,-0.91071320457851,1.1431714555074368,1.1431714555074368,0.831683337688446,9.125831709494525,0.19000124871923602,D
30.6755538,76.7243027,Hard Braking,0.587983,0.4262595,0.65,3,0.031078338623046875,0.08662765473127365,-0.017144262064466176,0.6389841460336108,0.6389841460336108,0.4899858236312866,7.0496886834226204,0.07475411384134323,D
30.676110616666666,76.72380607083333,Hard Braking,2.088321,0.8266327,0.65,24,0.37287139892578125,0.25991347432136536,-1.5920987300126956,1.4251084101189377,1.5920987300126956,1.7402675151824951,12.189970713251919,0.6341834436676076,D
30.676634084210534,76.72339119736846,Hard Braking,2.217954,0.6997319,0.65,38,0.4660835266113281,0.26283061504364014,-1.9991604533433573,1.922167871709183,1.9991604533433573,1.8482948541641235,11.793817161073354,0.3569562307588021,D
30.677273789743587,76.7228523923077,Hard Braking,2.3372123,0.9839281,0.65,39,0.5489349365234375,0.28663331270217896,-1.9054423974712797,1.8889139423603254,1.9054423974712797,1.9476770162582397,9.584189345674487,0.32624968105571045,D
30.67850594210526,76.72180785789475,Hard Braking,2.0175562,0.83997774,0.65,19,0.3004150390625,0.25722384452819824,-1.757762106121464,1.4541884023663663,1.757762106121464,1.6812968254089355,2.7152313373852732,0.08154829028100968,D
30.67355262962963,76.72598781481483,Minor Anomaly,0.24766639,0.12259232,0.2,54,0.6421556025743484,0.8572552800178528,-0.4953327911376135,0.48453545560041,0.4953327911376135,2.7886996269226074,7.767095297977231,0.20825077418244173,D
30.67482746896552,76.72492863103447,Minor Anomaly,0.23604627,0.09713553,0.2,29,0.341796875,0.20372872054576874,-0.47209253188934763,0.4320828689615812,0.47209253188934763,1.660884141921997,9.388222001882387,0.20034223811004323,D
30.67575514545455,76.7241137060606,Minor Anomaly,0.23961881,0.09308878,0.2,33,0.3521575927734375,0.10863924026489258,-0.4792376124198352,0.45236349622958905,0.4792376124198352,1.1689283847808838,9.392490717717125,0.17767886693694263,D
30.6763552,76.723614,Minor Anomaly,0.17584255,0.17584255,0.2,1,0.010356903076171875,0.039851199835538864,-0.3516850955605282,0.0,0.3516850955605282,0.02464919164776802,11.635398606721298,0.12050669562243775,D
30.6766126,76.7234105,Minor Anomaly,0.1549248,0.10994886,0.2,2,0.020717620849609375,0.2252543568611145,0.0,0.30984957526963086,0.30984957526963086,1.0421855449676514,11.88828599033317,0.12324094693874618,D
30.6769563,76.7231185,Minor Anomaly,0.05933197,0.03382765,0.2,3,0.031070709228515625,0.0347118005156517,-0.11866393872934378,0.0,0.11866393872934378,0.3009750247001648,11.330674776540684,0.11903714371907655,D
30.67715905,76.7229459,Minor Anomaly,0.23544788,0.15143189,0.2,2,0.02071380615234375,0.027414429932832718,-0.13483176732020574,0.47089577028801166,0.47089577028801166,0.46577227115631104,10.847575848589127,0.11453815289184076,D
30.677551516666664,76.72262883333333,Minor Anomaly,0.15089336,0.08013193,0.2,6,0.0621490478515625,0.028969595208764076,-0.2597706521312251,0.30178670774352234,0.30178670774352234,0.6327567100524902,7.401322938374052,0.08543985528155007,D
30.67815,76.722099,Minor Anomaly,0.20258437,0.20258437,0.2,1,0.010345458984375,0.015924004837870598,0.0,0.4051687377619402,0.4051687377619402,0.1526058465242386,2.283010336381267,0.023618789795936568,D
30.678531525,76.72178632500001,Minor Anomaly,0.23531,0.12558919,0.2,4,0.04144287109375,0.3973141014575958,-0.2684295916009889,0.4706200191225296,0.4706200191225296,0.6221470832824707,3.1445374679367317,0.03414119835296633,D
30.67328087333334,76.72620566666667,Pothole,3.9529035,2.8323767,0.88779175,15,0.39359521865844727,1.1542677879333496,-2.5449981682696476,3.7603375212417696,3.7603375212417696,1.2481738328933716,8.764523318473163,0.5966643133404913,D
30.6736675,76.7258966,Pothole,3.9278958,3.9278958,0.55,1,0.020715713500976562,0.07485410571098328,-3.14848967525399,0.0,3.14848967525399,0.8223814964294434,10.620983615013408,0.2200212536671841,D
30.674357911764705,76.7253337117647,Pothole,10.0,6.5416403,1.0,17,0.8079071044921875,2.0488061904907227,-24.01028252977306,30.1829148865519,30.1829148865519,4.544564247131348,8.36429097135807,1.5207185933154606,D
30.6748524,76.7249044,Pothole,2.3617697,1.9417558,0.73624927,2,0.031070709228515625,0.3426506817340851,-1.6765237390879415,0.0,1.6765237390879415,1.516250729560852,9.319915191148736,0.19309649651520638,D
30.675941833333336,76.72394653333333,Pothole,4.683682,3.338544,0.83688045,3,0.04143524169921875,0.3165203630924225,-3.7545667464370087,0.0,3.7545667464370087,1.0224995613098145,11.470067715321093,0.24998113511363024,D
30.676687559999998,76.72334753999999,Pothole,6.092129,4.102287,0.92825454,5,0.14501571655273438,0.44371888041496277,-4.466378659377205,3.4030328564716363,4.466378659377205,2.2867705821990967,12.017567177286967,0.5003582663038084,D
30.67724363333333,76.72287663333333,Pothole,4.4991636,3.7460327,0.79460937,6,0.1035614013671875,0.3505314290523529,-3.569161665174308,0.0,3.569161665174308,1.4810469150543213,9.795041431576676,0.39448926154267616,D
30.673243921428572,76.72623260714286,Road Bump,7.315713,2.4986148,0.5,14,0.18643927574157715,1.129052996635437,-0.4729632973676381,4.8771418557678725,4.8771418557678725,1.571559190750122,8.32771498693715,0.20440703030284116,D
30.673667500000004,76.7258966,Road Bump,1.4384924,1.2372128,0.5,3,0.041431427001953125,0.10035786777734756,0.0,0.9589949776188949,0.9589949776188949,1.2111566066741943,10.536004998509881,0.2196673718646953,D
30.6740564,76.72558584000001,Road Bump,3.1185,1.5883443,0.5,5,0.06214714050292969,0.3930757939815521,-0.3054865803440352,2.0790000401844715,2.0790000401844715,1.4291019439697266,7.29706824917856,0.15122454631956428,D
30.6743766,76.7253204,Road Bump,4.0956717,2.3967516,0.5,4,0.041431427001953125,0.5445709228515625,0.0,2.7304478757826853,2.7304478757826853,0.7007496356964111,8.332588228312115,0.08721673198515745,D
30.6746471,76.7250866,Road Bump,5.245322,3.3397777,0.5,3,0.08286285400390625,0.4781219959259033,-0.4480149562651601,3.496881515598952,3.496881515598952,1.3297629356384277,9.523653554075246,0.39440696868544617,D
30.6749013,76.72486282857143,Road Bump,3.079573,1.7185564,0.5,7,0.09321212768554688,0.0559181272983551,-0.41014064952005924,2.0530485926414315,2.0530485926414315,1.0345704555511475,9.424498174668722,0.19861782043456522,D
30.675599,76.7242563,Road Bump,1.3410372,1.155028,0.5,2,0.031070709228515625,0.21717870235443115,-0.19269805125353745,0.8940247913226145,0.8940247913226145,1.1790335178375244,6.691600457908862,0.1389681600813871,D
30.675952022222223,76.72393835555556,Road Bump,3.4078562,1.9494067,0.5,9,0.11392974853515625,0.3110446333885193,-0.1855729373686552,2.2719042162600385,2.2719042162600385,2.333949089050293,11.192287447971246,0.25383707854347726,D
30.67667506666667,76.72335803333333,Road Bump,5.481776,2.691064,0.5,6,0.08286666870117188,0.495327889919281,-0.18807382336695877,3.654517584891723,3.654517584891723,1.3096424341201782,11.977192793032714,0.24870684993170658,D
30.677207216666663,76.72290645,Road Bump,5.537837,3.051378,0.5,6,0.07250213623046875,0.11845936626195908,-0.1761028474494637,3.691891266712645,3.691891266712645,1.297319769859314,10.101207751477261,0.2292573312182291,D
30.6781846,76.722068,Road Bump,0.8421575,0.8421575,0.5,1,0.0103302001953125,0.023737356066703796,0.0,0.561438313678984,0.561438313678984,0.6415091753005981,2.3713182301936273,0.0244961920446943,D
30.67295215,76.726463,Rough Patch,0.4832208,0.44875443,0.3,2,0.0206945538520813,0.13048797845840454,-0.6040259813052025,0.0,0.6040259813052025,1.2242259979248047,4.282419661846781,0.06124432782407585,D
30.673162,76.7262961,Rough Patch,2.0887825,1.0936023,0.3,4,0.051788330078125,0.1490369290113449,-2.610978272796264,0.0,2.610978272796264,2.0076167583465576,8.280837419709005,0.17976367895703538,D
30.673560108333337,76.72598611666666,Rough Patch,1.0701693,0.74647254,0.3,12,0.17608261108398438,0.1959267258644104,-1.337711729300512,0.8264417643365771,1.337711729300512,1.4370678663253784,10.205574573840886,0.5477834108773673,D
30.67403804285714,76.72560085714285,Rough Patch,1.846835,1.118941,0.3,7,0.08286285400390625,0.21829964220523834,-2.3085437662479578,0.47606866310935203,2.3085437662479578,0.8340867757797241,7.29890031683316,0.15083918032322266,D
30.674347125,76.725344225,Rough Patch,0.74643904,0.61714447,0.3,4,0.10358047485351562,0.28806576132774353,-0.9330488214084189,2.718780188802832,2.718780188802832,2.597226619720459,8.095472991920085,0.2637635327149576,D
30.67459235,76.725134075,Rough Patch,0.9135239,0.69781816,0.3,4,0.06214714050292969,0.22166278958320618,-1.141904856799071,3.3244510936464415,3.3244510936464415,1.3842222690582275,9.522969800137856,0.1968603103116078,D
30.67500288,76.7247766,Rough Patch,1.1488037,0.844865,0.3,5,0.07250595092773438,0.17817237973213196,-1.4360046088062859,0.5007324669557445,1.4360046088062859,1.1028671264648438,9.386642783927162,0.2903093895515012,D
30.67582556923077,76.72404900769233,Rough Patch,2.3125103,0.7719532,0.3,13,0.19680404663085938,0.11939861625432968,-2.8906378792038865,0.7534592665714328,2.8906378792038865,1.0131611824035645,9.770679975692753,0.3149787562175234,D
30.676668820000003,76.72336327999999,Rough Patch,1.4836736,0.9541569,0.3,5,0.09321212768554688,0.25228020548820496,-1.854592010937239,1.0989876205894564,1.854592010937239,1.04135000705719,11.97206011608049,0.4961858914934992,D
30.6768735,76.7231893,Rough Patch,0.89989024,0.89989024,0.3,1,0.0103607177734375,0.008965237066149712,-1.1248627733350691,0.0,1.1248627733350691,0.33148008584976196,11.642774610824398,0.12062750184249521,D
30.67723165,76.72288645,Rough Patch,1.6630276,1.0703781,0.3,2,0.03107452392578125,0.10955798625946045,-2.0787845051803036,1.0130364695872611,2.0787845051803036,1.6440678834915161,9.989027897168851,0.19413346536248927,D
30.6935267,76.7130658,Acceleration,3.2671976,3.2671976,0.7,1,0.0103607177734375,0.15075699985027313,0.0,1.3713463850628944,1.3713463850628944,2.1781318187713623,7.723289561952489,0.08001882343392548,E
30.6965423,76.7105691,Acceleration,3.5128284,3.5128284,0.7,1,0.0103759765625,0.12642237544059753,0.0,0.04283498978903033,0.04283498978903033,2.341885566711426,9.470917521729904,0.09827001823084007,E
30.7013629,76.7071261,Acceleration,4.170986,4.170986,0.75,1,0.010345458984375,0.22396855056285858,0.0,0.017704545609209532,0.017704545609209532,2.7806572914123535,6.267546632274175,0.06484064661685013,E
30.7033046,76.7054779,Acceleration,3.1417344,3.1417344,0.7,1,0.0103759765625,0.14443716406822205,0.0,0.189696409343048,0.189696409343048,2.094489574432373,6.388248683369092,0.06628431861405919,E
30.6920413,76.71330190000002,Hard Braking,1.3442459,0.5268054,0.65,6,0.0621185302734375,0.09618741273880005,-0.19075065259142043,0.9762706084495498,0.9762706084495498,1.1202049255371094,8.789976042488012,0.09248899992877124,E
30.6931867,76.7133503,Hard Braking,1.5413177,1.5413177,0.65,1,0.0103607177734375,0.1354992538690567,0.0,0.1679620297724842,0.1679620297724842,1.2844314575195312,7.2762021666419345,0.07538667711105154,E
30.6935267,76.7130658,Hard Braking,0.21515207,0.21515207,0.65,1,0.0103607177734375,0.22496303915977478,-1.2443399191773876,0.0,1.2443399191773876,0.17929339408874512,7.743998579032193,0.08023338371525358,E
30.696319305000003,76.710753725,Hard Braking,1.8410201,0.9163016,0.65,20,0.290069580078125,0.1627734899520874,-1.9418365122780434,1.9108140236401443,1.9418365122780434,1.534183382987976,8.757667157068553,0.268025320542657,E
30.69706653333333,76.71010873333334,Hard Braking,1.8742361,0.93711036,0.65,3,0.03106689453125,0.025647630915045738,-0.4354586770077855,0.22738066737509044,0.4354586770077855,1.5618634223937988,8.719031045904932,0.09163503225336546,E
30.69754722,76.70970453999999,Hard Braking,1.117813,0.68117917,0.65,5,0.051788330078125,0.14323121309280396,-1.5675005789613001,0.01605393403946742,1.5675005789613001,0.9315108060836792,10.47186666235498,0.11109285590946313,E
30.69940694285714,76.70875512857141,Hard Braking,1.8095948,0.89851147,0.65,7,0.0828857421875,0.1526915729045868,-0.7680320549689004,0.7185792107633748,0.7680320549689004,1.50799560546875,6.8527261555832695,0.14298273584190282,E
30.6998565,76.7083881,Hard Braking,1.0114751,0.5310898,0.65,3,0.03106689453125,0.07071109861135483,0.0,0.9163353680777782,0.9163353680777782,0.8428958654403687,8.809618930913267,0.09328793341158265,E
30.7002904,76.7080261,Hard Braking,1.6945287,0.8853731,0.65,2,0.020721435546875,0.2340058535337448,0.0,0.93171431395497,0.93171431395497,1.412107229232788,10.39530654127691,0.10813006050769507,E
30.700672366666662,76.70771033333334,Hard Braking,1.2361653,0.54782695,0.65,6,0.0621337890625,0.18095046281814575,-1.3571396356275969,1.757214162800965,1.757214162800965,1.0301377773284912,9.14726997533271,0.09972801370060948,E
30.701439336363638,76.70706126363636,Hard Braking,3.0694213,0.9230099,0.7,11,0.114013671875,0.11491995304822922,-0.9179064127558991,1.551105909106555,1.551105909106555,2.046280860900879,7.333963568853903,0.08443777511993476,E
30.702091324999998,76.706532925,Hard Braking,3.6196485,1.5961528,0.7,8,0.113922119140625,0.23586173355579376,-1.3190078403314542,0.8807784842025121,1.3190078403314542,2.4130990505218506,5.5758176491873055,0.17320497304565693,E
30.70283876666667,76.70588613333334,Hard Braking,2.3645632,1.2009076,0.65,3,0.03106689453125,0.2591021656990051,-0.6069642009984255,0.4498564037578383,0.6069642009984255,1.970469355583191,9.804343394750065,0.10240003052816937,E
30.70342965,76.70537386666668,Hard Braking,1.7213837,0.9756786,0.65,6,0.07244873046875,0.17840860784053802,-1.4363223433011765,1.6364424006889635,1.6364424006889635,1.4344863891601562,7.810280063052292,0.13178821486921335,E
30.7040638,76.7048442,Hard Braking,0.09034463,0.09034463,0.65,1,0.0103759765625,0.12095686793327332,-0.9656360186240986,0.0,0.9656360186240986,0.07528719305992126,7.192839299657714,0.07463273199107735,E
30.70432295,76.704625475,Hard Braking,0.41130573,0.29662305,0.65,4,0.04144287109375,0.07068140804767609,-0.26236011362440337,0.5953316148910943,0.5953316148910943,0.3427547812461853,9.059389085639072,0.09733245915705036,E
30.690814449999998,76.71155905,Minor Anomaly,0.22025137,0.1964253,0.2,2,0.02071380615234375,0.16748932003974915,-0.34519849508000444,0.4405027222959319,0.4405027222959319,0.8543758392333984,4.51885124199506,0.048501539820011035,E
30.6912467,76.711986,Minor Anomaly,0.18367563,0.18367563,0.2,1,0.020721435546875,0.07798518240451813,-0.3673512771420775,0.17965886109650597,0.3673512771420775,1.0001403093338013,5.476240272746743,0.11347555985092281,E
30.6916663,76.7126876,Minor Anomaly,0.117078155,0.117078155,0.2,1,0.0103759765625,0.036005839705467224,-0.2341563044012993,0.0,0.2341563044012993,0.17306649684906006,2.5127689846085794,0.026072432091275542,E
30.69201905,76.71326540000001,Minor Anomaly,0.06413696,0.034753755,0.2,2,0.020721435546875,0.09435248374938965,0.0,0.1282739143728584,0.1282739143728584,0.2942734360694885,8.40465095985505,0.0886344209452149,E
30.6927552,76.713482,Minor Anomaly,0.17175403,0.09101501,0.2,2,0.02069091796875,0.11567965149879456,-0.02055198687192039,0.34350806690160063,0.34350806690160063,0.5666745901107788,2.539274794435685,0.026747387087131296,E
30.6930626,76.71345275,Minor Anomaly,0.19370817,0.08046937,0.2,4,0.0414581298828125,0.14057673513889313,-0.38741633134498876,0.10518770057356441,0.38741633134498876,0.45215678215026855,5.569451741588335,0.07004044783773776,E
30.6938138,76.7128206,Minor Anomaly,0.1147912,0.10328682,0.2,2,0.020721435546875,0.28134748339653015,-0.2295823999232871,0.18356488321344244,0.2295823999232871,0.9491279125213623,6.620987756761722,0.06904699262711227,E
30.6958958,76.7110988,Minor Anomaly,0.03440427,0.03440427,0.2,1,0.010345458984375,0.03550491854548454,-0.06880853883354199,0.0,0.06880853883354199,0.9514223337173462,5.91195276742105,0.06116186487291674,E
30.6985943,76.7088497,Minor Anomaly,0.052577164,0.049090512,0.2,2,0.020721435546875,1.1953468322753906,-0.10515432873934305,0.0,0.10515432873934305,2.8085474967956543,8.577135031417583,0.08886941645154359,E
30.6990799,76.7088276,Minor Anomaly,0.044301476,0.02510069,0.2,2,0.02069091796875,0.47229287028312683,-0.011799801072228888,0.08860295440828381,0.08860295440828381,0.2960185110569,5.50543281332811,0.05701517524354282,E
30.6993202,76.7088295,Minor Anomaly,0.23563758,0.08832375,0.2,4,0.041412353515625,0.03804900124669075,0.0,0.47127515384512897,0.47127515384512897,0.7929550409317017,5.209907408483316,0.05559826296418147,E
30.6997372,76.708495,Minor Anomaly,0.10419119,0.10419119,0.2,1,0.010345458984375,0.08450505137443542,0.0,0.2083823847234587,0.2083823847234587,0.10936817526817322,7.4819840805025315,0.07740455942658564,E
30.6999265,76.7083286,Minor Anomaly,0.07766286,0.07766286,0.2,1,0.010345458984375,0.0333312563598156,0.0,0.15532572741087058,0.15532572741087058,0.6356953382492065,9.443261624313664,0.09769487581305944,E
30.7001363,76.7081548,Minor Anomaly,0.22194415,0.17194802,0.2,3,0.041412353515625,0.09882360696792603,-0.4438882949695566,0.24501700527277137,0.4438882949695566,1.0283691883087158,10.275030480502487,0.21359840793233698,E
30.7006262,76.7077482,Minor Anomaly,0.029675681,0.029675681,0.2,1,0.010345458984375,0.04093203693628311,-0.05935136056807533,0.0,0.05935136056807533,0.059933096170425415,8.696855988464533,0.08997296692167592,E
30.701502700000002,76.70700688,Minor Anomaly,0.21161126,0.1363545,0.2,5,0.051727294921875,0.14898274838924408,-0.2442968170582578,0.42322250555127816,0.42322250555127816,0.3353927433490753,8.114870597706908,0.08825544962522913,E
30.7023408625,76.70629725,Minor Anomaly,0.24803174,0.1432666,0.2,8,0.103607177734375,0.5832831859588623,-0.4340974922273535,0.4960634599824516,0.4960634599824516,0.8565946817398071,8.790946908879313,0.18544579463868555,E
30.7029515,76.705792,Minor Anomaly,0.068602346,0.068602346,0.2,1,0.010345458984375,0.3199196457862854,-0.13720468910782824,0.0,0.13720468910782824,0.9107503294944763,9.041497681994597,0.09353844342639675,E
30.704268133333333,76.70467140000001,Minor Anomaly,0.21512091,0.13098659,0.2,3,0.03106689453125,0.09412332624197006,-0.4302418272510886,0.1856574485900424,0.4302418272510886,0.779149055480957,8.591332798676866,0.0894554484472981,E
30.6905989,76.7116093,Pothole,8.525982,7.3472304,1.0,3,0.0828704833984375,2.461787462234497,-5.605354972945377,8.27494480256489,8.27494480256489,5.784756660461426,3.9405156616092114,0.16327621885833457,E
30.6927552,76.713482,Pothole,3.387209,3.387209,0.82677954,1,0.0724334716796875,0.5346879959106445,-1.9315274661056732,0.0,1.9315274661056732,0.5481800436973572,2.5714378578446238,0.18625817125226485,E
30.69313475,76.7133934,Pothole,4.531416,4.3512106,0.55,2,0.051788330078125,0.2688799500465393,-3.57730935039927,1.319444645853789,3.57730935039927,2.0287442207336426,6.550027661098885,0.22670102973258394,E
30.693486499999995,76.7130988,Pothole,10.0,9.504001,1.0,3,0.2071685791015625,0.8640961647033691,-20.88642387803809,37.84564717185312,37.84564717185312,2.7422842979431152,7.844095466647221,0.6501583858008358,E
30.6938138,76.7128206,Pothole,5.375369,4.1899743,0.947457,3,0.082855224609375,0.3522498309612274,-3.892391169768552,8.610206782209954,8.610206782209954,0.5544702410697937,6.658993641549078,0.27544155875513243,E
30.696338399999995,76.710736,Pothole,10.0,7.6492033,1.0,5,0.2175140380859375,1.57064950466156,-9.730741798937554,12.900739321857339,12.900739321857339,5.242832660675049,9.256996876590984,0.5758074629824479,E
30.6965423,76.7105691,Pothole,10.0,6.8470316,1.0,4,0.227874755859375,0.8393582105636597,-9.99923079377801,34.356921472263494,34.356921472263494,3.6096303462982178,9.51404894970375,1.1853613935056655,E
30.697447,76.7097878,Pothole,2.682797,2.682797,0.5,1,0.010345458984375,0.22628502547740936,-1.8585224129262423,0.0,1.8585224129262423,0.14739590883255005,9.786925074674166,0.10125023194319281,E
30.6985943,76.7088497,Pothole,2.8432856,2.8432856,0.8869242,1,0.010345458984375,1.026809573173523,-0.658055387055124,0.0,0.658055387055124,4.7512736320495605,8.616287798086779,0.08913945201267755,E
30.6990559,76.70878735000001,Pothole,10.0,7.729791,1.0,6,0.207122802734375,2.4021496772766113,-6.2756426070523466,16.732641592683848,16.732641592683848,9.181478500366211,5.559373828433187,0.46087489842690854,E
30.699432858333328,76.70873418333332,Pothole,10.0,6.811022,1.0,12,0.46612548828125,7.273996353149414,-24.78515054170766,21.866260553450118,24.78515054170766,10.54292106628418,6.811197096807093,1.1034722777412276,E
30.70026466666666,76.70804763333332,Pothole,10.0,6.482923,1.0,12,0.580078125,6.182036876678467,-17.955469993364606,34.88013243211783,34.88013243211783,8.489361763000488,10.449670940389769,2.9477268470093207,E
30.7005217,76.70783606666667,Pothole,10.0,7.2551794,1.0,9,0.4039306640625,2.160534381866455,-11.218893366944732,30.393261294290745,30.393261294290745,4.680490970611572,8.6465838242631,0.8960168483249555,E
30.7007597,76.7076374,Pothole,4.7389426,4.7389426,0.55,1,0.020721435546875,0.06464645266532898,-3.841374920992089,1.986354055795653,3.841374920992089,0.7885202169418335,9.550263692887139,0.19789517356782127,E
30.7013876,76.70710525,Pothole,10.0,7.916418,0.55,2,0.04144287109375,0.24812369048595428,-8.942387320465784,3.069355310571252,8.942387320465784,1.0000214576721191,6.761096460158253,0.22527217005264594,E
30.702923939999998,76.70581502,Pothole,10.0,5.458806,1.0,10,0.2899169921875,1.7785331010818481,-8.51322102157236,27.535871058225982,27.535871058225982,4.560934066772461,9.231368259951854,1.0395112407631417,E
30.703321360000007,76.70546531999999,Pothole,10.0,6.241041,1.0,15,0.60076904296875,4.24898624420166,-13.496449727296875,39.675338258391214,39.675338258391214,19.77985954284668,7.050248557553959,1.1336002249711574,E
30.7040638,76.7048442,Pothole,9.395785,6.7969413,0.95,3,0.11395263671875,0.3740139901638031,-7.206464711288694,21.11140333859185,21.11140333859185,1.3057165145874023,7.224302021545992,0.3740502769746226,E
30.6905989,76.7116093,Road Bump,8.399687,8.079442,0.5,2,0.04143524169921875,1.0697650909423828,0.0,5.599790937306748,5.599790937306748,4.771594524383545,3.9423804350020717,0.12343453292460889,E
30.692011633333333,76.71325323333333,Road Bump,1.4884181,1.2062088,0.5,3,0.051788330078125,0.06946465373039246,-0.1460916776493324,0.9922787080199988,0.9922787080199988,0.9703359603881836,8.5000198855034,0.1780839783640871,E
30.692774075000003,76.7134749,Road Bump,5.479265,3.0889478,0.5,4,0.04144287109375,0.5997925996780396,0.0,3.6528433300895387,3.6528433300895387,2.4323763847351074,2.4853525181112874,0.02616870700995353,E
30.693077677777776,76.71344022222223,Road Bump,4.7584233,2.4630167,0.5,9,0.134674072265625,0.22524337470531464,-0.47959679289944646,3.1722822483349837,3.1722822483349837,1.2482002973556519,5.739379669579591,0.16882086470148158,E
30.69349655,76.71309055,Road Bump,1.4145286,1.2259065,0.5,2,0.0207061767578125,0.41174250841140747,0.0,0.9430190568976364,0.9430190568976364,0.925629734992981,7.816480138811157,0.08170065264655997,E
30.6938138,76.7128206,Road Bump,5.009312,2.9332218,0.5,3,0.03106689453125,0.09671548008918762,0.0,3.339541477811647,3.339541477811647,0.6098203063011169,6.616348225656403,0.06866033737971439,E
30.6950961,76.7117718,Road Bump,1.2109536,1.2109536,0.5,1,0.010345458984375,0.08703535795211792,0.0,0.8073023661667982,0.8073023661667982,1.3852049112319946,5.6812418394912765,0.058775054430772175,E
30.6963384,76.710736,Road Bump,2.5096738,2.0064921,0.5,2,0.0310821533203125,0.4307495951652527,0.0,1.6731159439633743,1.6731159439633743,2.4435067176818848,9.226989576930729,0.19207744247330608,E
30.6965423,76.7105691,Road Bump,10.0,10.0,0.5,1,0.0103759765625,0.15321969985961914,0.0,10.826631607086485,10.826631607086485,2.129054069519043,9.539827686898528,0.09898502848954771,E
30.6985943,76.7088497,Road Bump,10.0,5.050882,0.5,3,0.03106689453125,3.454479455947876,0.0,6.813806873194327,6.813806873194327,15.697519302368164,8.723132204313059,0.09110573516994575,E
30.6990655,76.70880345,Road Bump,7.143937,5.179356,0.5,4,0.0621337890625,0.7200746536254883,0.0,4.762624883097885,4.762624883097885,1.897273063659668,5.5322142724341425,0.1742584772588672,E
30.6993625,76.7087929,Road Bump,10.0,6.5105963,0.5,4,0.05181884765625,0.39105862379074097,0.0,7.277237691962766,7.277237691962766,2.575401544570923,6.5112086068564325,0.13446533682775544,E
30.6995212,76.7086608,Road Bump,10.0,8.267004,0.5,4,0.0517578125,0.7492026090621948,0.0,17.748754689134035,17.748754689134035,3.637673854827881,7.085695107688086,0.1492222618557361,E
30.6997372,76.708495,Road Bump,1.1321925,1.1321925,0.5,1,0.010345458984375,0.04906364530324936,0.0,0.7547949991660516,0.7547949991660516,0.06597048044204712,7.457759303879044,0.0771539429936217,E
30.7002518,76.7080584,Road Bump,6.162409,6.0178947,0.5,2,0.03106689453125,0.6818065643310547,0.0,4.108272403069607,4.108272403069607,2.7370357513427734,10.480087790323495,0.2192411978539914,E
30.7005619,76.707801,Road Bump,4.643362,4.643362,0.5,1,0.020721435546875,0.10418513417243958,-0.45150293674334385,3.0955748119937745,3.0955748119937745,0.363941490650177,8.598361115237985,0.17817038565816015,E
30.701413766666665,76.70708313333334,Road Bump,7.065586,3.8338501,0.5,3,0.031036376953125,0.21004480123519897,0.0,4.710390779987572,4.710390779987572,1.2244715690612793,6.9741189889536015,0.07590749788977678,E
30.7020605,76.7065612,Road Bump,0.76993805,0.76993805,0.5,1,0.020721435546875,0.40026119351387024,-0.04428220814584449,0.5132920271889319,0.5132920271889319,0.7074581384658813,4.86147174385062,0.10073667340315463,E
30.70236988333333,76.70627333333333,Road Bump,4.319933,2.0192776,0.5,6,0.072540283203125,0.5662121176719666,-0.15668726558424062,2.8799551664933265,2.8799551664933265,1.6564781665802002,8.961074962006146,0.18927591276143857,E
30.702892442857145,76.70584132857142,Road Bump,7.6176734,4.294631,0.5,7,0.082855224609375,1.4794955253601074,0.0,5.07844896831441,5.07844896831441,1.4787132740020752,9.30427569423662,0.2028557936514207,E
30.703327137499997,76.705460425,Road Bump,9.85455,4.4188247,0.5,8,0.093231201171875,0.7089366912841797,0.0,6.569700138167109,6.569700138167109,3.3050031661987305,7.038763925506852,0.13212940889344446,E
30.7040638,76.7048442,Road Bump,10.0,7.9459977,0.5,3,0.05181884765625,0.15983307361602783,-0.437582193566894,8.112270741197102,8.112270741197102,2.062012195587158,7.207135901107488,0.22489644332480302,E
30.7042262,76.7047062,Road Bump,1.1880789,1.1880789,0.5,1,0.0103759765625,0.05015333741903305,0.0,0.7920525828821816,0.7920525828821816,0.5263351202011108,8.362384761866634,0.08676790829573534,E
30.6917571,76.7128387,Rough Patch,1.1369821,0.7638529,0.3,3,0.051788330078125,0.0749661847949028,-1.421227551474841,0.28449694909452816,1.421227551474841,0.9564917683601379,5.485244424187748,0.11632428747693264,E
30.692026466666665,76.71327756666668,Rough Patch,0.96410155,0.673148,0.3,3,0.072479248046875,0.12510205805301666,-1.205126963612086,2.5351478324521075,2.5351478324521075,1.5361850261688232,8.660030294532195,0.2628841056657513,E
30.6930932,76.71342794,Rough Patch,1.7424762,1.1502657,0.3,5,0.0932769775390625,0.18620741367340088,-2.1780952683502166,2.241727259631446,2.241727259631446,1.1166441440582275,5.977003575594541,0.17521975773938545,E
30.6935267,76.7130658,Rough Patch,1.7870495,1.7870495,0.3,1,0.03106689453125,0.1320711374282837,-2.2338119353840806,0.5779683329445913,2.2338119353840806,1.4960665702819824,7.7771325995827185,0.24161135822678245,E
30.6938138,76.7128206,Rough Patch,0.69052786,0.69052786,0.3,1,0.0207061767578125,0.1394052654504776,-0.8631598302754506,0.0,0.8631598302754506,0.38702771067619324,6.6342387950402735,0.1373697211436409,E
30.699344371428573,76.7088085857143,Rough Patch,2.0704644,0.972259,0.3,7,0.13470458984375,0.20423585176467896,-2.588080475955242,5.081008640331712,5.081008640331712,1.0581474304199219,6.154172704048981,0.20537762100335166,E
30.699946166666667,76.70831270000001,Rough Patch,0.5718928,0.51265115,0.3,3,0.041412353515625,0.05106115713715553,-0.7148659772883592,0.47367909285364895,0.7148659772883592,1.1365103721618652,9.264209966036411,0.19934033958718542,E
30.7002904,76.7080261,Rough Patch,1.7982677,1.7982677,0.3,1,0.010345458984375,0.06210819259285927,-2.247834601021877,0.0,2.247834601021877,1.0093886852264404,10.374598422779181,0.10732998246222358,E
30.7006262,76.7077482,Rough Patch,0.53660035,0.53660035,0.3,1,0.010345458984375,0.036538198590278625,-0.6707504313014292,0.0,0.6707504313014292,0.19191792607307434,8.863890093502912,0.09170101140434225,E
30.7014145,76.7070825,Rough Patch,1.7149328,1.1172069,0.3,2,0.031036376953125,0.1319647878408432,-2.143665971826038,4.677104115188325,4.677104115188325,0.602554202079773,6.876377449935963,0.15494869922523258,E
30.7023907,76.7062543,Rough Patch,1.0137469,1.0137469,0.3,1,0.0103759765625,0.11489801108837128,-1.267183520484723,0.0,1.267183520484723,0.4282502233982086,9.017010451119305,0.09356028910463146,E
30.7145432,76.7095368,Acceleration,4.6442904,4.6442904,0.75,1,0.010356903076171875,0.17552834749221802,0.0,0.8079434796560445,0.8079434796560445,3.096193552017212,11.93395373664496,0.12359880216595104,F
30.7165741,76.7080495,Acceleration,4.360071,4.360071,0.75,1,0.020721435546875,0.28976675868034363,-1.030588524827535,0.8676404755353584,1.030588524827535,2.9067139625549316,4.584505109653744,0.09499752714400916,F
30.71066364,76.71275980666665,Hard Braking,1.5177968,0.6923949,0.65,15,0.2175140380859375,0.2697899341583252,-1.9070200506490105,1.9157161072958644,1.9157161072958644,1.2648305892944336,8.412686650154257,0.24948136436983065,F
30.711652028571425,76.71195854285713,Hard Braking,2.199476,1.0405805,0.65,21,0.31072998046875,0.16033294796943665,-1.3737023163529685,1.8524375516563403,1.8524375516563403,1.8328967094421387,11.663146658748555,0.3715906241100192,F
30.7123131,76.711404,Hard Braking,1.054225,1.054225,0.65,1,0.010356903076171875,0.03838667273521423,-0.713948955041257,0.0,0.713948955041257,0.8785208463668823,12.357808564011394,0.12798862553135276,F
30.7127455,76.711043,Hard Braking,0.82854795,0.36419263,0.65,3,0.041431427001953125,0.18719136714935303,-1.4969732322758755,0.6759233237040956,1.4969732322758755,0.6904566287994385,11.657904498985893,0.24129069065888606,F
30.713042071428568,76.71079619999999,Hard Braking,1.587534,0.9650453,0.65,7,0.08286285400390625,0.2987821102142334,-1.610110483411253,0.688505418780144,1.610110483411253,1.32294499874115,11.500245292319835,0.23953717905108762,F
30.7133191,76.7105657,Hard Braking,0.9107104,0.9107104,0.65,1,0.010356903076171875,0.10617559403181076,-1.9817983143253013,0.0,1.9817983143253013,0.7589253187179565,9.78443230535489,0.10133641704192553,F
30.713538800000002,76.71038035000001,Hard Braking,1.6669917,1.0505896,0.65,2,0.020717620849609375,0.21422354876995087,-0.18517932031569462,1.4200123123990966,1.4200123123990966,1.3891597986221313,7.757372319086268,0.08324013984856836,F
30.714220985714284,76.70980901428572,Hard Braking,1.7265764,0.58399343,0.65,14,0.18643569946289062,0.2615700364112854,-1.460069584321941,1.2688681946957416,1.460069584321941,1.4388136863708496,12.278938655190416,0.2595069972981147,F
30.7145726,76.70951223333333,Hard Braking,1.7219845,0.96548694,0.65,3,0.031070709228515625,0.2636982798576355,-0.6906865757858611,0.0,0.6906865757858611,1.4349870681762695,11.975239229507878,0.12446357587940707,F
30.714901100000002,76.7092373,Hard Braking,1.0429873,0.4282303,0.65,3,0.03107452392578125,0.06297899782657623,-0.05287286818820114,1.584760740550136,1.584760740550136,0.8691561222076416,12.58055505167622,0.13054504789761268,F
30.7156518,76.7086049,Hard Braking,0.91934466,0.5169801,0.65,2,0.02071380615234375,0.12987807393074036,0.0,0.5443041017925925,0.5443041017925925,0.7661205530166626,10.123096301931662,0.10581042168732975,F
30.71696145652173,76.70864549565214,Hard Braking,3.0376506,0.8455741,0.7,23,0.30034637451171875,0.1526300311088562,-1.4933977406839727,0.9624649707948087,1.4933977406839727,2.0251004695892334,9.050319915745016,0.21600995671633733,F
30.717735125,76.70987285000001,Hard Braking,0.9654157,0.5428565,0.65,4,0.0414276123046875,0.07811940461397171,-0.8219417954333341,0.1387258383020331,0.8219417954333341,0.8045130968093872,8.856795758455567,0.09418831590845433,F
30.7180325,76.71035579999999,Hard Braking,3.0815973,1.3187821,0.7,10,0.14501953125,0.18664966523647308,-1.9458745672009492,1.4761542451298553,1.9458745672009492,2.05439829826355,9.198437506357516,0.21740450918752074,F
30.7184152,76.7109805,Hard Braking,1.0339981,1.0339981,0.65,1,0.010345458984375,0.03176011145114899,0.0,0.20570571793352954,0.20570571793352954,0.8616651296615601,7.226427302852088,0.07476070726522392,F
30.718717549999997,76.71147243749999,Hard Braking,1.8670822,0.8568574,0.65,8,0.093231201171875,0.2062668651342392,-1.4071174293823931,1.813636163006235,1.813636163006235,1.5559018850326538,10.276830106445404,0.2282245524090596,F
30.719094344444443,76.71206843333334,Hard Braking,1.5473211,0.6711114,0.65,9,0.09320068359375,0.2171635627746582,-0.9467651916121724,1.1344431711783756,1.1344431711783756,1.2894341945648193,9.934991509820374,0.10933489752704027,F
30.710516733333332,76.7128781,Minor Anomaly,0.16864318,0.07545135,0.2,3,0.031026840209960938,0.1061246320605278,-0.10623331850720419,0.3372863581527703,0.3372863581527703,0.7224805355072021,6.1938801782282065,0.06875222687848051,F
30.7131654,76.7106936,Minor Anomaly,0.074771285,0.074771285,0.2,1,0.010356903076171875,0.6735484600067139,-0.14954256681248257,0.0,0.14954256681248257,0.024925559759140015,10.427047258117838,0.10799191782299015,F
30.7133191,76.7105657,Minor Anomaly,0.08368704,0.08368704,0.2,1,0.010356903076171875,0.32614871859550476,-0.16737406747736383,0.0,0.16737406747736383,0.2835726737976074,9.743949799436834,0.10091714365185167,F
30.7138634,76.7101071,Minor Anomaly,0.20799792,0.17650348,0.2,2,0.02071380615234375,0.16477607190608978,0.0,0.4159958319533814,0.4159958319533814,0.8792109489440918,9.5685414148523,0.09965598712729304,F
30.714099,76.7099122,Minor Anomaly,0.17181791,0.08563324,0.2,4,0.041431427001953125,0.06388124078512192,-0.20787469558228366,0.3436358385565512,0.3436358385565512,0.6654917001724243,11.402395159428474,0.12037605571579535,F
30.7148096,76.7093145,Minor Anomaly,0.0739331,0.0739331,0.2,1,0.01035308837890625,0.0884396880865097,0.0,0.14786619860836048,0.14786619860836048,0.6820236444473267,12.252418814016727,0.12685037483688888,F
30.71656213333333,76.70804163333334,Minor Anomaly,0.2131354,0.17266035,0.2,3,0.031097412109375,0.745445191860199,-0.42627081746845885,0.24618197743823167,0.42627081746845885,2.778339385986328,4.663575600997915,0.04867805492224764,F
30.71784096666667,76.71004146666667,Minor Anomaly,0.21401244,0.086496405,0.2,3,0.0310821533203125,0.09214500337839127,-0.06631768628801282,0.4280248742387034,0.4280248742387034,1.348559856414795,9.938667138370814,0.10649290260838942,F
30.7182221,76.7106623,Minor Anomaly,0.08868428,0.08868428,0.2,1,0.0103607177734375,0.48082491755485535,0.0,0.17736856804896028,0.17736856804896028,1.408574104309082,5.965995960374236,0.06181200038290567,F
30.718608690000003,76.71130002,Minor Anomaly,0.21055987,0.09521663,0.2,10,0.11395263671875,0.4462420344352722,-0.10572872547221301,0.4211197609053592,0.4211197609053592,1.1121468544006348,9.058136111054207,0.18261438723149423,F
30.7106041,76.7128065,Pothole,7.290274,7.290274,0.55,1,0.010357856750488281,0.07415652275085449,-5.951634296907781,0.0,5.951634296907781,0.22166867554187775,8.163537064702137,0.08455674749348632,F
30.7131654,76.7106936,Pothole,10.0,7.2887626,1.0,4,0.10357666015625,0.7906784415245056,-7.61581404111821,0.0,7.61581404111821,1.2515435218811035,10.459335341624609,0.5452546180706631,F
30.7133191,76.7105657,Pothole,9.83857,6.417595,1.0,5,0.155364990234375,1.3962260484695435,-5.8717646401734,31.826280449464193,31.826280449464193,2.6620278358459473,9.748526385982352,0.5058990374725596,F
30.713562564705885,76.7103599764706,Pothole,10.0,6.208217,1.0,17,0.4039497375488281,1.4588885307312012,-9.242073908618774,21.238317981064164,21.238317981064164,3.885059356689453,7.894087785027578,0.5226074530101398,F
30.7145432,76.7095368,Pothole,8.976201,5.872904,1.0,2,0.04143524169921875,0.5761663317680359,-6.599022349313675,3.5530477031318437,6.599022349313675,2.3845694065093994,11.925882137371504,0.37159443015893506,F
30.71656897142857,76.70804612857144,Pothole,10.0,5.407388,1.0,7,0.24861907958984375,1.2467613220214844,-12.178156617262973,15.158338336428391,15.158338336428391,10.182255744934082,4.66282456350937,0.4344744218900905,F
30.7167646,76.7083321,Pothole,2.991502,2.991502,0.5,1,0.020721435546875,0.22624538838863373,-2.115842800051582,5.295231875043635,5.295231875043635,0.7890482544898987,8.589848590201235,0.17799399391926998,F
30.716993425000002,76.70869605,Pothole,10.0,6.392254,0.95,4,0.0828399658203125,0.7554376125335693,-7.630728259581478,13.332345404229137,13.332345404229137,3.689918041229248,9.308101444655746,0.3854712873303779,F
30.717233566666664,76.70907766666667,Pothole,4.1406255,3.3262358,0.8123239,3,0.0828704833984375,0.33730238676071167,-2.9730420546605805,1.2741580513996507,2.9730420546605805,1.193450927734375,10.442785073874154,0.3246947857443266,F
30.7178256,76.7100141,Pothole,2.9332633,2.9332633,0.5,1,0.0414276123046875,0.1713111698627472,-2.158867499976049,1.5201354889951872,2.158867499976049,1.8165221214294434,9.921769386388274,0.41103521551581057,F
30.7179813,76.7102733,Pothole,5.7380843,5.7380843,0.97124356,1,0.0310821533203125,0.4823509752750397,-3.9778185319562063,0.21533683531006886,3.9778185319562063,0.10591697692871094,10.52628287246781,0.32717953813502393,F
30.7182221,76.7106623,Pothole,5.5016594,5.4123397,1.0,2,0.0414276123046875,1.0722277164459229,-3.0729566032689037,6.110064854217656,6.110064854217656,1.7653930187225342,5.991754967889907,0.18597633493425536,F
30.718733737500003,76.71149865000001,Pothole,10.0,5.5129547,1.0,8,0.165740966796875,1.8502211570739746,-13.937134351545078,19.55641345071573,19.55641345071573,2.482513666152954,10.639777819552117,0.43844479676771503,F
30.7188994,76.7117624,Pothole,4.863609,4.863609,0.55,1,0.010345458984375,0.07940445840358734,-3.9206667922377143,0.0,3.9206667922377143,0.594794511795044,10.543813553849802,0.10908059066025033,F
30.7105012,76.7128916,Road Bump,3.202755,1.9159974,0.5,3,0.04142284393310547,0.06010742485523224,-0.27740904905156505,2.135169933877652,2.135169933877652,1.0742796659469604,5.388231444347714,0.10457307625131113,F
30.713034099999998,76.7108028,Road Bump,3.511819,3.411499,0.5,3,0.03107452392578125,0.18478895723819733,0.0,2.3412125265265296,2.3412125265265296,1.1177300214767456,11.526349957303438,0.11992801010071737,F
30.713294433333335,76.71058610000001,Road Bump,10.0,4.85188,0.5,6,0.10356903076171875,0.585057258605957,0.0,13.262860490988498,13.262860490988498,3.7358245849609375,9.91521713882697,0.31881645944629633,F
30.71352485,76.71039222499999,Road Bump,10.0,5.6680875,0.5,12,0.14501190185546875,1.01125168800354,0.0,8.276984171363157,8.276984171363157,4.043590068817139,8.081748746197281,0.17435282179362757,F
30.7139408,76.7100438,Road Bump,1.3084673,1.3084673,0.5,1,0.010356903076171875,0.03158929944038391,0.0,0.8723114939157597,0.8723114939157597,0.157379150390625,9.822432099350964,0.10172997722525737,F
30.7141418,76.7098761,Road Bump,2.0635855,1.5096729,0.5,4,0.072509765625,0.14547187089920044,-0.3756553512394296,1.3757236474556773,1.3757236474556773,0.818995475769043,11.63150783518807,0.3569451801583906,F
30.714543199999998,76.7095368,Road Bump,7.7921834,4.792793,0.5,3,0.031070709228515625,0.5810237526893616,0.0,5.194788960811653,5.194788960811653,2.6847686767578125,11.924961405302488,0.12376600255088031,F
30.7148401,76.70928876666666,Road Bump,1.7767363,1.2065372,0.5,3,0.03107452392578125,0.15179595351219177,0.0,1.1844908336903206,1.1844908336903206,1.5700597763061523,12.405952305028727,0.1297345733512871,F
30.7156518,76.7086049,Road Bump,4.724719,2.778466,0.5,2,0.02071380615234375,0.06656995415687561,0.0,3.149812704254714,3.149812704254714,1.6089808940887451,10.240105923407617,0.1060735648965226,F
30.7165741,76.7080495,Road Bump,4.9384313,4.625941,0.5,3,0.04146575927734375,0.5011525750160217,0.0,3.2922874843126326,3.2922874843126326,2.580388069152832,4.645294071539577,0.09692727424953615,F
30.7168105,76.7084073,Road Bump,6.739885,5.502644,0.5,2,0.020721435546875,0.20381079614162445,0.0,4.4932566433795085,4.4932566433795085,2.2852816581726074,8.781691096762636,0.09112409384204315,F
30.7170059,76.7087154,Road Bump,10.0,4.9973626,0.5,3,0.04144287109375,0.5949704051017761,-0.42069184930113046,11.982954989523105,11.982954989523105,3.677145004272461,9.302829361578835,0.1929226133352032,F
30.7179287,76.71018583333334,Road Bump,3.7994058,2.1876605,0.5,3,0.0310821533203125,0.37273627519607544,0.0,2.5329371748569116,2.5329371748569116,1.5062973499298096,10.339048932543859,0.10929820132238238,F
30.718222100000002,76.7106623,Road Bump,10.0,5.230243,0.5,3,0.0310821533203125,1.2597706317901611,0.0,14.04895170057364,14.04895170057364,0.6082661747932434,6.006528938139854,0.06303645410795218,F
30.718708933333335,76.71145928333334,Road Bump,10.0,6.8846507,0.5,6,0.0828399658203125,0.4423637390136719,-0.3687629083137063,9.528009995911281,9.528009995911281,3.449697256088257,10.312638495753623,0.32452707523232965,F
30.7188994,76.7117624,Road Bump,3.4344418,3.4344418,0.5,1,0.0103607177734375,0.10661180317401886,0.0,2.2896278586302508,2.2896278586302508,0.3637940287590027,10.537806746934722,0.10917924165601618,F
30.7192755,76.7123546,Road Bump,6.659821,5.1189356,0.5,2,0.0310821533203125,0.21901969611644745,-0.026322053411826474,4.4398805424843815,4.4398805424843815,0.885841965675354,9.089353524853166,0.1864670739287771,F
30.7104967625,76.71289547500001,Rough Patch,1.6217164,0.90085936,0.3,8,0.165679931640625,0.11121754348278046,-2.0271454542391476,1.9661904535809303,2.0271454542391476,1.1932604312896729,5.425086800716946,0.1832556363709936,F
30.7136735,76.7102653,Rough Patch,0.590207,0.590207,0.3,1,0.02071380615234375,0.27336204051971436,-0.7377587333302724,2.171233787150257,2.171233787150257,0.8151063919067383,7.626681144945687,0.15797759482214005,F
30.714161190909092,76.70985968181819,Rough Patch,1.5096955,0.83380604,0.3,11,0.31072235107421875,0.21980515122413635,-1.8871194443764434,3.517779845043556,3.517779845043556,1.3688361644744873,11.720203872736896,0.482664201569644,F
30.718677985714287,76.7114100142857,Rough Patch,1.9822186,1.2045505,0.3,7,0.093231201171875,0.2144964039325714,-2.477773284539917,12.346399289594373,12.346399289594373,3.9885294437408447,9.870829009833288,0.22628572018840434,F
