time,seconds_elapsed,z,y,x
1773049158766042000,0.2450419921875,0,0,0
1773049158795992000,0.274991943359375,4.254439353942871,-0.7123293876647949,-1.1601475477218628
1773049158815849000,0.294848876953125,1.256932258605957,1.457695722579956,0.08635824918746948
1773049158825729000,0.30472900390625,0.9819717407226562,0.6713099479675293,-0.00529170036315918
1773049158835879400,0.31487939453125,-4.118655204772949,-0.2971987724304199,-0.2368161976337433
1773049158845933300,0.324933349609375,0.35845184326171875,-0.7615211606025696,-0.14233613014221191
1773049158855835400,0.33483544921875,2.9377317428588867,-0.6049429774284363,-0.038800835609436035
1773049158865827800,0.344827880859375,-1.7819266319274902,0.7465319037437439,0.6701221466064453
1773049158875789800,0.354789794921875,2.8576536178588867,1.33848237991333,-0.08597886562347412
1773049158885770000,0.36477001953125,-1.4750595092773438,-0.07073986530303955,-0.22616997361183167
1773049158895650000,0.374650146484375,-3.5523300170898438,-0.3032322824001312,-0.2010660469532013
1773049158905529900,0.38452978515625,3.2906646728515625,-0.5593714714050293,-0.40704378485679626
1773049158915465200,0.39446533203125,0.2105560302734375,0.40192168951034546,-0.34536728262901306
1773049158925423900,0.404423828125,-0.16561126708984375,0.9072738289833069,0.6162480711936951
1773049158935604000,0.41460400390625,0.9877691268920898,0.31698405742645264,0.831516444683075
1773049158945717200,0.42471728515625,-2.2772774696350098,-0.43452417850494385,-0.3005515933036804
1773049158955597300,0.434597412109375,0.39922046661376953,-0.35700294375419617,-0.8374375104904175
1773049158965477400,0.444477294921875,1.3145017623901367,0.2958142161369324,-0.1735093891620636
1773049158975558000,0.454557861328125,-0.34113311767578125,0.7734875679016113,-0.1817188560962677
1773049158985614600,0.464614501953125,0.8746633529663086,0.3474789261817932,0.6058973073959351
1773049158995494700,0.47449462890625,-1.961869716644287,-0.4474359154701233,0.3410162329673767
1773049159005374700,0.484374755859375,0.7187061309814453,0.1013963520526886,-0.9850937128067017
1773049159015235300,0.4942353515625,0.29557323455810547,0.27938029170036316,0.29264500737190247
1773049159025197000,0.504197021484375,-0.2832212448120117,0.15265688300132751,0.4671732485294342
1773049159035377200,0.514377197265625,0.4151496887207031,-0.7615720629692078,-0.34958720207214355
1773049159045488000,0.524488037109375,-1.702622413635254,-0.28075364232063293,-0.46155044436454773
1773049159055368200,0.5343681640625,0.6591529846191406,0.7595162391662598,-0.05402880907058716
1773049159065248300,0.544248291015625,1.0502891540527344,0.5334755778312683,0.24659478664398193
1773049159075097600,0.55409765625,-0.5458049774169922,-0.5030211806297302,0.762691855430603
1773049159085059800,0.564059814453125,0.1021432876586914,-0.926182746887207,-0.27317100763320923
1773049159095051500,0.574051513671875,-0.9692831039428711,0.19523930549621582,-0.7879059314727783
1773049159105016600,0.5840166015625,1.2913408279418945,0.8489700555801392,0.0321902334690094
1773049159115005400,0.59400537109375,0.8451433181762695,-0.14172308146953583,-0.4366949200630188
1773049159124973000,0.60397314453125,-1.1203012466430664,-0.8759093284606934,-0.11994537711143494
1773049159135153000,0.61415283203125,-1.0255393981933594,-0.09012147784233093,-0.36154353618621826
1773049159145185300,0.624185302734375,0.7271890640258789,0.5956740379333496,0.3284568190574646
1773049159155065300,0.6340654296875,1.068730354309082,0.41037580370903015,-0.027299076318740845
1773049159164880400,0.64388037109375,-0.2655963897705078,-0.4828373193740845,-0.34903255105018616
1773049159174867500,0.653867431640625,-0.6519565582275391,-0.8063914775848389,0.0888780951499939
1773049159184836400,0.66383642578125,0.11163616180419922,0.18644270300865173,-0.6506365537643433
1773049159195016400,0.674016357421875,0.24479007720947266,0.7262289524078369,0.11131134629249573
1773049159205048600,0.684048583984375,0.5293560028076172,0.22202599048614502,0.4671148657798767
1773049159214928600,0.6939287109375,-0.3533802032470703,-0.9412269592285156,0.34068161249160767
1773049159224743200,0.7037431640625,-1.5687227249145508,0.18310987949371338,-0.6316062808036804
1773049159234923300,0.71392333984375,0.40534114837646484,0.8628584146499634,-0.05643981695175171
1773049159244955600,0.72395556640625,1.461568832397461,0.3743212819099426,0.6278146505355835
1773049159254835700,0.733835693359375,0.015271186828613281,-0.7766208648681641,-0.139104962348938
1773049159264650800,0.743650634765625,-1.8016180992126465,0.0008036494255065918,-0.48893794417381287
1773049159274637800,0.753637939453125,-0.0010623931884765625,0.730530858039856,0.4412137567996979
1773049159284606700,0.763606689453125,2.1363754272460938,0.1776847243309021,0.6747670769691467
1773049159294591700,0.773591796875,-0.7323637008666992,-0.6365500092506409,0.2786819636821747
1773049159304562200,0.783562255859375,-1.6073570251464844,0.011868476867675781,-0.42874205112457275
1773049159314545700,0.793545654296875,0.04859447479248047,0.640063464641571,0.18127551674842834
1773049159324517600,0.803517578125,1.2331056594848633,0.4800081253051758,0.5409082770347595
1773049159334697500,0.813697509765625,0.5198860168457031,-0.672002911567688,0.7287356853485107
1773049159344729300,0.823729248046875,-1.4187984466552734,-0.8038952350616455,-0.45489728450775146
1773049159354609200,0.833609130859375,-1.0838384628295898,0.4764234721660614,-0.23222479224205017
1773049159364489200,0.8434892578125,1.411128044128418,0.7894284725189209,0.3628618121147156
1773049159374292000,0.8532919921875,1.4774398803710938,-0.032568395137786865,0.33096858859062195
1773049159384252000,0.863251953125,-2.19795560836792,-0.700401246547699,-0.04569324851036072
1773049159394432000,0.873431884765625,-1.7345314025878906,0.424061119556427,-0.05337399244308472
1773049159404594200,0.88359423828125,1.8188581466674805,0.8570243120193481,0.005263090133666992
1773049159414549000,0.893549072265625,2.172905921936035,-0.5451907515525818,0.05267477035522461
1773049159424544000,0.9035439453125,-1.774709701538086,-0.6197864413261414,-0.7915794849395752
1773049159434503200,0.913503173828125,-1.752859115600586,0.5865405797958374,-0.5715453624725342
1773049159444494300,0.923494384765625,2.519245147705078,0.7383590936660767,0.10514464974403381
1773049159454457300,0.933457275390625,1.5719594955444336,-0.5754686594009399,0.26708269119262695
1773049159464445700,0.94344580078125,-1.5040369033813477,-0.6368860602378845,-0.3256379961967468
1773049159474325800,0.95332568359375,-1.8088421821594238,0.4097965955734253,-0.4209845960140228
1773049159484141600,0.9631416015625,1.3849525451660156,0.9236336946487427,-0.09036001563072205
1773049159494321700,0.97332177734375,1.2381820678710938,0.21425482630729675,0.2117268443107605
1773049159504355000,0.98335498046875,-0.8245267868041992,-0.7266881465911865,-0.2603053152561188
1773049159514319600,0.993319580078125,-2.0938754081726074,0.21880072355270386,-0.4594183564186096
1773049159524306700,1.003306640625,0.6510801315307617,0.979762852191925,-0.15814092755317688
1773049159534273800,1.013273681640625,3.384185791015625,0.23792219161987305,0.5448206067085266
1773049159544258800,1.0232587890625,-0.7903566360473633,-0.5114038586616516,-0.279333233833313
1773049159554138600,1.033138671875,-2.5814976692199707,0.45842280983924866,-0.4705706536769867
1773049159563955500,1.04295556640625,1.304605484008789,0.9452191591262817,-0.27837690711021423
1773049159574135300,1.05313525390625,1.8654556274414062,0.3871253430843353,0.4626937806606293
1773049159584169200,1.063169189453125,-0.7352657318115234,-0.5169306993484497,0.27340278029441833
1773049159594135800,1.0731357421875,-1.7955989837646484,0.15948009490966797,-0.5702173709869385
1773049159604121000,1.08312109375,0.05249977111816406,0.8756639361381531,-0.24441009759902954
1773049159614090000,1.093090087890625,2.3945579528808594,0.8941219449043274,0.17067253589630127
1773049159624073700,1.10307373046875,0.6202383041381836,-0.36810001730918884,0.8852981925010681
1773049159634044200,1.113044189453125,-2.350040912628174,-0.44697341322898865,-0.5524613261222839
1773049159644026400,1.1230263671875,-0.9122495651245117,0.7649011611938477,-0.4091971218585968
1773049159663979500,1.1429794921875,0.61883544921875,0.6351918578147888,0.11036479473114014
1773049159673952300,1.1529521484375,-2.7410378456115723,0.11091268062591553,-0.01216098666191101
1773049159683932700,1.1629326171875,-0.7504997253417969,0.6059120297431946,-0.43191710114479065
1773049159693906400,1.172906494140625,1.9864578247070312,1.0077807903289795,-0.20927394926548004
1773049159703886000,1.182885986328125,0.904353141784668,0.6955540776252747,0.7653595209121704
1773049159713860600,1.192860595703125,-1.426992416381836,0.115212082862854,0.6586731672286987
1773049159723839700,1.20283984375,-0.26987457275390625,0.25638681650161743,-0.9850050210952759
1773049159733814800,1.212814697265625,0.3538932800292969,0.7971512675285339,-0.23652201890945435
1773049159743793400,1.22279345703125,1.1229724884033203,0.8240070343017578,-0.01774466037750244
1773049159753768700,1.232768798828125,-0.4669179916381836,0.13117796182632446,1.3090434074401855
1773049159763747000,1.2427470703125,-2.5764527320861816,-0.015496432781219482,-0.4764481782913208
1773049159773723000,1.252722900390625,2.9253711700439453,0.1704285740852356,0.11593380570411682
1773049159783701000,1.262700927734375,-0.029068946838378906,0.2819199562072754,0.6716107726097107
1773049159793676800,1.2726767578125,0.0713033676147461,0.5511953830718994,0.3121349811553955
1773049159803654700,1.282654541015625,-0.8120079040527344,-0.0075266361236572266,-0.41196805238723755
1773049159813631000,1.292630859375,-1.6769523620605469,-0.002852141857147217,-0.0980212390422821
1773049159823608600,1.302608642578125,2.243147850036621,0.41741853952407837,0.4695907235145569
1773049159833585200,1.312585205078125,0.5329484939575195,0.3457466959953308,-0.3957415819168091
1773049159843562800,1.322562744140625,-1.393101692199707,-0.11399656534194946,0.043168723583221436
1773049159853539000,1.3325390625,0.5122766494750977,-1.2507219314575195,0.3791896402835846
1773049159863516700,1.3425166015625,-1.57550048828125,-0.30205410718917847,0.43891584873199463
1773049159873493200,1.3524931640625,1.0445947647094727,0.12281382083892822,0.7204951643943787
1773049159883470600,1.362470703125,1.660512924194336,-0.7540501356124878,-1.2075436115264893
1773049159893447400,1.372447509765625,-3.6366586685180664,-0.059092938899993896,-0.7205666303634644
1773049159903424800,1.3824248046875,1.2513341903686523,-0.05046147108078003,-0.30419105291366577
1773049159913401300,1.3924013671875,1.7234230041503906,-0.6501460671424866,-0.45611926913261414
1773049159923378700,1.402378662109375,-1.8369898796081543,0.08346551656723022,0.17503342032432556
1773049159933355500,1.41235546875,0.05462837219238281,-0.7475619912147522,-0.0038427114486694336
1773049159943332900,1.422332763671875,-0.3411226272583008,-1.0398797988891602,-0.02329874038696289
1773049159953309400,1.432309326171875,0.4789438247680664,-0.4526973366737366,0.3475656509399414
1773049159963286800,1.442286865234375,0.6886234283447266,-0.18311548233032227,-0.5131804943084717
1773049159973263600,1.452263671875,-0.39667701721191406,-0.3076118528842926,-0.3618352711200714
1773049159983240700,1.46224072265625,-0.6734905242919922,-0.4574281573295593,-0.7235738039016724
1773049159993217800,1.4722177734375,-1.256850242614746,-0.39157867431640625,-0.2664334774017334
1773049160003195000,1.48219482421875,1.5692110061645508,-0.24053314328193665,0.2846892476081848
1773049160013171700,1.492171630859375,0.33666324615478516,-0.40619105100631714,0.07961204648017883
1773049160023148800,1.502148681640625,-0.9003067016601562,-0.1499641239643097,-0.39672696590423584
1773049160033126000,1.5121259765625,0.09900665283203125,-0.5380743741989136,-0.45099934935569763
1773049160043103000,1.52210302734375,1.2283964157104492,-0.08819547295570374,-0.11386370658874512
1773049160053080000,1.532080078125,-0.021240234375,0.025521457195281982,0.5733742713928223
1773049160063057200,1.54205712890625,0.6484785079956055,-0.4143823981285095,0.11124864220619202
1773049160073034000,1.552033935546875,-1.7654285430908203,-0.1210680902004242,-0.9242166876792908
1773049160083011000,1.562010986328125,0.05908966064453125,0.3609240651130676,0.03810730576515198
1773049160092988200,1.57198828125,2.244504928588867,-0.16188010573387146,0.5042357444763184
1773049160102965200,1.58196533203125,-0.5047168731689453,0.043324410915374756,-0.7328307628631592
1773049160112942300,1.5919423828125,-1.6559314727783203,0.35028761625289917,-0.18110081553459167
1773049160122919400,1.60191943359375,1.22650146484375,-0.25002145767211914,-0.016518443822860718
1773049160132896300,1.611896240234375,1.9216794967651367,-0.18506589531898499,-0.31974151730537415
1773049160142873300,1.621873291015625,-1.8423371315002441,0.40937095880508423,-0.2079428881406784
1773049160152850400,1.631850341796875,-0.37445831298828125,-0.010058492422103882,0.4871532618999481
1773049160162827500,1.64182763671875,0.6078119277954102,-0.07030916213989258,0.18320736289024353
1773049160172804600,1.6518046875,0.028455734252929688,0.3014296293258667,0.1146649420261383
1773049160182781700,1.66178173828125,0.34173107147216797,0.11050540208816528,-0.7213495969772339
1773049160192758800,1.6717587890625,-1.7765789031982422,-0.1719350814819336,0.07237699627876282
1773049160202735600,1.681735595703125,0.3758869171142578,0.0950501561164856,0.11816179752349854
1773049160212712700,1.691712646484375,1.4578619003295898,0.12011894583702087,-0.1950538158416748
1773049160222689800,1.701689697265625,0.0739736557006836,0.028218895196914673,0.9622317552566528
1773049160232667000,1.7116669921875,-1.5576801300048828,-0.2918540835380554,0.7822374701499939
1773049160242644000,1.72164404296875,0.06568717956542969,-0.06878829002380371,-1.0818226337432861
1773049160252621000,1.73162109375,-0.1485891342163086,0.10101935267448425,-0.006540745496749878
1773049160262598100,1.74159814453125,0.1996440887451172,-0.09344479441642761,0.7960612773895264
1773049160272575200,1.7515751953125,-1.3565559387207031,-0.3170403838157654,-0.46746888756752014
1773049160282552000,1.761552001953125,-0.2771587371826172,-0.5767080187797546,-1.0482827425003052
1773049160292529200,1.771529052734375,0.8425436019897461,-0.5584985613822937,0.8295211791992188
1773049160302506200,1.78150634765625,-0.7084217071533203,-0.491723895072937,-0.20870167016983032
1773049160312483300,1.7914833984375,-0.19444847106933594,-0.6731500625610352,-0.48664477467536926
1773049160322460400,1.80146044921875,1.0294761657714844,-0.6056541800498962,0.8539568185806274
1773049160332437500,1.8114375,1.7847909927368164,-0.0648157000541687,-0.5648654699325562
1773049160342414300,1.821414306640625,-0.8056564331054688,-0.47966131567955017,-0.2938358187675476
1773049160352391400,1.831391357421875,-1.5289974212646484,-0.31923988461494446,1.2797021865844727
1773049160362368500,1.841368408203125,0.4701404571533203,-0.31667134165763855,0.05233675241470337
1773049160372248600,1.85124853515625,0.6717767715454102,-0.08238393068313599,-0.4542558491230011
1773049160382109400,1.861109375,-1.5880670547485352,0.38275712728500366,-0.3172420859336853
1773049160392299500,1.871299560546875,0.4015045166015625,0.23225155472755432,0.954809308052063
1773049160402281000,1.881281005859375,2.9872913360595703,-0.4386848211288452,0.10314929485321045
1773049160412253700,1.891253662109375,-2.1134915351867676,0.17590674757957458,-0.04131275415420532
1773049160422234000,1.901234130859375,-0.45836925506591797,0.13723385334014893,1.0130829811096191
1773049160432169000,1.9111689453125,2.799006462097168,-0.14822083711624146,-0.07673537731170654
1773049160442144800,1.921144775390625,0.8790321350097656,-0.37854379415512085,0.5336434841156006
1773049160452162000,1.931162109375,-2.038971424102783,0.18162307143211365,-0.5494452118873596
1773049160462142000,1.941141845703125,0.5713996887207031,-0.33303654193878174,1.8044341802597046
1773049160471960800,1.9509609375,1.95819091796875,-0.10663476586341858,0.45505672693252563
1773049160481924900,1.9609248046875,-1.894153118133545,0.4079550802707672,-1.0536234378814697
1773049160492031200,1.97103125,-0.4316558837890625,0.6001784801483154,-0.09597170352935791
1773049160502009600,1.981009521484375,2.198202133178711,0.44929373264312744,-0.006177842617034912
1773049160511985400,1.9909853515625,0.2914276123046875,-0.29430368542671204,0.8605532050132751
1773049160521963500,2.000963623046875,-2.8859686851501465,-0.21620209515094757,1.1215646266937256
1773049160531939600,2.010939697265625,-0.14174365997314453,-0.073758065700531,0.7558797597885132
1773049160541917400,2.02091748046875,1.5159730911254883,-0.14990916848182678,0.6060048341751099
1773049160561914000,2.0409140625,-2.1660990715026855,0.07220566272735596,-0.7930785417556763
1773049160571847700,2.05084765625,-0.2492074966430664,-0.1644515097141266,1.8348854780197144
1773049160581824500,2.060824462890625,1.0612459182739258,-0.6864997148513794,1.3811538219451904
1773049160591801900,2.0708017578125,-2.95396089553833,-0.35861173272132874,-1.6926333904266357
1773049160601778700,2.08077880859375,-0.4895954132080078,-0.19591349363327026,-0.9049950838088989
1773049160611717000,2.090717041015625,1.7838964462280273,-0.7995972633361816,-0.015831351280212402
1773049160621690000,2.100690185546875,-0.9586210250854492,-0.5209189653396606,-0.7900315523147583
1773049160631593700,2.11059375,-1.3476371765136719,-0.5859431028366089,-0.7524341344833374
1773049160641559800,2.120559814453125,0.8061447143554688,-0.5315194725990295,0.232158362865448
1773049160651509000,2.130509033203125,1.5063152313232422,-0.5401353240013123,-0.5998868942260742
1773049160661473300,2.140473388671875,-1.6683759689331055,-0.22598570585250854,-0.16597968339920044
1773049160671501600,2.15050146484375,-0.6367826461791992,-0.35096868872642517,-0.7685351371765137
1773049160681472500,2.160472412109375,0.3273773193359375,-0.6328741312026978,-0.31108900904655457
1773049160691339500,2.170339599609375,-1.2407121658325195,-0.40793830156326294,0.30550944805145264
1773049160701300000,2.180300048828125,-1.019378662109375,-0.5115658044815063,0.029156863689422607
1773049160711254800,2.1902548828125,1.6912612915039062,0.17632922530174255,0.3604433536529541
1773049160721214700,2.200214599609375,1.1299753189086914,-0.7082237005233765,1.0869715213775635
1773049160731170000,2.210170166015625,0.46654796600341797,-0.955167293548584,0.14958029985427856
1773049160741129500,2.22012939453125,-0.38481807708740234,-0.2678911089897156,-0.6547940969467163
1773049160751085300,2.230085205078125,1.1316719055175781,-0.11355984210968018,-0.3188340663909912
1773049160761044200,2.240044189453125,-1.1419849395751953,-0.46567681431770325,0.25154826045036316
1773049160770924300,2.24992431640625,0.15061283111572266,-0.5193370580673218,-0.39711621403694153
1773049160780747300,2.259747314453125,0.8318653106689453,0.08165845274925232,-0.5138914585113525
1773049160790915300,2.269915283203125,-0.005934715270996094,0.016767412424087524,1.8559890985488892
1773049160800878000,2.279878173828125,1.3420639038085938,-0.6280527114868164,0.2521812915802002
1773049160810792200,2.289792236328125,-1.3140783309936523,-0.36465755105018616,-1.1783000230789185
1773049160820750000,2.29975,-1.2835912704467773,0.686852216720581,-0.23866799473762512
1773049160830630000,2.3096298828125,2.6820755004882812,0.07039156556129456,0.6330851316452026
1773049160840510000,2.319510009765625,0.9491958618164062,-0.8946352601051331,-0.586966872215271
1773049160850390000,2.32939013671875,-1.874436855316162,-0.055352210998535156,-1.0389857292175293
1773049160860270000,2.33927001953125,2.013742446899414,-0.006699204444885254,0.5555015206336975
1773049160870450000,2.349449951171875,2.550917625427246,-1.1010489463806152,1.0969295501708984
1773049160880630000,2.359630126953125,-3.316610336303711,-0.1677248775959015,-1.1191591024398804
1773049160890809900,2.369809814453125,-0.20722675323486328,0.435513436794281,-0.6896203756332397
1773049160900854000,2.37985400390625,3.5087718963623047,-0.5654503107070923,0.016424864530563354
1773049160910873000,2.389873046875,-2.8213934898376465,-0.609255313873291,-0.4868793785572052
1773049160920845300,2.39984521484375,-2.77225923538208,0.4744918942451477,-0.3095993101596832
1773049160930866000,2.409865966796875,3.716583251953125,-0.3155944347381592,0.27282023429870605
1773049160940843000,2.419843017578125,1.7353153228759766,-0.9696027040481567,-0.16934925317764282
1773049160950781400,2.429781494140625,-2.3645424842834473,-0.4664572477340698,0.2769664525985718
1773049160960754400,2.43975439453125,0.37193965911865234,-0.519108772277832,0.10481303930282593
1773049160970735400,2.4497353515625,2.3609275817871094,-0.8512146472930908,1.1059281826019287
1773049160980709400,2.45970947265625,-2.1957030296325684,-0.7871092557907104,0.8431541323661804
1773049160990689500,2.469689453125,-1.4748764038085938,0.054788798093795776,-1.2099864482879639
1773049161000664000,2.4796640625,0.8228588104248047,-0.02031657099723816,0.15632593631744385
1773049161010643700,2.489643798828125,-0.5245800018310547,-0.8049666881561279,2.961761236190796
1773049161020618500,2.499618408203125,-1.922131061553955,-0.3750185966491699,-1.216858148574829
1773049161030597600,2.50959765625,-1.8237195014953613,0.009261399507522583,-0.8494603633880615
1773049161040573200,2.5195732421875,1.5062713623046875,-0.1759885847568512,0.49175965785980225
1773049161050590700,2.5295908203125,0.40956974029541016,-0.5196077823638916,-0.49372348189353943
1773049161060570400,2.5395703125,-1.8078951835632324,-0.31895676255226135,0.1533796787261963
1773049161070544600,2.549544677734375,-0.37549877166748047,0.07055088877677917,0.29767221212387085
1773049161080523800,2.559523681640625,2.672430992126465,-0.3539976477622986,0.08728718757629395
1773049161090498800,2.569498779296875,-2.2212986946105957,-0.6446426510810852,1.1499876976013184
1773049161100477400,2.5794775390625,-1.8783173561096191,0.20098876953125,0.09099674224853516
1773049161110453000,2.589452880859375,2.291391372680664,-0.12920160591602325,-1.0592403411865234
1773049161120431400,2.599431396484375,-0.8040714263916016,-0.4967554211616516,0.009783923625946045
1773049161130407200,2.6094072265625,-1.5769462585449219,-0.051887065172195435,-0.2332683503627777
1773049161140385300,2.61938525390625,0.686065673828125,0.08342334628105164,0.47082430124282837
1773049161150361300,2.629361328125,1.4451427459716797,-0.5078612565994263,1.1119579076766968
1773049161160339200,2.639339111328125,0.007839202880859375,-0.24589866399765015,-1.366029977798462
1773049161170315300,2.649315185546875,-0.8357934951782227,0.09699612855911255,-0.06720739603042603
1773049161180293000,2.659293212890625,0.7074527740478516,-0.49374920129776,1.9768335819244385
1773049161190337300,2.669337158203125,1.9290390014648438,-0.8438711166381836,0.49617141485214233
1773049161200321800,2.67932177734375,-0.7058496475219727,0.17117321491241455,-1.393024206161499
1773049161210223600,2.6892236328125,-0.8691616058349609,0.15565994381904602,0.4250403046607971
1773049161220200000,2.699199951171875,0.7689123153686523,-0.14789384603500366,-0.40425431728363037
1773049161230177800,2.709177734375,-1.5951347351074219,-0.1625550091266632,-0.17640173435211182
1773049161240154000,2.719154052734375,0.58740234375,-0.21412046253681183,2.049527168273926
1773049161250132000,2.729132080078125,-0.04511451721191406,0.21997326612472534,-0.7017577290534973
1773049161260108500,2.739108642578125,-0.1611156463623047,0.12221622467041016,0.07102733850479126
1773049161270086100,2.749086181640625,0.36423492431640625,0.08344981074333191,-0.26919999718666077
1773049161280062700,2.759062744140625,0.7219972610473633,0.3571633994579315,-0.049378156661987305
1773049161290040000,2.7690400390625,-0.6540737152099609,0.29227012395858765,0.1901109218597412
1773049161300017000,2.779016845703125,1.6613149642944336,0.63102126121521,-0.4906925857067108
1773049161309994200,2.788994140625,0.1422262191772461,-0.22726424038410187,-0.03536039590835571
1773049161319971000,2.79897119140625,-1.6188735961914062,0.32617831230163574,-0.0371474027633667
1773049161329948400,2.808948486328125,0.8722591400146484,1.0672976970672607,-0.49131545424461365
1773049161339925200,2.81892529296875,1.5408868789672852,0.863129734992981,0.0201529860496521
1773049161349902600,2.828902587890625,-1.308028221130371,0.38970208168029785,0.0725138783454895
1773049161359879400,2.83887939453125,0.6349573135375977,0.8436862826347351,-0.44660821557044983
1773049161369856800,2.848856689453125,0.4613494873046875,0.7505335807800293,-0.1273728609085083
1773049161379833600,2.85883349609375,1.5274076461791992,0.7807786464691162,0.7066202759742737
1773049161389810700,2.868810791015625,-0.41973400115966797,0.8060364723205566,-0.44454219937324524
1773049161399787800,2.878787841796875,0.3315000534057617,0.9966132044792175,-0.5140036344528198
1773049161409764900,2.888764892578125,0.12909793853759766,0.8276571035385132,-0.17058417201042175
1773049161419742000,2.898741943359375,-1.5889673233032227,0.5472352504730225,-0.24170610308647156
1773049161429719000,2.908718994140625,2.5642051696777344,1.1727594137191772,0.5069534182548523
1773049161439696100,2.918696044921875,-1.5281124114990234,0.6077823638916016,0.23424941301345825
1773049161449673200,2.928673095703125,-1.3412342071533203,0.49776822328567505,0.7186001539230347
1773049161459650000,2.938650146484375,0.5245361328125,0.9352437257766724,-0.48315516114234924
1773049161469627400,2.94862744140625,0.45635318756103516,0.8950711488723755,-0.2647492587566376
1773049161479604200,2.958604248046875,-0.7043428421020508,0.6991280317306519,-0.35809820890426636
1773049161489581300,2.968581298828125,-0.4577951431274414,0.8271872997283936,-0.47557082772254944
1773049161499558400,2.978558349609375,0.7090311050415039,0.8963983058929443,-0.13044345378875732
1773049161509535500,2.988535400390625,0.5830841064453125,0.8155601024627686,-0.29287293553352356
1773049161519512600,2.9985126953125,-3.421597480773926,0.26257041096687317,-0.5929508805274963
1773049161529489700,3.00848974609375,1.1475954055786133,0.9470868110656738,-0.043685317039489746
1773049161539466800,3.018466796875,1.314558982849121,0.5101487636566162,0.07239741086959839
1773049161549443800,3.02844384765625,-1.5766353607177734,-0.04586002230644226,-0.07671922445297241
1773049161559421000,3.0384208984375,0.21005630493164062,0.7445300817489624,-0.3836221694946289
1773049161569398000,3.04839794921875,0.39522743225097656,0.041476309299468994,0.40694016218185425
1773049161579374800,3.058374755859375,1.5908946990966797,-0.5867962837219238,2.4469852447509766
1773049161589313300,3.068313232421875,-1.6010818481445312,0.02665618062019348,-0.698792040348053
1773049161599286300,3.078286376953125,-0.9648370742797852,0.4445611536502838,-0.6459662318229675
1773049161609306000,3.08830615234375,0.20093441009521484,0.03674325346946716,0.49005764722824097
1773049161619284000,3.098283935546875,0.6434087753295898,0.21074050664901733,-0.10420677065849304
1773049161629260300,3.10826025390625,-0.7739849090576172,0.161739319562912,0.4221619963645935
1773049161639238000,3.11823779296875,-0.9236297607421875,0.21376562118530273,0.907496452331543
1773049161649214200,3.128214111328125,1.7931509017944336,0.6903243064880371,-0.7733263969421387
1773049161659191800,3.13819189453125,0.8656072616577148,-0.03635486960411072,0.24166381359100342
1773049161669168400,3.14816845703125,-1.918262004852295,0.33209285140037537,-0.5273526906967163
1773049161679146000,3.15814599609375,0.7799310684204102,0.6325827836990356,0.062259674072265625
1773049161689122600,3.16812255859375,0.6564779281616211,0.12162303924560547,0.21511352062225342
1773049161699100000,3.178099853515625,0.10618019104003906,0.39790576696395874,-0.3634762465953827
1773049161709076700,3.18807666015625,-0.4029827117919922,0.5496071577072144,0.19568532705307007
1773049161719054000,3.19805419921875,1.744706153869629,0.6422791481018066,0.32461148500442505
1773049161729031000,3.208031005859375,0.28591346740722656,0.15283721685409546,0.6268109083175659
1773049161739008000,3.218008056640625,1.1780614852905273,0.6341266632080078,0.7707027792930603
1773049161748984800,3.22798486328125,-0.02746105194091797,0.7096642255783081,-0.5066882371902466
1773049161758962200,3.237962158203125,-1.0400667190551758,0.3874206840991974,-0.16012686491012573
1773049161768939000,3.24793896484375,-0.5836181640625,0.4198489189147949,-0.24807780981063843
1773049161778916400,3.257916259765625,1.8971424102783203,0.8700939416885376,0.8555048108100891
1773049161788893200,3.26789306640625,-0.24187660217285156,0.6110485792160034,0.3927875757217407
1773049161798870300,3.277870361328125,-1.354161262512207,0.44032004475593567,-0.46983981132507324
1773049161808847400,3.287847412109375,1.8430862426757812,0.7942382097244263,0.07899880409240723
1773049161818824400,3.297824462890625,-0.8203659057617188,0.5523578524589539,-0.1900559663772583
1773049161828801500,3.307801513671875,-1.2986774444580078,0.5820145010948181,-0.18134203553199768
1773049161838778600,3.317778564453125,0.9916973114013672,0.8208016753196716,-0.13490182161331177
1773049161848755500,3.32775537109375,0.9122934341430664,0.5323836803436279,1.5369818210601807
1773049161858732500,3.337732666015625,-0.26860809326171875,0.3508809208869934,1.1137022972106934
1773049161868709600,3.347709716796875,-0.5151910781860352,0.6680932641029358,-1.1448734998703003
1773049161878686700,3.357686767578125,1.3095483779907227,0.8685569167137146,-0.2772068381309509
1773049161888663800,3.367663818359375,0.32673168182373047,0.5852483510971069,-0.5184249877929688
1773049161898641000,3.377640869140625,-3.176568031311035,0.12087136507034302,-0.6750640273094177
1773049161908618000,3.387617919921875,0.5390033721923828,0.5539348721504211,-0.026835501194000244
1773049161918595000,3.397594970703125,1.3345146179199219,0.6520698666572571,-0.0036000609397888184
1773049161928572000,3.407572021484375,-0.02091217041015625,0.35682499408721924,-0.04827684164047241
1773049161938549000,3.417549072265625,-0.9177923202514648,0.2828691601753235,-0.12585973739624023
1773049161948526000,3.427526123046875,0.09769821166992188,0.4472997784614563,0.05635303258895874
1773049161958503200,3.437503173828125,0.4360933303833008,0.288512647151947,0.25492119789123535
1773049161968480300,3.447480224609375,-2.4152426719665527,0.13986057043075562,-0.4111272394657135
1773049161978457300,3.457457275390625,3.3885202407836914,0.7445486783981323,0.14609044790267944
1773049161988434400,3.467434326171875,-1.2122383117675781,0.21309906244277954,-0.021710634231567383
1773049161998411500,3.47741162109375,-1.9846453666687012,0.294183611869812,-0.3320808410644531
1773049162008388400,3.487388427734375,0.447967529296875,0.5849694609642029,-0.37106895446777344
1773049162018365400,3.497365478515625,-0.24472713470458984,0.3713681697845459,-0.3075631260871887
1773049162028342500,3.507342529296875,0.04349708557128906,0.3455742597579956,-0.15723830461502075
1773049162038319600,3.517319580078125,2.236233711242676,0.5794047117233276,-0.15659832954406738
1773049162048296700,3.527296630859375,2.518294334411621,0.6937831044197083,-0.23669379949569702
1773049162058273800,3.537273681640625,-2.3077712059020996,0.13937294483184814,-0.45327621698379517
1773049162068251000,3.5472509765625,1.05487060546875,0.5303226709365845,-0.2603999376296997
1773049162078228000,3.55722802734375,-0.5016098022460938,0.32723718881607056,-0.16909843683242798
1773049162088204800,3.567204833984375,-1.5513973236083984,0.23687660694122314,-0.4044794738292694
1773049162098182000,3.577181884765625,0.7442903518676758,0.550592303276062,0.08887791633605957
1773049162108159000,3.587158935546875,0.9042520523071289,1.8473045825958252,0.43413835763931274
1773049162118136000,3.597135986328125,-0.6549654006958008,0.40700674057006836,-0.932672917842865
1773049162128113200,3.607113037109375,1.549117088317871,0.48968231678009033,-0.7041586637496948
1773049162138090200,3.61709033203125,0.29438304901123047,0.5903486013412476,-0.789549708366394
1773049162148067300,3.6270673828125,-1.1798219680786133,0.4530538320541382,0.577621579170227
1773049162158044400,3.63704443359375,0.8613271713256836,0.6490276455879211,2.0213661193847656
1773049162168021500,3.647021484375,-1.319737434387207,0.18052595853805542,-1.1313574314117432
1773049162177998300,3.656998291015625,1.8467025756835938,1.1401619911193848,-1.1704890727996826
1773049162187975400,3.666975341796875,-0.9449195861816406,1.0284979343414307,0.5463675856590271
1773049162197952500,3.676952392578125,-2.468801975250244,0.15880930423736572,1.4542927742004395
1773049162207929600,3.6869296875,1.2540597915649414,0.6411465406417847,-0.08226591348648071
1773049162217906700,3.69690673828125,-0.6654987335205078,0.4661622643470764,-1.1879746913909912
1773049162227883800,3.7068837890625,-1.7814373970031738,0.6808401942253113,2.2600769996643066
1773049162237860900,3.71686083984375,2.3143577575683594,-0.5385968089103699,-1.3048590421676636
1773049162247838000,3.726837890625,-1.2581119537353516,-0.9893872737884521,-1.216797113418579
1773049162257814800,3.736814697265625,-1.8252348899841309,-0.5112594962120056,-0.4328274428844452
1773049162267792000,3.7467919921875,-1.815422534942627,-0.6160141825675964,2.4710566997528076
1773049162277769000,3.75676904296875,1.753814697265625,-1.3311924934387207,-0.3659082055091858
1773049162287746000,3.76674609375,-1.8517241477966309,-1.008030891418457,-1.6386735439300537
1773049162297723100,3.77672314453125,0.17819690704345703,-1.7909374237060547,2.8283166885375977
1773049162307700200,3.7867001953125,1.1355228424072266,-1.3012406826019287,-0.5308099985122681
1773049162317677300,3.79667724609375,-1.976393222808838,-0.7263725996017456,-1.3350951671600342
1773049162327654400,3.806654296875,2.3785295486450195,-1.5967367887496948,1.822420358657837
1773049162337631200,3.81663134765625,-1.7158727645874023,-1.0841091871261597,-0.07861071825027466
1773049162347608300,3.8266083984375,-0.09756278991699219,-1.1140568256378174,1.116292953491211
1773049162357585400,3.83658544921875,-0.5001630783081055,-1.1093178987503052,-1.3651082515716553
1773049162367562500,3.8465625,-1.4773988723754883,-1.1680082082748413,0.8107635974884033
1773049162377539600,3.85653955078125,0.7510700225830078,-1.053459644317627,-0.3184243440628052
1773049162387516700,3.8665166015625,-0.9373197555541992,-1.405256986618042,0.35256659984588623
1773049162397493800,3.87649365234375,-1.727269172668457,-1.2357068061828613,0.48440176248550415
1773049162407470600,3.886470703125,0.7693119049072266,-0.6827282905578613,-1.1395587921142578
1773049162417447700,3.89644775390625,3.8933792114257812,-1.236081600189209,1.6159334182739258
1773049162427424800,3.9064248046875,-1.0636186599731445,-1.1225426197052002,0.6090020537376404
1773049162437401900,3.91640185546875,-0.3832712173461914,-0.9865772128105164,-0.8590242862701416
1773049162447379000,3.92637890625,0.2663278579711914,-1.0386797189712524,-0.5954501628875732
1773049162457356000,3.93635595703125,0.11340713500976562,-1.9787192344665527,1.6299610137939453
1773049162467333000,3.9463330078125,0.10253620147705078,-1.5776524543762207,-0.31239378452301025
1773049162477310000,3.95631005859375,-0.7869091033935547,-0.6845762729644775,-1.7421984672546387
1773049162487287000,3.966287109375,1.0346431732177734,-0.6718651056289673,0.06745541095733643
1773049162497264000,3.97626416015625,1.5519590377807617,-1.7463786602020264,2.0403292179107666
1773049162507241200,3.9862412109375,-0.8352117538452148,-1.173939824104309,-0.5607929229736328
1773049162517218300,3.99621826171875,0.003040313720703125,-0.5640555620193481,-0.9802220463752747
1773049162527195400,4.0061953125,1.7978572845458984,-0.6459137201309204,0.38437938690185547
1773049162537172500,4.01617236328125,-0.5945358276367188,-1.5503597259521484,0.8142610788345337
1773049162547052500,4.026052490234375,-1.1428031921386719,-1.344520092010498,0.7249000072479248
1773049162556913700,4.03591357421875,2.9092721939086914,-1.017406940460205,-1.5858279466629028
1773049162567103500,4.046103515625,1.8990287780761719,-1.0846830606460571,-1.2013033628463745
1773049162577084700,4.056084716796875,-3.128424644470215,-1.5028760433197021,4.055410385131836
1773049162587252000,4.066251953125,-2.3276009559631348,-0.5475119352340698,-0.4723436236381531
1773049162597251800,4.076251953125,4.485256195068359,-0.5259608030319214,-1.884890079498291
1773049162607206100,4.0862060546875,1.3536062240600586,-0.8585820198059082,-1.6168951988220215
1773049162617201700,4.09620166015625,-4.713129043579102,-0.7075405120849609,-0.8257005214691162
1773049162627160300,4.106160400390625,0.9230690002441406,-0.9912291765213013,1.812058687210083
1773049162637152300,4.11615234375,4.65279483795166,-1.4743714332580566,1.7253427505493164
1773049162647032000,4.126031982421875,-3.527371406555176,-0.8843039870262146,-1.2706351280212402
1773049162656889900,4.135889892578125,-0.45534801483154297,-0.9852036237716675,-0.3560696840286255
1773049162667068700,4.146068603515625,2.6201047897338867,-1.6818029880523682,1.661994218826294
1773049162677059300,4.156059326171875,-0.046184539794921875,-0.7993943691253662,-1.3371095657348633
1773049162686939400,4.165939453125,-1.6745538711547852,-0.7138492465019226,-0.9742547273635864
1773049162696797400,4.17579736328125,0.10813426971435547,-0.7629936933517456,0.4329643249511719
1773049162706976800,4.185976806640625,0.0784006118774414,-1.330395221710205,1.1214560270309448
1773049162716967000,4.195966796875,-2.0098633766174316,-0.8317089080810547,-1.3963806629180908
1773049162726931000,4.205930908203125,1.1142463684082031,-1.150881052017212,0.3787916302680969
1773049162736918500,4.21591845703125,-0.32184696197509766,-1.1546764373779297,1.4552178382873535
1773049162746885000,4.225885009765625,-1.6810731887817383,-0.595329225063324,-1.091996192932129
1773049162756870700,4.23587060546875,1.6197786331176758,-0.916136622428894,-0.6178593635559082
1773049162766839300,4.24583935546875,-0.6818552017211914,-1.8534581661224365,3.281890392303467
1773049162776823000,4.255822998046875,-0.8995189666748047,-0.8885416388511658,-1.0765517950057983
1773049162786793500,4.26579345703125,0.9420919418334961,-0.4457642138004303,-1.855262279510498
1773049162796776000,4.27577587890625,1.3950424194335938,-0.8565541505813599,-0.6909958124160767
1773049162806747600,4.28574755859375,-2.743042469024658,-1.1024582386016846,2.242190361022949
1773049162816728800,4.295728759765625,-0.6064691543579102,-0.7782264947891235,-0.5053620934486389
1773049162826701800,4.305701904296875,1.094381332397461,-0.823128342628479,-1.7954646348953247
1773049162836682200,4.31568212890625,-0.9370393753051758,-1.097346544265747,0.4574170708656311
1773049162846655700,4.32565576171875,-1.3583717346191406,-1.3737844228744507,2.2150228023529053
1773049162856635600,4.3356357421875,-0.047575950622558594,-1.0019581317901611,-0.5982536673545837
1773049162866610000,4.34560986328125,0.7643728256225586,-1.1671816110610962,0.24368596076965332
1773049162876589300,4.35558935546875,-0.6939487457275391,-0.9289525151252747,0.14778226613998413
1773049162886564000,4.365564208984375,1.6476078033447266,-1.3871499300003052,1.5444910526275635
1773049162896543000,4.37554296875,-0.22008991241455078,-0.8558770418167114,-1.3662793636322021
1773049162906518300,4.385518310546875,-0.9447908401489258,-0.7908209562301636,-1.1511967182159424
1773049162916496600,4.39549658203125,1.0828027725219727,-1.1122585535049438,1.0738770961761475
1773049162926472200,4.40547216796875,-1.7756361961364746,-1.1724433898925781,1.1832611560821533
1773049162936450600,4.415450439453125,-1.9285645484924316,-0.724744439125061,-1.0912517309188843
1773049162946426400,4.42542626953125,-0.41533851623535156,-1.2956666946411133,1.0128238201141357
1773049162956404200,4.435404296875,0.3117198944091797,-0.9775829911231995,0.12201130390167236
1773049162966380500,4.445380615234375,1.7908973693847656,-1.2285962104797363,0.8504696488380432
1773049162976358400,4.4553583984375,-1.312962532043457,-1.1586476564407349,0.6740576028823853
1773049162986334700,4.465334716796875,0.6874008178710938,-0.6629302501678467,-1.3374990224838257
1773049162996312300,4.475312255859375,1.9120521545410156,-0.7590112090110779,-1.3836195468902588
1773049163006288600,4.48528857421875,-0.29376888275146484,-1.5255777835845947,4.244937896728516
1773049163016266200,4.495266357421875,-2.1358370780944824,-0.6844350695610046,-0.7168788909912109
1773049163026242800,4.505242919921875,-0.4931478500366211,-0.5015182495117188,-1.697080373764038
1773049163036220200,4.51522021484375,1.91510009765625,-0.6351057887077332,-1.4046268463134766
1773049163046197000,4.525197021484375,-2.1783413887023926,-0.6311371326446533,-0.6506659984588623
1773049163056174300,4.53517431640625,0.10962390899658203,-1.301224946975708,2.4629225730895996
1773049163066151200,4.545151123046875,1.7990474700927734,-1.17001211643219,0.39587146043777466
1773049163076128300,4.555128173828125,-0.9610433578491211,-0.6042400002479553,-1.3875441551208496
1773049163086105000,4.56510498046875,1.253584861755371,-1.1367766857147217,1.6142518520355225
1773049163096082400,4.57508251953125,-0.3601417541503906,-0.9860236048698425,-0.8210437893867493
1773049163106059300,4.585059326171875,0.36173057556152344,-0.6906179189682007,-1.0699882507324219
1773049163116036400,4.595036376953125,-0.48446083068847656,-1.339489459991455,2.4119021892547607
1773049163126013400,4.605013427734375,-0.06853008270263672,-0.9367128014564514,-0.6276530027389526
1773049163135990500,4.614990478515625,0.8382110595703125,-0.6977566480636597,-1.128320574760437
1773049163145967400,4.62496728515625,-1.4413938522338867,-1.0190842151641846,-0.05058133602142334
1773049163155944400,4.6349443359375,-0.2480936050415039,-1.3837428092956543,1.8513906002044678
1773049163165921500,4.644921630859375,0.4814462661743164,-0.800033688545227,-0.9863487482070923
1773049163175898600,4.654898681640625,-0.9727582931518555,-0.7871108055114746,-1.0666732788085938
1773049163185875700,4.664875732421875,2.3103599548339844,-1.0404856204986572,0.4727981686592102
1773049163195852800,4.674852783203125,-1.549729347229004,-1.2564387321472168,2.601875066757202
1773049163205791000,4.684791015625,0.746403694152832,-0.8792632818222046,-0.7951003313064575
1773049163215764200,4.69476416015625,-0.211578369140625,-0.6253999471664429,-1.3538038730621338
1773049163225783800,4.70478369140625,0.729766845703125,-0.7394841909408569,-0.6751090884208679
1773049163235761700,4.71476171875,0.1311960220336914,-1.1559427976608276,1.9305646419525146
1773049163245641700,4.724641845703125,-2.639040470123291,-0.8589826822280884,0.1006007194519043
1773049163255502300,4.73450244140625,1.556288719177246,-0.8351462483406067,-0.7566307187080383
1773049163265692000,4.74469189453125,2.063530921936035,-0.8473638892173767,-0.8126523494720459
1773049163275673600,4.754673583984375,-2.37290620803833,-1.2367486953735352,2.0773239135742188
1773049163285646000,4.76464599609375,-0.1565990447998047,-1.0703470706939697,0.4656962752342224
1773049163295627000,4.774626953125,0.8824005126953125,-0.5981655120849609,-1.4802591800689697
1773049163305600300,4.784600341796875,0.8545589447021484,-0.7510532140731812,-0.7322669625282288
1773049163315580200,4.794580078125,-0.7629623413085938,-0.5442681312561035,-0.3485392928123474
1773049163325554200,4.80455419921875,0.7913284301757812,-1.0331544876098633,-0.39499491453170776
1773049163335533800,4.814533935546875,-2.066871166229248,-1.1469297409057617,2.0783162117004395
1773049163345413600,4.82441357421875,0.9322071075439453,-0.7787845134735107,0.03502798080444336
1773049163355274200,4.834274169921875,0.9251060485839844,-0.7393117547035217,1.3772618770599365
1773049163365462300,4.844462158203125,-0.9770526885986328,-0.8249424695968628,-0.32972872257232666
1773049163375445200,4.8544453125,-1.885775089263916,-0.5965855121612549,-1.5551570653915405
1773049163385416400,4.86441650390625,0.7998027801513672,-0.5291715860366821,-1.0526123046875
1773049163395398100,4.874398193359375,3.517266273498535,-0.12467272579669952,-0.2791288495063782
1773049163405370600,4.88437060546875,-0.047176361083984375,-0.07851734757423401,1.907647967338562
1773049163415351600,4.8943515625,-2.929335117340088,-0.5902563333511353,-1.3005110025405884
1773049163425324800,4.90432470703125,0.9825363159179688,-0.7595469951629639,0.5315227508544922
1773049163435304700,4.9143046875,-0.5309877395629883,-0.8045611381530762,4.551997661590576
1773049163445184800,4.924184814453125,2.056194305419922,-0.015899956226348877,-2.2225401401519775
1773049163455045000,4.934045166015625,-3.8419647216796875,-0.2364315390586853,-2.6485466957092285
1773049163465233000,4.94423291015625,-0.5409526824951172,-0.2351188361644745,-0.10521095991134644
1773049163475216100,4.954216064453125,1.9296607971191406,-0.9188263416290283,1.5507067441940308
1773049163485187000,4.96418701171875,-0.1431732177734375,-0.8878084421157837,0.1121753454208374
1773049163495169000,4.9741689453125,-1.146881103515625,-0.17416012287139893,-1.3592743873596191
1773049163505141000,4.98414111328125,1.1903362274169922,-0.7166827321052551,1.7907973527908325
1773049163515122200,4.9941220703125,-1.005854606628418,-0.7855632305145264,-0.8664950132369995
1773049163525095200,5.00409521484375,0.16620159149169922,-0.7143422365188599,-0.8762530088424683
1773049163535075300,5.014075439453125,-1.1425018310546875,-1.1565203666687012,2.001709461212158
1773049163544955400,5.023955322265625,1.056715965270996,-1.147258996963501,0.7250844240188599
1773049163554815700,5.033815673828125,-1.7945332527160645,-0.6790976524353027,-0.6934700012207031
1773049163565003300,5.044003173828125,-1.3173103332519531,-0.8372464179992676,0.7370314598083496
1773049163574986800,5.05398681640625,2.3874588012695312,-0.7602943778038025,-0.8368696570396423
1773049163584957400,5.06395751953125,-1.3142375946044922,-1.131709098815918,2.0359396934509277
1773049163594939600,5.073939697265625,-1.6969337463378906,-0.4888451099395752,-0.9917977452278137
1773049163604911600,5.08391162109375,1.4021129608154297,-0.6725304126739502,-1.9311439990997314
1773049163614892500,5.093892578125,0.7583370208740234,-1.0564959049224854,1.1552190780639648
1773049163624865800,5.10386572265625,-1.8941435813903809,-0.6038777232170105,0.22114408016204834
1773049163634846000,5.113845947265625,1.7354106903076172,-0.5656492710113525,-1.4652044773101807
1773049163644819700,5.12381982421875,0.19710636138916016,-0.5025626420974731,0.5172256231307983
1773049163654799400,5.13379931640625,-1.7381401062011719,-1.113295078277588,1.4588673114776611
1773049163664774000,5.14377392578125,-0.3740730285644531,-1.0291543006896973,-0.15831750631332397
1773049163674753000,5.1537529296875,-0.01635456085205078,-1.1414601802825928,1.4985591173171997
1773049163684633000,5.163633056640625,0.8131494522094727,-0.768318772315979,-0.657806396484375
1773049163694513000,5.173512939453125,-0.7997074127197266,-0.9109706282615662,-0.5886796116828918
1773049163704682000,5.183681884765625,0.47623157501220703,-1.6323338747024536,2.6935102939605713
1773049163714666500,5.19366650390625,0.7356443405151367,-0.772990345954895,-0.6357557773590088
1773049163724636200,5.20363623046875,0.6269207000732422,-0.5989811420440674,-1.002708911895752
1773049163734619100,5.213619140625,0.2564678192138672,-0.7490524053573608,-0.7782652378082275
1773049163744590300,5.22359033203125,-1.6884593963623047,-1.1250070333480835,0.37137943506240845
1773049163754572000,5.233572021484375,0.6686553955078125,-1.2748335599899292,1.518692970275879
1773049163764544300,5.243544189453125,-1.1222171783447266,-0.5342745780944824,-1.2052422761917114
1773049163774525200,5.253525146484375,1.782485008239746,-0.884773850440979,-0.5327125787734985
1773049163784498400,5.26349853515625,-2.4690070152282715,-0.6317667961120605,-0.417915940284729
1773049163794478600,5.273478515625,2.8965349197387695,-2.151618719100952,2.2270612716674805
1773049163804452400,5.283452392578125,-1.818850040435791,-4.651174545288086,-0.9101407527923584
1773049163814431700,5.293431640625,1.362257957458496,0.3476067781448364,1.6303231716156006
1773049163824406300,5.30340625,-0.619776725769043,-1.6002204418182373,-1.3164867162704468
1773049163834385400,5.313385498046875,1.3681306838989258,0.1528468132019043,-0.4458567202091217
1773049163844360400,5.3233603515625,0.32912540435791016,-0.8246477246284485,-0.7370790243148804
1773049163854339000,5.333339111328125,-0.8457756042480469,-1.7063050270080566,1.2693885564804077
1773049163864314600,5.343314697265625,-1.330775260925293,-0.666299045085907,-0.3490889370441437
1773049163874292700,5.353292724609375,-0.07205009460449219,-0.08816850185394287,-1.2173385620117188
1773049163884268500,5.3632685546875,0.9351377487182617,-1.066117525100708,0.978298544883728
1773049163894246700,5.37324658203125,0.08289337158203125,-1.3352855443954468,0.5088810920715332
1773049163904222700,5.38322265625,-2.0279479026794434,-0.5326545238494873,-0.32549789547920227
1773049163914200600,5.39320068359375,2.193758010864258,-0.9947257041931152,0.24144530296325684
1773049163924177000,5.403177001953125,0.7364387512207031,-0.8431444764137268,1.0407395362854004
1773049163934154500,5.413154541015625,-0.8652715682983398,-0.07671376317739487,-0.31164494156837463
1773049163944131000,5.423131103515625,-0.09940814971923828,-0.9130208492279053,-1.0161006450653076
1773049163954108700,5.433108642578125,0.0059261322021484375,-1.618498682975769,1.4415597915649414
1773049163964085000,5.4430849609375,-1.6891593933105469,0.6495051383972168,0.11289215087890625
1773049163974062600,5.4530625,-0.17078685760498047,-1.225567102432251,-0.8380435109138489
1773049163984039200,5.4630390625,1.0756759643554688,-2.5510356426239014,0.4802626371383667
1773049163994016500,5.4730166015625,-2.584932804107666,0.3269350528717041,0.4351188540458679
1773049164003993300,5.482993408203125,1.9882936477661133,-0.15425440669059753,-2.2698240280151367
1773049164013970400,5.492970458984375,1.176548957824707,-1.4142862558364868,1.0071399211883545
1773049164023947300,5.502947265625,-1.3323116302490234,-0.8531211018562317,3.1957876682281494
1773049164033924600,5.512924560546875,-0.40572166442871094,0.6979873180389404,-2.1722660064697266
1773049164043901400,5.5229013671875,1.076559066772461,-0.17518478631973267,-1.3897597789764404
1773049164053878500,5.53287841796875,0.14733409881591797,-0.26696833968162537,-0.0025025010108947754
1773049164063855600,5.542855712890625,-1.2614336013793945,0.7733331322669983,-0.39170679450035095
1773049164073832700,5.552832763671875,0.6587314605712891,-0.19436828792095184,0.17893880605697632
1773049164083809500,5.5628095703125,-0.08679771423339844,-2.1205673217773438,0.7670173645019531
1773049164093786600,5.57278662109375,-1.5436515808105469,0.8665343523025513,-0.9182918667793274
1773049164103763700,5.582763671875,3.7618064880371094,1.138717770576477,-0.7406997084617615
1773049164113740800,5.59274072265625,-0.1200265884399414,-0.7162460088729858,1.5735677480697632
1773049164123718000,5.6027177734375,-3.2945098876953125,-0.16805274784564972,0.16794198751449585
1773049164133695000,5.612695068359375,2.2962207794189453,0.3411886394023895,-0.559375524520874
1773049164143671800,5.622671875,1.5916175842285156,-0.5648796558380127,-0.5319463610649109
1773049164153649000,5.63264892578125,-2.4532618522644043,-1.4974983930587769,-0.4927729368209839
1773049164163626000,5.6426259765625,-2.1508021354675293,-0.169455885887146,1.4842491149902344
1773049164173603000,5.65260302734375,2.103940963745117,-0.9184078574180603,-0.9028431177139282
1773049164183580200,5.662580078125,-0.2866678237915039,-1.226090431213379,-1.5150740146636963
1773049164193557200,5.67255712890625,-1.0413579940795898,-0.35365918278694153,1.0089446306228638
1773049164203534000,5.6825341796875,0.7623414993286133,-0.6063075661659241,-0.8840616345405579
1773049164213511200,5.69251123046875,1.9213428497314453,-1.1108496189117432,-0.014694929122924805
1773049164223488300,5.70248828125,-1.5741443634033203,-1.040920376777649,0.8201448917388916
1773049164233465300,5.71246533203125,0.0198974609375,-0.5051741600036621,-0.6908203363418579
1773049164243442200,5.722442138671875,1.1652631759643555,-0.2238866686820984,-0.2961936593055725
1773049164253419300,5.732419189453125,0.2550182342529297,-1.4110519886016846,0.5906218886375427
1773049164263396400,5.742396240234375,-2.792532444000244,-0.20034778118133545,-0.9113475680351257
1773049164273373400,5.75237353515625,-0.6024684906005859,-0.5298923850059509,1.8058645725250244
1773049164283350500,5.7623505859375,2.8406763076782227,-0.3190695643424988,-0.8910292983055115
1773049164293327600,5.77232763671875,-1.9978108406066895,-0.40190958976745605,-0.2494221329689026
1773049164303304700,5.7823046875,0.42779064178466797,0.4482547342777252,-0.5851190686225891
1773049164313281500,5.792281494140625,0.7900600433349609,-0.43447479605674744,0.506357729434967
1773049164323258600,5.802258544921875,1.3377771377563477,-0.31698328256607056,-0.2112182378768921
1773049164333235700,5.812235595703125,-2.8402371406555176,-0.3833218216896057,-0.5541597604751587
1773049164343212800,5.822212890625,1.7662744522094727,0.06192517280578613,0.42516374588012695
1773049164353190000,5.83218994140625,-0.8564271926879883,0.3352055847644806,-1.2474290132522583
1773049164363167000,5.8421669921875,1.008427619934082,-1.2706058025360107,-0.1015704870223999
1773049164373143800,5.852143798828125,-2.3693747520446777,0.4810439646244049,-0.4087008237838745
1773049164383121000,5.862120849609375,1.5831594467163086,-0.5666549801826477,1.8318297863006592
1773049164393098000,5.872097900390625,0.058335304260253906,0.1427403688430786,-0.9764357805252075
1773049164403036200,5.8820361328125,-2.1073975563049316,0.08566991239786148,-1.1275691986083984
1773049164413009400,5.892009521484375,2.516880989074707,-0.45606064796447754,-0.01469200849533081
1773049164423029000,5.902029052734375,-0.4050588607788086,0.13843277096748352,0.5001366138458252
1773049164433006800,5.9120068359375,-0.2785310745239258,0.34834909439086914,-0.652972936630249
1773049164442983200,5.921983154296875,-0.19629669189453125,-0.928734540939331,-0.2058287262916565
1773049164452960800,5.931960693359375,-1.347269058227539,-0.5072990655899048,-0.6648911237716675
1773049164462937300,5.941937255859375,-0.13634490966796875,0.046291619539260864,-1.0971732139587402
1773049164472915000,5.9519150390625,0.6088333129882812,-0.4502066969871521,-0.6754448413848877
1773049164482891500,5.9618916015625,0.8516702651977539,-0.7945481538772583,1.8343477249145508
1773049164492868900,5.971868896484375,-1.3375577926635742,0.37688618898391724,-1.0516079664230347
1773049164502845400,5.981845458984375,0.24711132049560547,0.5490247011184692,-1.1194202899932861
1773049164512822800,5.99182275390625,2.574002265930176,-0.7463123798370361,1.3268375396728516
1773049164522799600,6.001799560546875,-2.5177388191223145,-0.2460455298423767,0.2682051658630371
1773049164532777000,6.01177685546875,-0.8204565048217773,0.7957295179367065,-0.0536004900932312
1773049164542753800,6.02175390625,2.4625682830810547,-1.073439598083496,0.5297932028770447
1773049164552731000,6.03173095703125,-0.12719058990478516,0.04062086343765259,0.2747398614883423
1773049164562707700,6.041707763671875,-1.9261317253112793,0.4142552614212036,-1.3711113929748535
1773049164572685000,6.05168505859375,2.63175106048584,-0.39576980471611023,0.1870349645614624
1773049164582662000,6.061661865234375,-0.3638448715209961,-0.6128934025764465,-0.7132193446159363
1773049164592639000,6.071638916015625,-0.37177467346191406,0.8145318627357483,-0.7858362793922424
1773049164602538200,6.081538330078125,0.6663045883178711,0.1782601773738861,1.358689785003662
1773049164612507600,6.091507568359375,1.1224098205566406,-0.5906838774681091,-0.3226054310798645
1773049164622570000,6.101570068359375,-2.182943820953369,0.4590049088001251,-1.0830801725387573
1773049164632548900,6.111548828125,0.8062658309936523,-0.24688851833343506,1.2677521705627441
1773049164642524200,6.121524169921875,0.5503826141357422,-0.21698711812496185,0.38423967361450195
1773049164652502500,6.13150244140625,-1.9203581809997559,0.7404043078422546,0.6834951043128967
1773049164662478300,6.141478271484375,0.4185638427734375,0.20456531643867493,-0.6087850332260132
1773049164672456400,6.15145654296875,-0.22802162170410156,-0.47911536693573,0.11763036251068115
1773049164682432300,6.161432373046875,0.39836978912353516,-0.09060038626194,-0.3568514287471771
1773049164692410400,6.171410400390625,0.18264007568359375,0.834712028503418,0.6591780781745911
1773049164702386400,6.181386474609375,0.3494901657104492,-0.4390050172805786,-0.7147225737571716
1773049164712364300,6.1913642578125,-0.23030853271484375,-0.5897524356842041,-1.0550148487091064
1773049164722340600,6.201340576171875,-1.2132654190063477,-0.012249581515789032,0.743170976638794
1773049164732318200,6.211318115234375,0.7431640625,-0.22155247628688812,0.11313694715499878
1773049164742294800,6.221294677734375,0.35890865325927734,0.19359388947486877,0.0016710162162780762
1773049164752272100,6.231272216796875,-1.5614995956420898,-0.15632417798042297,-1.2096346616744995
1773049164762210000,6.2412099609375,1.9202880859375,0.11467887461185455,0.9544963836669922
1773049164772183600,6.25118359375,-0.4195852279663086,0.14448732137680054,-0.6503270268440247
1773049164782164000,6.2611640625,0.9476251602172852,-0.5598143339157104,0.8214337825775146
1773049164792138200,6.27113818359375,-1.6436491012573242,0.45827069878578186,-0.1496868133544922
1773049164802118100,6.2811181640625,-0.02033710479736328,0.05612931400537491,0.667500913143158
1773049164812093000,6.291093017578125,1.1136646270751953,-0.016736425459384918,-0.21301305294036865
1773049164822111000,6.301111083984375,-2.0237832069396973,-0.5364394783973694,0.23293256759643555
1773049164832090000,6.311090087890625,0.6557159423828125,0.4327027499675751,-0.5416139364242554
1773049164842026200,6.321026123046875,0.9269227981567383,0.5233435034751892,1.0338795185089111
1773049164852001000,6.3310009765625,-0.5559415817260742,-0.21942731738090515,-0.9673939943313599
1773049164861980400,6.34098046875,-1.9061388969421387,-0.6634105443954468,-0.67577064037323
1773049164871955700,6.350955810546875,0.3444375991821289,0.3027987778186798,0.07942020893096924
1773049164881973200,6.36097314453125,0.9125537872314453,0.4224030673503876,-0.9447582960128784
1773049164891953000,6.370952880859375,0.882685661315918,-1.1205869913101196,1.9870991706848145
1773049164901833000,6.3808330078125,-2.715536594390869,-0.1830213963985443,-0.8822493553161621
1773049164911712800,6.390712646484375,0.5061559677124023,0.9437987208366394,-0.9988565444946289
1773049164921842700,6.4008427734375,4.838689804077148,0.1320718228816986,1.7560830116271973
1773049164931819800,6.41081982421875,-3.9392051696777344,-0.40374982357025146,0.5301834940910339
1773049164941796900,6.420796875,-2.3887200355529785,0.6570397615432739,-1.371239185333252
1773049164951774000,6.43077392578125,4.507536888122559,0.7800383567810059,-0.49673205614089966
1773049164961673200,6.440673095703125,-2.722170352935791,-0.381862074136734,1.8144996166229248
1773049164971642600,6.450642578125,0.24422836303710938,-0.27048391103744507,-0.8755162954330444
1773049164981588500,6.46058837890625,-2.349191188812256,0.484096497297287,-1.114912509918213
1773049164991555600,6.4705556640625,3.5285520553588867,-0.026860129088163376,-0.7828039526939392
1773049165001503700,6.480503662109375,0.06961917877197266,-0.14529603719711304,-0.26848626136779785
1773049165011469000,6.490468994140625,-0.3753633499145508,0.13518072664737701,-0.3186758756637573
1773049165021458000,6.5004580078125,1.1160812377929688,0.5998882055282593,0.038334429264068604
1773049165031425300,6.51042529296875,0.4351387023925781,-0.3800160884857178,2.086538314819336
1773049165041334500,6.52033447265625,-2.8183255195617676,0.1522977501153946,-0.9753705263137817
1773049165051296300,6.530296142578125,0.17937183380126953,-0.15011301636695862,0.8498663902282715
1773049165061249800,6.540249755859375,-0.11097145080566406,-0.021619442850351334,2.3126537799835205
1773049165071210500,6.55021044921875,-0.16755962371826172,0.28626471757888794,0.04302781820297241
1773049165081165000,6.5601650390625,0.7664766311645508,-0.16495105624198914,-1.8591077327728271
1773049165091125200,6.570125244140625,-1.7976927757263184,0.042622536420822144,-0.4991621971130371
1773049165100964600,6.579964599609375,3.97506046295166,-0.06428782641887665,-0.09702509641647339
1773049165110912500,6.58991259765625,-0.20876026153564453,-0.13094399869441986,-0.577858567237854
1773049165120995300,6.599995361328125,-1.2946109771728516,-0.17963746190071106,-0.6587038040161133
1773049165130957000,6.60995703125,-0.038641929626464844,0.25171586871147156,0.0449681282043457
1773049165140837000,6.619837158203125,-0.19612598419189453,0.16105790436267853,0.8372410535812378
1773049165150717000,6.629717041015625,-0.4537076950073242,-0.02103375270962715,0.06772273778915405
1773049165160597000,6.639596923828125,-1.4074945449829102,0.6874207258224487,0.8372834324836731
1773049165170477000,6.64947705078125,0.1719951629638672,-0.06247210130095482,0.971520721912384
1773049165180357000,6.659357177734375,0.7051248550415039,0.019870251417160034,-0.8976301550865173
1773049165190237000,6.66923681640625,0.14944839477539062,0.2652336359024048,0.37335652112960815
1773049165200117000,6.679116943359375,1.5004911422729492,-0.16653548181056976,0.003387451171875
1773049165209997000,6.6889970703125,0.06413936614990234,0.14472179114818573,0.29110389947891235
1773049165220177200,6.69917724609375,-0.6423187255859375,-0.19018074870109558,-0.7910255193710327
1773049165230357000,6.70935693359375,-0.03505897521972656,0.09328540414571762,-1.1509013175964355
1773049165240537000,6.719537109375,-0.96160888671875,-0.5190096497535706,0.046246886253356934
1773049165250717000,6.729717041015625,-0.218505859375,0.28254860639572144,-0.6266531944274902
1773049165260867800,6.739867919921875,1.1050472259521484,-0.28139370679855347,-0.33782726526260376
1773049165270846500,6.749846435546875,0.19554996490478516,0.06445372104644775,1.1445152759552002
1773049165280861000,6.75986083984375,-1.265641212463379,0.9668980836868286,-0.6065726280212402
1773049165290843100,6.769843017578125,2.038175582885742,-0.3568294048309326,-0.042733728885650635
1773049165300776200,6.779776123046875,-1.4671602249145508,-0.09354692697525024,1.6715859174728394
1773049165310753500,6.78975341796875,-1.3429489135742188,0.3616637885570526,-0.8570414781570435
1773049165320730400,6.79973046875,3.5896224975585938,-0.2916245758533478,0.034610748291015625
1773049165330707700,6.809707763671875,-2.26808500289917,0.1841246336698532,0.6540513038635254
1773049165340684500,6.8196845703125,-0.31740856170654297,-0.37042054533958435,-1.2301268577575684
1773049165350662000,6.829661865234375,0.3953428268432617,0.025288239121437073,-0.4081493020057678
1773049165360638700,6.839638671875,-1.1997442245483398,0.4708605408668518,0.14403581619262695
1773049165370615800,6.84961572265625,1.3573312759399414,-0.2521419823169708,-0.5642992854118347
1773049165380593000,6.859593017578125,-0.9255056381225586,0.00775383785367012,0.8473875522613525
1773049165390570000,6.869570068359375,-0.09218978881835938,0.35170310735702515,-0.19979071617126465
1773049165400585700,6.879585693359375,1.3597774505615234,0.07934648543596268,0.8834457397460938
1773049165410567000,6.88956689453125,-0.33879566192626953,-0.24831074476242065,-0.4466583728790283
1773049165420540000,6.899539794921875,-1.5413627624511719,0.18469975888729095,0.9751946926116943
1773049165430520300,6.909520263671875,1.2270965576171875,0.4100225269794464,-0.025201022624969482
1773049165440494000,6.919494140625,1.0693044662475586,0.2682788670063019,-0.33503538370132446
1773049165450473700,6.9294736328125,0.15927791595458984,-1.041566252708435,0.3945750594139099
1773049165460448300,6.9394482421875,-2.0954880714416504,0.29056501388549805,-1.2650423049926758
1773049165470427400,6.949427490234375,1.5777349472045898,0.5461291670799255,-0.5274227261543274
1773049165480402400,6.95940234375,1.728109359741211,-0.8530358076095581,-0.035345375537872314
1773049165490381300,6.96938134765625,-2.960059642791748,0.07389230281114578,-0.68950355052948
1773049165500261400,6.979261474609375,0.8688201904296875,0.2814095616340637,1.0430412292480469
1773049165510079700,6.989079833984375,0.43555641174316406,-0.4061819314956665,-0.6619588136672974
1773049165520259800,6.999259765625,-0.8176546096801758,0.5109936594963074,0.42139995098114014
1773049165530294000,7.0092939453125,1.7921762466430664,-0.15453293919563293,1.4583394527435303
1773049165540265000,7.019264892578125,0.07767486572265625,0.13638827204704285,-0.11131429672241211
1773049165550247000,7.029246826171875,-1.3924627304077148,0.8467569947242737,-0.3716646432876587
1773049165560219100,7.03921923828125,0.6462516784667969,-0.23898813128471375,1.6928668022155762
1773049165580173300,7.05917333984375,-1.9905571937561035,0.33388614654541016,-0.8654695749282837
1773049165590153500,7.069153564453125,3.9945383071899414,-0.2506600022315979,-0.4859095811843872
1773049165600127500,7.07912744140625,-1.0670042037963867,-1.0301681756973267,-0.8722810745239258
1773049165610107100,7.089107177734375,-1.3301706314086914,0.8106920719146729,0.28829681873321533
1773049165620081700,7.09908154296875,1.5056571960449219,0.081874780356884,-0.5965144634246826
1773049165630060800,7.109060791015625,0.5134754180908203,-0.4989124834537506,0.9637013673782349
1773049165640035800,7.119035888671875,-1.9133505821228027,0.6054418087005615,0.5510193109512329
1773049165650014700,7.1290146484375,1.1464729309082031,-0.1553604006767273,-0.8022388815879822
1773049165659894500,7.13889453125,-1.0510454177856445,0.01865100860595703,1.0139939785003662
1773049165669755600,7.148755615234375,0.30719947814941406,-0.1362922340631485,1.5363383293151855
1773049165679944200,7.158944091796875,-0.36962223052978516,0.0778094157576561,-1.8268277645111084
1773049165689926400,7.168926513671875,-0.6198205947875977,0.044244471937417984,-0.5217818021774292
1773049165699898400,7.1788984375,2.3519153594970703,-0.614000678062439,-0.7082919478416443
1773049165709879600,7.188879638671875,-1.0209884643554688,0.276294082403183,-1.1598176956176758
1773049165719852500,7.1988525390625,1.16485595703125,0.08786875009536743,-0.7939525842666626
1773049165729833000,7.2088330078125,0.7438163757324219,-0.7239867448806763,-0.6729410886764526
1773049165739806700,7.218806640625,-1.3137493133544922,0.32719096541404724,0.05659329891204834
1773049165749786600,7.22878662109375,0.45447635650634766,0.8095061779022217,1.1872620582580566
1773049165759761000,7.238760986328125,-0.09209918975830078,-0.4018452763557434,-0.2196705937385559
1773049165769740300,7.248740234375,-1.1805953979492188,0.4380909204483032,1.4015939235687256
1773049165779715000,7.258715087890625,-0.6947793960571289,0.3058601915836334,-0.5362921357154846
1773049165789694000,7.26869384765625,2.725600242614746,-0.7031234502792358,0.13767635822296143
1773049165799669500,7.27866943359375,-1.072652816772461,-0.6032204627990723,0.4846370816230774
1773049165809647900,7.28864794921875,-0.877655029296875,0.6382163166999817,-1.3633978366851807
1773049165819623400,7.29862353515625,3.1421470642089844,0.06130216270685196,-0.7306525707244873
1773049165829601800,7.308601806640625,-1.883812427520752,-1.3271255493164062,0.29761308431625366
1773049165839577900,7.318577880859375,-1.2380094528198242,0.48135554790496826,-1.103379487991333
1773049165849555700,7.3285556640625,2.089527130126953,0.391123503446579,-0.21216577291488647
1773049165859532000,7.338531982421875,-0.7137393951416016,-0.5401471853256226,1.2120121717453003
1773049165869510000,7.348510009765625,-2.422121524810791,0.382016658782959,-1.0103079080581665
1773049165879486200,7.358486328125,0.7308549880981445,0.3731464743614197,0.6571052670478821
1773049165889463800,7.3684638671875,0.6912364959716797,-0.4864196479320526,2.222736120223999
1773049165899440400,7.3784404296875,-1.7130517959594727,0.35715773701667786,-1.474938154220581
1773049165909418000,7.38841796875,0.3396310806274414,0.48060670495033264,-0.7860050201416016
1773049165919394600,7.39839453125,1.499802589416504,-0.2934010326862335,0.17255645990371704
1773049165929372200,7.4083720703125,-0.7719554901123047,-0.252064049243927,-0.724468469619751
1773049165939348700,7.4183486328125,0.8828134536743164,0.04503609240055084,-0.9105604887008667
1773049165949326000,7.428326171875,0.37021827697753906,-0.3119276165962219,-0.47052764892578125
1773049165959303000,7.438302978515625,-0.17870330810546875,0.042889080941677094,0.40662240982055664
1773049165969280300,7.4482802734375,-0.20666217803955078,-0.0474817156791687,0.48437607288360596
1773049165979257000,7.458257080078125,0.7765779495239258,0.07429773360490799,-0.46508049964904785
1773049165989234400,7.468234375,0.25860595703125,-0.16328072547912598,1.8255879878997803
1773049165999211300,7.478211181640625,0.07194232940673828,0.48689624667167664,0.1085364818572998
1773049166009188600,7.488188720703125,0.3346405029296875,0.13944455981254578,-0.04130274057388306
1773049166019068700,7.498068603515625,0.06190204620361328,-0.633975625038147,1.7513073682785034
1773049166028930000,7.507929931640625,-1.7001447677612305,0.05716611444950104,-1.0674855709075928
1773049166039119600,7.51811962890625,0.44370365142822266,0.22412404417991638,-1.439556360244751
1773049166049101000,7.52810107421875,1.7846698760986328,-1.0678497552871704,0.9724506139755249
1773049166059073800,7.53807373046875,-0.8649778366088867,-0.31476855278015137,0.2680548429489136
1773049166069054500,7.548054443359375,-0.09392833709716797,0.643341600894928,-1.3792003393173218
1773049166079028000,7.558028076171875,2.1078710556030273,-0.5707238912582397,0.8012984991073608
1773049166089007900,7.5680078125,-1.029740333557129,-0.03920968621969223,2.0887885093688965
1773049166098982400,7.577982421875,-1.982363224029541,0.2658074200153351,-0.43916404247283936
1773049166108961500,7.58796142578125,0.6426000595092773,0.255811870098114,-0.0344233512878418
1773049166118841600,7.597841552734375,-0.43383026123046875,-0.1279529184103012,1.595378041267395
1773049166128702700,7.60770263671875,-0.1084127426147461,-0.6518322229385376,0.5114729404449463
1773049166138890500,7.617890380859375,-0.14705753326416016,0.34683430194854736,-1.2646071910858154
1773049166148873200,7.627873291015625,1.9879884719848633,-0.06865624338388443,-0.36903440952301025
1773049166158753300,7.637753173828125,1.4860210418701172,-0.8405088186264038,0.07838404178619385
1773049166178822100,7.657822265625,1.902303695678711,0.27078765630722046,-0.2632611393928528
1773049166188775400,7.667775390625,0.4279327392578125,-0.8205094337463379,-0.8316880464553833
1773049166198771700,7.677771728515625,-2.554866313934326,0.4301733374595642,2.010291337966919
1773049166208651800,7.68765185546875,0.6885929107666016,0.8036594390869141,1.1644618511199951
1773049166218509300,7.69750927734375,0.9048118591308594,-0.49372613430023193,-0.7489550709724426
1773049166228684000,7.70768408203125,-1.3229742050170898,-0.20306366682052612,0.3386073708534241
1773049166238677800,7.717677734375,-1.2572002410888672,0.6100150346755981,0.988135039806366
1773049166248638500,7.727638427734375,2.3981800079345703,-0.5365377068519592,-0.20404642820358276
1773049166258628900,7.73762890625,-0.05980491638183594,-0.2708631753921509,-0.916157603263855
1773049166268592600,7.747592529296875,-0.18897151947021484,-0.5074659585952759,-1.129809021949768
1773049166278580500,7.75758056640625,1.086857795715332,-0.4094599783420563,-0.24839061498641968
1773049166288547000,7.767547119140625,1.2906074523925781,-0.3882274031639099,-0.345381498336792
1773049166298532600,7.77753271484375,-1.543461799621582,0.09824592620134354,-0.07975655794143677
1773049166308412700,7.78741259765625,-1.1380424499511719,0.09540557861328125,0.3898667097091675
1773049166318272300,7.797272216796875,0.023349761962890625,-0.16333554685115814,-0.003511667251586914
1773049166328455400,7.807455322265625,-1.047104835510254,-0.24369198083877563,1.4485485553741455
1773049166338442000,7.81744189453125,-0.5480012893676758,0.5909117460250854,-0.4912453293800354
1773049166348409600,7.82740966796875,1.296834945678711,-0.9130101203918457,0.39647161960601807
1773049166358394400,7.837394287109375,-0.807856559753418,-0.26642507314682007,-0.8439684510231018
1773049166368364000,7.847364013671875,0.016228675842285156,0.573606014251709,0.28929072618484497
1773049166378347300,7.85734716796875,1.4347305297851562,-0.8398078680038452,-0.2980382442474365
1773049166388318200,7.867318115234375,-1.5210590362548828,-0.5422775745391846,-1.5831735134124756
1773049166398300200,7.877300048828125,0.011137962341308594,0.5426104664802551,-0.7139291763305664
1773049166408272400,7.8872724609375,1.4352445602416992,-0.57908695936203,2.293576240539551
1773049166418253600,7.897253662109375,-0.00110626220703125,0.22206377983093262,-0.3837602734565735
1773049166428226800,7.907226806640625,-1.9744467735290527,0.27263110876083374,-1.2492785453796387
1773049166438207000,7.91720703125,-0.45011329650878906,0.3302166163921356,0.5155836939811707
1773049166448181000,7.927180908203125,0.8940353393554688,0.02788008749485016,2.1907126903533936
1773049166458160600,7.93716064453125,-0.7135848999023438,-0.2627628445625305,-1.0573009252548218
1773049166468135200,7.94713525390625,-0.7649364471435547,0.03690243512392044,-1.5924896001815796
1773049166478114300,7.9571142578125,1.6630973815917969,-0.5434374809265137,-0.07557576894760132
1773049166488089600,7.967089599609375,0.8861751556396484,-0.47508037090301514,0.7870436310768127
1773049166498068200,7.977068115234375,-0.3716907501220703,0.26619455218315125,-1.250887155532837
1773049166508043800,7.987043701171875,0.7321996688842773,0.058914363384246826,-1.104432463645935
1773049166518022100,7.997022216796875,-1.1224994659423828,-1.0474644899368286,2.027270555496216
1773049166527998000,8.006998046875,-1.9408373832702637,0.6599054336547852,0.8424921035766602
1773049166537976000,8.01697607421875,0.8241128921508789,0.1821538507938385,-1.0386861562728882
1773049166547952000,8.0269521484375,0.1540231704711914,-0.6290141940116882,1.7029507160186768
1773049166557930000,8.036929931640625,-2.0380911827087402,-0.4083592891693115,0.6835503578186035
1773049166567906300,8.04690625,0.3639974594116211,-0.16397427022457123,-0.5517189502716064
1773049166577884200,8.05688427734375,2.315885543823242,-0.20872217416763306,-0.17890822887420654
1773049166587860700,8.06686083984375,0.3472719192504883,-0.9202746748924255,-1.3855928182601929
1773049166597838300,8.07683837890625,-1.019439697265625,-0.1553695648908615,0.3252773880958557
1773049166607718400,8.086718505859375,1.4237117767333984,0.05632060021162033,0.7227999567985535
1773049166617579500,8.09657958984375,0.6834001541137695,-0.6360673904418945,-1.066792607307434
1773049166627768800,8.106768798828124,-1.0618858337402344,0.17876914143562317,0.21758192777633667
1773049166637750500,8.11675048828125,-0.4569053649902344,0.4212349057197571,2.4565341472625732
1773049166647723000,8.126722900390625,0.7805013656616211,-0.3507392704486847,-0.004990756511688232
1773049166657704000,8.136703857421875,-0.2972860336303711,0.22205038368701935,-0.7806278467178345
1773049166667677200,8.14667724609375,-0.6402950286865234,0.23793336749076843,0.9629163146018982
1773049166677657300,8.1566572265625,1.3855390548706055,-0.292569100856781,-0.5137333869934082
1773049166687631600,8.166631591796875,0.3206787109375,-0.3904262185096741,-0.34796443581581116
1773049166697611000,8.176611083984374,-0.27678585052490234,0.09481354802846909,-0.9583099484443665
1773049166707585800,8.186585693359374,1.1284761428833008,-0.03398185595870018,-0.9925069808959961
1773049166717564700,8.196564697265625,0.6201496124267578,-0.10125741362571716,1.518089771270752
1773049166727540000,8.2065400390625,-1.3868026733398438,0.27444279193878174,0.07333648204803467
1773049166737518600,8.2165185546875,0.7030420303344727,-0.18845418095588684,-1.3300600051879883
1773049166747494400,8.226494384765624,-0.7077770233154297,-0.08104868233203888,1.625145435333252
1773049166757472500,8.236472412109375,-0.7344894409179688,0.334931343793869,1.6572766304016113
1773049166767448600,8.246448486328125,0.6175594329833984,-0.5574182868003845,-1.778012752532959
1773049166777426700,8.2564267578125,-1.5007266998291016,-0.28591957688331604,-0.6326181292533875
1773049166787402800,8.26640283203125,1.2927207946777344,0.19104255735874176,1.5106241703033447
1773049166797380600,8.276380615234375,0.5539073944091797,-0.6533929705619812,-1.0911660194396973
1773049166807357000,8.28635693359375,0.3234071731567383,-0.6335555911064148,-1.567802906036377
1773049166817334800,8.296334716796874,-0.6899213790893555,-0.18714642524719238,0.4077795743942261
1773049166827311000,8.30631103515625,0.5249786376953125,0.07403191924095154,1.0855787992477417
1773049166837288700,8.316288818359375,0.47545719146728516,-0.30903705954551697,-0.4260391592979431
1773049166847265500,8.326265625,-1.6077356338500977,-0.301797479391098,0.48115861415863037
1773049166857243000,8.336242919921874,-1.3028335571289062,0.4761069416999817,1.0965797901153564
1773049166867413800,8.346413818359375,0.9591846466064453,0.12020593881607056,1.0661578178405762
1773049166877411000,8.3564111328125,-0.008490562438964844,-0.6705604195594788,-1.1191818714141846
1773049166887368200,8.3663681640625,-1.694143295288086,0.08381094038486481,0.08714312314987183
1773049166897361400,8.376361328125,1.2807798385620117,0.508128821849823,0.5153031349182129
1773049166907241500,8.386241455078125,0.93817138671875,-0.8457378149032593,-1.2021650075912476
1773049166917099000,8.39609912109375,-1.1510047912597656,0.1335010975599289,-0.488371878862381
1773049166927276500,8.406276611328124,-1.238290786743164,0.3615606427192688,0.6858258247375488
1773049166937268200,8.416268310546876,1.6586580276489258,0.19509416818618774,0.8066727519035339
1773049166947231000,8.42623095703125,0.7138528823852539,-0.11466138809919357,0.949167013168335
1773049166957219600,8.436219482421874,-1.9569602012634277,0.21673855185508728,-0.6887369751930237
1773049166967185200,8.44618505859375,0.31194496154785156,0.5844499468803406,1.3673288822174072
1773049166977171700,8.456171630859375,0.8746767044067383,-0.41507989168167114,0.4862484931945801
1773049166987139600,8.4661396484375,-1.6441020965576172,0.07637819647789001,-1.5040559768676758
1773049166997124000,8.4761240234375,0.2904396057128906,-0.18450933694839478,-0.300179123878479
1773049167007093800,8.48609375,0.8774929046630859,-0.4049254059791565,-0.1878376007080078
1773049167017077000,8.496076904296874,0.11121273040771484,-0.17445388436317444,0.45584970712661743
1773049167027048200,8.506048095703125,0.16351604461669922,-0.2073844075202942,-0.35296690464019775
1773049167037030000,8.51602978515625,-0.1805887222290039,-0.0646241158246994,0.3478296995162964
1773049167047002400,8.52600244140625,0.7559165954589844,-0.38113194704055786,1.1843420267105103
1773049167056983300,8.5359833984375,-1.0651779174804688,-0.32530415058135986,0.5677968263626099
1773049167066956500,8.54595654296875,-0.9048213958740234,0.04620198532938957,-0.13164353370666504
1773049167076936700,8.555936767578125,0.5061359405517578,-0.3648446500301361,0.8899553418159485
1773049167086910700,8.56591064453125,-0.33548736572265625,-0.5993708968162537,-0.37192851305007935
1773049167096890400,8.575890380859375,-0.15784549713134766,0.09542479366064072,0.24429041147232056
1773049167106865200,8.585865234375,0.9791193008422852,-0.2537271976470947,-0.5372165441513062
1773049167116844000,8.595843994140624,0.8854570388793945,-0.18962517380714417,-0.9368486404418945
1773049167126819300,8.6058193359375,-0.1622486114501953,-0.12558895349502563,1.5956318378448486
1773049167136798000,8.6157978515625,-0.6629924774169922,0.18446935713291168,0.006566882133483887
1773049167146773500,8.6257734375,0.3555259704589844,0.3199688792228699,-0.33149975538253784
1773049167156752000,8.635751953125,-0.08423805236816406,-0.2424839735031128,1.9892016649246216
1773049167166727700,8.645727783203125,-0.7141313552856445,0.4745267927646637,-0.36516720056533813
1773049167176705800,8.655705810546875,1.0212888717651367,-0.26036134362220764,0.5839298367500305
1773049167186681900,8.665681884765625,0.36002159118652344,0.19081342220306396,0.0713699460029602
1773049167196660000,8.675659912109374,0.06795597076416016,-0.1731000542640686,-0.800223171710968
1773049167206539800,8.685539794921874,0.8174200057983398,-0.13045518100261688,-0.5899063348770142
1773049167216400600,8.695400634765624,0.5293283462524414,-0.12136749923229218,0.37541455030441284
1773049167226590200,8.705590087890625,0.9289169311523438,0.2163304090499878,0.10088753700256348
1773049167236572200,8.715572265625,-0.8829460144042969,-0.05028996616601944,0.030628323554992676
1773049167246544400,8.72554443359375,0.026668548583984375,-0.11487504839897156,0.9681380391120911
1773049167256525300,8.735525390625,-0.489013671875,-0.34737610816955566,0.7863588333129883
1773049167266498800,8.745498779296875,-0.44010257720947266,0.07260812819004059,0.2694302201271057
1773049167276479000,8.75547900390625,0.28668212890625,-0.3912600874900818,-0.06678855419158936
1773049167286453000,8.765452880859375,-0.7931709289550781,-0.42266812920570374,0.5124399065971375
1773049167296432400,8.775432373046876,0.07303619384765625,-0.13615217804908752,0.4190051555633545
1773049167306312400,8.7853125,-0.09000873565673828,-0.592871904373169,-1.511627435684204
1773049167316173000,8.795173095703126,0.10616016387939453,0.04359639808535576,0.5448405146598816
1773049167326361300,8.805361328125,-0.099090576171875,-0.5636707544326782,0.7541505694389343
1773049167336344000,8.815343994140624,-0.4715404510498047,-0.06953111290931702,0.5196221470832825
1773049167346224000,8.82522412109375,0.3317737579345703,-0.20432063937187195,-0.27122998237609863
1773049167356084000,8.835083984375,0.10594940185546875,-0.36547747254371643,0.08349829912185669
1773049167366269700,8.845269775390625,-1.0114202499389648,0.6105805039405823,1.920722484588623
1773049167376254700,8.855254638671875,0.2129993438720703,-0.5059431195259094,-0.5631115436553955
1773049167386223900,8.865223876953126,-0.6672000885009766,-0.2627105414867401,-1.0499310493469238
1773049167396207400,8.875207275390625,0.38082313537597656,0.34469324350357056,0.8454753756523132
1773049167406178000,8.885177978515625,1.0338706970214844,-0.13193060457706451,-0.4325234889984131
1773049167416160300,8.89516015625,0.32923126220703125,0.30308204889297485,-0.3511165380477905
1773049167426132200,8.90513232421875,-0.30177974700927734,-0.16130980849266052,0.3773069381713867
1773049167436113700,8.91511376953125,-0.3773193359375,0.2909713089466095,0.7189823389053345
1773049167446086700,8.925086669921875,0.43523120880126953,0.21999791264533997,0.3346996307373047
1773049167456066800,8.93506689453125,-0.15751171112060547,-0.3487246334552765,0.62324059009552
1773049167466040800,8.945040771484376,-0.9066162109375,0.6102104783058167,-0.7294389605522156
1773049167476020500,8.9550205078125,-0.17810440063476562,-0.4838465452194214,0.2636822462081909
1773049167485995000,8.9649951171875,0.08030128479003906,-0.4191269278526306,-0.27717411518096924
1773049167495974100,8.97497412109375,-0.1250743865966797,-0.12740936875343323,-0.7085685729980469
1773049167505949200,8.98494921875,1.1025867462158203,-0.8935421109199524,-0.84307861328125
1773049167515928000,8.994927978515625,0.11139869689941406,0.2556612491607666,0.8945040106773376
1773049167525903400,9.0049033203125,-0.07949638366699219,-0.21005070209503174,1.0309841632843018
1773049167535882000,9.014882080078126,-0.5482301712036133,-0.5387651920318604,-1.4463839530944824
1773049167545761800,9.02476171875,-0.3798408508300781,-0.6507795453071594,1.7303736209869385
1773049167555622700,9.03462255859375,-0.16349315643310547,-0.3111123740673065,0.9378799200057983
1773049167565811700,9.044811767578125,0.046774864196777344,-0.3151000142097473,-0.7377567291259766
1773049167575794000,9.0547939453125,0.12300491333007812,-1.0239678621292114,1.1037023067474365
1773049167585766000,9.064765869140626,-0.8371105194091797,-0.5224106311798096,-0.6930505633354187
1773049167595747000,9.0747470703125,-0.05658245086669922,-0.3728722333908081,0.22705799341201782
1773049167605720300,9.08472021484375,1.3187532424926758,-0.810562252998352,-0.00315093994140625
1773049167615700500,9.094700439453124,-0.6568450927734375,-0.30306559801101685,-0.2555975317955017
1773049167625674500,9.104674560546876,-0.9222726821899414,-0.3975253403186798,1.164035439491272
1773049167635654100,9.114654052734375,1.1282758712768555,-0.9736871719360352,-0.6306407451629639
1773049167645628700,9.124628662109375,-0.5125513076782227,-0.876370906829834,0.9102641940116882
1773049167655607800,9.13460791015625,-1.203263282775879,0.15757374465465546,0.29991233348846436
1773049167665582800,9.144582763671876,0.8625411987304688,-1.3997747898101807,0.40603184700012207
1773049167675561700,9.154561767578125,-0.27615928649902344,-1.0764142274856567,0.770065426826477
1773049167685537000,9.164537109375,-2.0084280967712402,0.012526452541351318,-1.0705807209014893
1773049167695515600,9.174515625,1.6070632934570312,-0.7586031556129456,0.7430100440979004
1773049167705395500,9.1843955078125,0.6096897125244141,-0.6324938535690308,0.7252374887466431
1773049167715256300,9.19425634765625,-1.7505974769592285,-0.5558455586433411,-0.9853100180625916
1773049167725445400,9.2044453125,0.3981494903564453,-0.6743078231811523,0.529087483882904
1773049167735427600,9.214427490234375,0.10579586029052734,-0.5746415853500366,0.1217145323753357
1773049167745307600,9.2243076171875,-0.028017044067382812,-0.6471577882766724,0.6495962142944336
1773049167755167500,9.23416748046875,-0.796778678894043,0.16468042135238647,-0.824958324432373
1773049167765353700,9.244353759765625,0.17013835906982422,-0.8001884818077087,0.6951078176498413
1773049167775338200,9.254338134765625,1.0292387008666992,-0.8486278057098389,0.9680503010749817
1773049167785308000,9.264307861328126,-1.7329072952270508,0.6385375261306763,-0.4605366289615631
1773049167795291100,9.274291015625,1.8675041198730469,-0.3605594038963318,-0.34369897842407227
1773049167805171000,9.2841708984375,0.26281070709228516,-0.4799387454986572,0.8982594013214111
1773049167815030800,9.29403076171875,-1.5758647918701172,0.010528795421123505,0.5285343527793884
1773049167825216300,9.30421630859375,0.9442844390869141,0.04158633574843407,-0.7812331318855286
1773049167835201500,9.314201416015624,0.7321004867553711,-0.6210154294967651,0.7743659019470215
1773049167845170400,9.32417041015625,-0.21991729736328125,-0.8471329212188721,0.05748254060745239
1773049167855154200,9.334154296875,-0.7111587524414062,-0.14646990597248077,-0.08777177333831787
1773049167865124900,9.344124755859376,0.9620027542114258,-0.4171042740345001,0.030736267566680908
1773049167875107000,9.354107177734376,0.7016115188598633,-1.555376648902893,0.021770596504211426
1773049167885079000,9.3640791015625,-2.2415003776550293,-0.3512125611305237,-0.08794516324996948
1773049167895060200,9.374060302734375,-0.588348388671875,-0.5259467363357544,-0.3186292052268982
1773049167904940300,9.383940185546875,1.9724512100219727,-0.7118557095527649,1.429316759109497
1773049167914800400,9.39380029296875,-0.8261051177978516,-0.7687810659408569,-0.180242121219635
1773049167924987100,9.403987060546875,-1.4733991622924805,-0.34658926725387573,0.10440981388092041
1773049167934971100,9.41397119140625,1.729395866394043,-0.9024235606193542,1.5338404178619385
1773049167944941600,9.423941650390624,0.020023345947265625,-0.45331868529319763,-0.8977217674255371
1773049167954924300,9.43392431640625,-0.9590654373168945,-0.44692516326904297,0.053728342056274414
1773049167964895700,9.443895751953125,1.0344600677490234,-1.3735703229904175,1.278123140335083
1773049167974877200,9.453877197265625,-0.5917425155639648,-0.2884122431278229,-0.424385666847229
1773049167984850000,9.463849853515624,-0.3849334716796875,-0.35995978116989136,-0.7284601330757141
1773049167994830600,9.47383056640625,0.5520458221435547,-0.8266757726669312,1.6346079111099243
1773049168004804000,9.48380419921875,-1.2400226593017578,-0.7890290021896362,-0.18923312425613403
1773049168014784000,9.493783935546874,-0.9218206405639648,-1.2592458724975586,-0.34489452838897705
1773049168024758300,9.50375830078125,0.2647237777709961,-1.728531837463379,1.4169261455535889
1773049168034737700,9.513737548828125,-0.6145219802856445,-1.253037929534912,-0.8867210149765015
1773049168044712700,9.523712646484375,-0.2883443832397461,-0.8901708126068115,0.39249324798583984
1773049168054691600,9.533691650390624,0.5914106369018555,-1.6281272172927856,0.279923677444458
1773049168064667000,9.5436669921875,-0.7950611114501953,-1.6425352096557617,-0.4337688088417053
1773049168074645200,9.553645263671875,-1.1895122528076172,-0.7897945642471313,0.7568856477737427
1773049168084621000,9.56362109375,1.4688148498535156,-1.1046444177627563,0.4096347689628601
1773049168094599200,9.57359912109375,-0.10645580291748047,-1.4582189321517944,-0.7641757726669312
1773049168104575200,9.5835751953125,-1.6390771865844727,-0.8092512488365173,1.9095724821090698
1773049168114553300,9.59355322265625,0.30884456634521484,-0.4710198640823364,-0.6060757637023926
1773049168124529400,9.603529296875,0.37455272674560547,-1.1875807046890259,0.19747567176818848
1773049168134507300,9.61350732421875,-0.35216331481933594,-0.3829646706581116,0.6249092221260071
1773049168144483600,9.623483642578124,-0.37024593353271484,-0.6053783893585205,-0.8634393215179443
1773049168154461200,9.633461181640625,1.6743717193603516,-0.7671851515769958,0.39636123180389404
1773049168164437800,9.643437744140625,-0.7174997329711914,-0.6708424687385559,0.21370774507522583
1773049168174415400,9.653415283203126,-0.3195056915283203,-0.7024803161621094,-0.8399136662483215
1773049168184392000,9.663391845703124,0.6265554428100586,-0.4774095416069031,0.814716100692749
1773049168194369500,9.67336962890625,0.1096029281616211,-0.7114569544792175,0.21067368984222412
1773049168204346000,9.68334619140625,-0.8364105224609375,-0.560333251953125,-0.34845972061157227
1773049168214323700,9.69332373046875,-0.20415592193603516,-0.37436383962631226,1.4944336414337158
1773049168224300300,9.70330029296875,1.2860603332519531,-0.4954691529273987,-0.30007731914520264
1773049168234277600,9.713277587890625,-0.23606395721435547,-0.7890087366104126,0.08779633045196533
1773049168244254500,9.72325439453125,-1.0425596237182617,-0.08650662004947662,1.1845941543579102
1773049168254231800,9.733231689453126,0.4398326873779297,-0.5137758255004883,-1.3361117839813232
1773049168264208600,9.743208740234374,0.5717945098876953,-1.1810623407363892,0.4893314838409424
1773049168274186000,9.75318603515625,-1.1436452865600586,-0.4862820506095886,0.6380801796913147
1773049168284162800,9.763162841796875,-0.415069580078125,-0.08192053437232971,-1.667818546295166
1773049168294140200,9.77314013671875,1.1713199615478516,-0.8667146563529968,2.0088119506835938
1773049168304117200,9.7831171875,-0.6556987762451172,-0.5678962469100952,0.08805114030838013
1773049168314094300,9.79309423828125,-1.6569786071777344,-0.3709799647331238,-1.0216974020004272
1773049168324071200,9.8030712890625,0.558135986328125,-0.2492230385541916,2.0473971366882324
1773049168334048500,9.813048583984376,0.5091400146484375,-0.6456738114356995,-0.061125218868255615
1773049168344025600,9.823025634765624,-1.3403644561767578,-0.6643245220184326,-0.6122872829437256
1773049168354002700,9.833002685546875,-0.018782615661621094,-0.6689756512641907,0.3210687041282654
1773049168363979500,9.8429794921875,1.8057794570922852,-0.6893055438995361,0.09141641855239868
1773049168373956900,9.852956787109376,-0.14226436614990234,-0.15956375002861023,-0.13783317804336548
1773049168383933700,9.86293359375,-0.4713134765625,-0.5318393707275391,-0.010273993015289307
1773049168393911000,9.8729111328125,-0.09781932830810547,-0.7353624701499939,-0.5808160305023193
1773049168403888000,9.88288818359375,-0.8327569961547852,-0.5372871160507202,1.3511732816696167
1773049168413865200,9.892865234375,-0.1908121109008789,-0.2313556969165802,-1.0387741327285767
1773049168423842300,9.90284228515625,-0.07624435424804688,-0.7484743595123291,-0.4617559015750885
1773049168433819400,9.9128193359375,0.8171482086181641,-0.37543022632598877,1.7887831926345825
1773049168443796500,9.92279638671875,-0.5358381271362305,0.07502097636461258,-0.430353045463562
1773049168453773600,9.932773681640626,1.040846824645996,-0.05471917986869812,-0.5445840954780579
1773049168463750400,9.94275048828125,0.16902828216552734,-0.3914797604084015,0.5404208898544312
1773049168473727500,9.9527275390625,-0.7004785537719727,0.02886418253183365,-0.11298668384552002
1773049168483704800,9.962704833984375,0.5617475509643555,-0.37848424911499023,0.03555411100387573
1773049168493682000,9.972681884765626,0.12561511993408203,-0.1149284690618515,-0.3745642304420471
1773049168503659000,9.982658935546874,-0.2807292938232422,-0.0008230656385421753,0.7872718572616577
1773049168513636000,9.992635986328125,0.7083463668823242,-0.18885329365730286,0.7838332653045654
1773049168523613200,10.00261328125,0.18085670471191406,-0.24578198790550232,-0.46632814407348633
1773049168533590300,10.01259033203125,-0.6696100234985352,-0.4654092788696289,1.0039317607879639
1773049168543567400,10.0225673828125,0.3394813537597656,-0.1031351089477539,0.030965447425842285
1773049168553544400,10.03254443359375,0.9305582046508789,-0.8446783423423767,-0.12330955266952515
1773049168563521500,10.042521484375,-0.599848747253418,-0.6651453375816345,0.0642511248588562
1773049168573498400,10.052498291015626,-0.684351921081543,-0.31568247079849243,-0.504173994064331
1773049168583475700,10.062475830078125,1.1272144317626953,-0.7667428255081177,0.9195114374160767
1773049168593452800,10.072452880859375,-0.3703031539916992,-0.29636237025260925,-0.1942092776298523
1773049168603429600,10.0824296875,-0.9902076721191406,-0.7679818868637085,-0.04189258813858032
1773049168613406700,10.09240673828125,-0.19991779327392578,-0.2370096892118454,0.7826502323150635
1773049168623384000,10.102384033203125,-0.4000253677368164,-0.49473345279693604,0.21697795391082764
1773049168633361200,10.112361083984375,0.07356834411621094,-0.8221278190612793,0.18122053146362305
1773049168643338200,10.122338134765625,-1.5548429489135742,-0.2016393393278122,0.11829239130020142
1773049168653315300,10.1323154296875,0.8794040679931641,-0.6231377124786377,-0.17446452379226685
1773049168663292400,10.14229248046875,0.7528581619262695,-0.7673341035842896,0.31523823738098145
1773049168673269500,10.15226953125,-1.0921659469604492,-0.07134424149990082,0.11782699823379517
1773049168683246300,10.162246337890625,0.7202177047729492,-0.577958881855011,0.11427515745162964
1773049168693223400,10.172223388671876,0.0830535888671875,-0.32162731885910034,0.09146153926849365
1773049168703200500,10.182200439453124,-0.6526460647583008,-0.17699860036373138,0.840409517288208
1773049168713177600,10.192177490234375,-0.08303642272949219,-0.24182343482971191,-0.12188076972961426
1773049168723154700,10.20215478515625,0.1605691909790039,-0.026429802179336548,0.4297829270362854
1773049168733131800,10.2121318359375,0.17911148071289062,-0.18310411274433136,0.13920962810516357
1773049168743108900,10.22210888671875,-0.9243907928466797,0.5250977277755737,0.2934879660606384
1773049168753086000,10.2320859375,0.7680387496948242,-0.21357101202011108,-0.6216790676116943
1773049168763063000,10.24206298828125,0.34556007385253906,-0.1157311499118805,-0.4644741415977478
1773049168773040000,10.2520400390625,0.0965108871459961,0.6171200275421143,0.7903194427490234
1773049168783017200,10.262017333984375,0.7025947570800781,-0.22615154087543488,-0.06384354829788208
1773049168792994300,10.271994384765625,-0.31682777404785156,0.2714956998825073,-0.5191050171852112
1773049168802971400,10.281971435546875,-0.5451240539550781,-0.008736938238143921,1.185011386871338
1773049168812948500,10.291948486328126,0.15305423736572266,0.25175732374191284,0.007641911506652832
1773049168822925600,10.301925537109375,0.2528419494628906,-0.4765937924385071,0.2953507900238037
1773049168832902700,10.311902587890625,-0.7364521026611328,-0.3886992931365967,-0.9382051825523376
1773049168842879700,10.321879638671875,-1.2598791122436523,0.21198555827140808,0.6480638384819031
1773049168852856800,10.33185693359375,1.3121929168701172,-0.6473983526229858,-0.023979663848876953
1773049168862834000,10.341833984375,-0.6258411407470703,-0.5420050621032715,-1.2046277523040771
1773049168872811000,10.35181103515625,-0.6669540405273438,-0.007605403661727905,0.04134082794189453
1773049168882788000,10.3617880859375,0.46695709228515625,-0.5030433535575867,0.8214790225028992
1773049168892765200,10.37176513671875,-0.04538440704345703,-0.2145010530948639,-0.17770075798034668
1773049168902742300,10.3817421875,-0.42722225189208984,-0.5382044911384583,0.3560580015182495
1773049168912719400,10.39171923828125,-0.32576465606689453,0.0021961331367492676,0.6120684742927551
1773049168922696400,10.401696533203125,0.8117456436157227,-0.49497854709625244,0.9505898356437683
1773049168932673500,10.411673583984374,-0.011392593383789062,-0.8688569664955139,0.15108489990234375
1773049168942650600,10.421650634765625,-1.095005989074707,0.2002507746219635,-1.4984679222106934
1773049168952627700,10.431627685546875,1.1956863403320312,-0.5907787084579468,0.7110673785209656
1773049168962604800,10.441604736328125,0.032749176025390625,-0.386621356010437,0.45846831798553467
1773049168972582000,10.451581787109374,-1.5716638565063477,-0.10610173642635345,-1.4680593013763428
1773049168982559000,10.46155908203125,0.4283561706542969,-0.5739058256149292,0.1548059582710266
1773049168992536000,10.4715361328125,1.1819782257080078,0.19256417453289032,1.2147581577301025
1773049169002513200,10.48151318359375,0.4578819274902344,-0.470155268907547,-0.6804653406143188
1773049169012490200,10.491490234375,-0.3502073287963867,-0.046226322650909424,0.7326902151107788
1773049169022467300,10.50146728515625,0.08992481231689453,0.17215535044670105,-0.17034637928009033
1773049169032444400,10.5114443359375,0.7821769714355469,-0.8305285573005676,1.101855993270874
1773049169042421500,10.52142138671875,-0.5424184799194336,0.21353572607040405,0.005735516548156738
1773049169052398600,10.531398681640624,-0.6410923004150391,-0.25515538454055786,-1.8599345684051514
1773049169062375700,10.541375732421875,0.626002311706543,-0.5038515329360962,1.3665714263916016
1773049169072352800,10.551352783203125,-0.4021015167236328,-0.0673910528421402,1.144254207611084
1773049169082329900,10.561329833984376,-0.5877676010131836,0.1190168485045433,-1.9497041702270508
1773049169092307000,10.571306884765624,0.530674934387207,-0.22011537849903107,0.6419183015823364
1773049169102284000,10.581283935546875,0.7444744110107422,-0.3009110689163208,2.2909815311431885
1773049169112261000,10.59126123046875,-0.8143806457519531,0.3161768913269043,-0.6343752145767212
1773049169122238000,10.601238037109376,1.2117986679077148,-0.31686511635780334,-0.21605253219604492
1773049169132215000,10.611215087890624,0.5160598754882812,-0.4109798073768616,1.4385900497436523
1773049169142153500,10.621153564453126,-1.6103324890136719,0.3349074721336365,-0.46078944206237793
1773049169152126700,10.631126708984375,0.04554462432861328,-0.5228046774864197,-0.045694172382354736
1773049169162107600,10.641107666015625,-0.39916133880615234,0.08078749477863312,-0.3566743731498718
1773049169172081400,10.651081298828124,-1.486983299255371,-0.2154366374015808,0.5782464742660522
1773049169182061800,10.661061767578126,0.07804012298583984,0.0037308484315872192,0.9601239562034607
1773049169192036400,10.671036376953126,0.24477100372314453,-0.16752363741397858,-0.7542209625244141
1773049169202015700,10.681015625,0.0053501129150390625,-0.009320199489593506,1.1103720664978027
1773049169211990800,10.69099072265625,-0.1234140396118164,0.25799232721328735,0.938126266002655
1773049169221970000,10.700969970703126,0.4542055130004883,-0.702279269695282,-1.584123969078064
1773049169231945500,10.710945556640626,0.05175590515136719,-0.5167320966720581,1.301503300666809
1773049169241963000,10.720962890625,-0.02443981170654297,0.4474049508571625,-0.7980274558067322
1773049169251942700,10.730942626953125,0.8543643951416016,-1.1890347003936768,-0.3365812301635742
1773049169261878300,10.740878173828126,-0.3317127227783203,0.24923788011074066,-0.1936989426612854
1773049169271853600,10.750853515625,-1.3716058731079102,-0.12440504133701324,-0.65274977684021
1773049169281832400,10.76083251953125,1.4734735488891602,-0.28439944982528687,1.2145681381225586
1773049169291808000,10.77080810546875,-0.6790742874145508,0.10661404579877853,-0.2644643783569336
1773049169301786600,10.78078662109375,0.2633094787597656,0.12891526520252228,-0.39496833086013794
1773049169311762400,10.790762451171876,0.9170303344726562,-0.2589868903160095,1.2058930397033691
1773049169321663200,10.800663330078125,0.28912830352783203,-0.6922805905342102,-0.3265104293823242
1773049169331631600,10.810631591796875,-0.3277587890625,0.23744919896125793,-0.9988437294960022
1773049169341578500,10.82057861328125,1.2014589309692383,-0.4402426481246948,0.5654285550117493
1773049169351544600,10.830544677734375,0.29118919372558594,-0.6387777328491211,-0.22657018899917603
1773049169361532400,10.840532470703126,-1.6101102828979492,0.3097246289253235,-0.5361409783363342
1773049169371500800,10.850500732421875,0.8486690521240234,-0.32636716961860657,-0.38426363468170166
1773049169381409000,10.860408935546875,0.4504365921020508,-0.020809590816497803,1.3277521133422852
1773049169391371500,10.87037158203125,-1.1454620361328125,0.03168417513370514,-0.06650972366333008
1773049169401324300,10.88032421875,-0.2926063537597656,0.07340081036090851,-0.3987373113632202
1773049169411285800,10.89028564453125,1.2027111053466797,-0.1061939001083374,1.058302402496338
1773049169421239800,10.90023974609375,-0.4283924102783203,-0.48645490407943726,0.026913106441497803
1773049169431200300,10.9102001953125,-0.4322957992553711,0.0243263840675354,-0.9219133853912354
1773049169441155000,10.920155029296875,0.47605037689208984,-0.49788540601730347,0.17178231477737427
1773049169451115000,10.930114990234374,0.2409496307373047,-0.020263418555259705,0.30345189571380615
1773049169461031700,10.94003173828125,-0.49493408203125,-0.18253886699676514,0.013140559196472168
1773049169470987300,10.9499873046875,-0.17865848541259766,-0.045542746782302856,-0.6395034790039062
1773049169480947000,10.959947021484375,-0.17330360412597656,0.27318325638771057,1.5958163738250732
1773049169490903000,10.969903076171875,-0.6836605072021484,-0.048229560256004333,0.19879454374313354
1773049169500862000,10.979862060546875,-0.4909677505493164,0.05681746453046799,0.28977489471435547
1773049169510818600,10.989818603515625,0.3269491195678711,-0.30316251516342163,0.4328608512878418
1773049169520777200,10.999777099609375,0.7081432342529297,-0.3926739990711212,-0.3504146933555603
1773049169530733800,11.00973388671875,-0.5683879852294922,0.28619956970214844,0.5141136646270752
1773049169540654000,11.019654052734374,1.0182723999023438,-0.5702773332595825,-0.3415932059288025
1773049169550606800,11.02960693359375,0.06053733825683594,0.02863200008869171,0.04046642780303955
1773049169560607700,11.039607666015625,-0.9660549163818359,0.06550830602645874,0.39810991287231445
1773049169570565400,11.0495654296875,0.6311302185058594,0.0019825994968414307,0.4073559045791626
1773049169580484400,11.059484375,-0.14876937866210938,0.06385371088981628,0.09342056512832642
1773049169590438400,11.0694384765625,-0.520808219909668,0.03923387825489044,0.736361563205719
1773049169600438000,11.07943798828125,-0.23768997192382812,0.4247113764286041,-0.4312363266944885
1773049169610396700,11.089396728515625,0.36937618255615234,-0.8004255890846252,1.0373404026031494
1773049169620576500,11.099576416015625,-0.027616500854492188,0.08051900565624237,-0.7172033190727234
1773049169630756600,11.109756591796875,-0.22831153869628906,-0.21259605884552002,-1.5213428735733032
1773049169640936700,11.119936767578125,2.1556129455566406,-0.4334796071052551,0.981091320514679
1773049169651043300,11.130043212890625,-0.7811145782470703,-0.07324822247028351,-0.20547741651535034
1773049169660999700,11.139999755859375,-0.3062582015991211,0.1709589958190918,-0.6025460362434387
1773049169670993400,11.149993408203125,0.37714672088623047,0.12685729563236237,0.7592769861221313
1773049169680953900,11.159953857421876,0.4810647964477539,-0.24695266783237457,0.2579123377799988
1773049169690944300,11.1699443359375,-0.9051713943481445,0.1893690675497055,0.45674318075180054
1773049169700908000,11.179907958984375,-0.3107452392578125,0.2674742043018341,-0.2840498685836792
1773049169710895900,11.189895751953125,0.9022989273071289,-0.9713257551193237,-0.11154437065124512
1773049169720862200,11.1998623046875,-0.6375646591186523,0.03037288784980774,0.3911305069923401
1773049169730848000,11.209847900390624,0.214111328125,-0.3547740876674652,-0.7936729192733765
1773049169740816600,11.219816650390625,1.2353792190551758,-0.09276387095451355,0.1286960244178772
1773049169750800400,11.22980029296875,-0.4723796844482422,-0.29327940940856934,0.39059925079345703
1773049169760770600,11.2397705078125,-0.31820106506347656,-0.07405106723308563,0.5932593941688538
1773049169770753300,11.249753173828125,0.48007774353027344,0.21044450998306274,-0.40027546882629395
1773049169780724700,11.259724853515625,0.2882366180419922,-0.5162681937217712,0.6855300664901733
1773049169790706400,11.26970654296875,-0.905792236328125,0.40715599060058594,0.7904981374740601
1773049169800679200,11.27967919921875,0.2380819320678711,-0.7754429578781128,-0.5113945007324219
1773049169810659600,11.28965966796875,1.2928075790405273,-0.5345354080200195,-0.6315938234329224
1773049169820633000,11.299633056640625,-0.987614631652832,0.23196016252040863,0.6481714844703674
1773049169830613000,11.309613037109376,0.6340541839599609,-0.27746132016181946,-0.6577318906784058
1773049169840587300,11.319587158203126,0.9370403289794922,-0.38168221712112427,-0.7118034362792969
1773049169850566700,11.329566650390625,-0.058264732360839844,-0.03621239960193634,0.9517017006874084
1773049169860580400,11.339580322265626,0.01390838623046875,0.6528661251068115,0.46731895208358765
1773049169870563000,11.34956298828125,0.8589515686035156,-0.47285789251327515,-0.5766790509223938
1773049169880495600,11.35949560546875,-0.3560466766357422,-0.26502367854118347,0.8208730816841125
1773049169890473500,11.369473388671874,-0.9996089935302734,0.4105564057826996,-0.5656980872154236
1773049169900353300,11.379353271484375,0.31138134002685547,-0.5484949350357056,0.2927483320236206
1773049169910214100,11.389214111328124,-0.11928367614746094,-0.21251839399337769,0.15839087963104248
1773049169920210000,11.3992099609375,-1.6848382949829102,-0.24912212789058685,-1.2111179828643799
1773049169930172000,11.409171875,0.9125194549560547,-0.3576270043849945,0.7779703140258789
1773049169940163800,11.419163818359374,0.8815526962280273,0.08237668126821518,0.9816218018531799
1773049169950129000,11.42912890625,-0.27188968658447266,-0.07898031175136566,-0.8154072761535645
1773049169960117800,11.43911767578125,0.12497520446777344,0.006108015775680542,1.4864826202392578
1773049169970085400,11.44908544921875,-0.9639883041381836,-0.12778176367282867,0.09868276119232178
1773049169980072000,11.459072021484374,-0.4078636169433594,0.21016541123390198,0.030003845691680908
1773049169990041300,11.469041259765625,-0.20157909393310547,-0.5160380601882935,-0.1359991431236267
1773049170000025900,11.47902587890625,-1.1084136962890625,-0.39971089363098145,-0.6198143362998962
1773049170009996800,11.488996826171874,-0.11251640319824219,-0.1941700577735901,-0.04634815454483032
1773049170019980000,11.49897998046875,0.11699581146240234,0.05434982478618622,0.23590236902236938
1773049170029952300,11.5089521484375,0.06395626068115234,0.14533914625644684,-1.142983317375183
1773049170039934200,11.518934326171875,-0.03179168701171875,-0.5411666035652161,1.186842679977417
1773049170049907200,11.5289072265625,-0.04126930236816406,0.195644348859787,0.5963931679725647
1773049170059888000,11.53888818359375,0.20667552947998047,0.05665084719657898,-0.6990025043487549
1773049170069862100,11.548862060546876,0.5117893218994141,0.08056917041540146,1.0849871635437012
1773049170079842300,11.55884228515625,-0.8743104934692383,-0.452516108751297,0.21466690301895142
1773049170089816800,11.56881689453125,-0.5190181732177734,-0.5218526721000671,-1.5590494871139526
1773049170099796500,11.57879638671875,-0.03560352325439453,-0.32470080256462097,0.41098976135253906
1773049170109771500,11.588771484375,0.18413257598876953,-0.14744655787944794,0.03326547145843506
1773049170119750400,11.59875048828125,0.1500864028930664,-0.5603544116020203,-0.20374631881713867
1773049170129726000,11.608725830078125,-0.48558807373046875,0.04892486333847046,-1.0051205158233643
1773049170139704600,11.61870458984375,0.050551414489746094,0.02555336058139801,1.643984079360962
1773049170149680400,11.628680419921874,0.790196418762207,0.2793661952018738,-0.8331968784332275
1773049170159658800,11.63865869140625,-0.14339065551757812,-0.7399454116821289,-0.4510526657104492
1773049170169634800,11.648634765625,-0.31458568572998047,0.29027360677719116,0.3057625889778137
1773049170179613000,11.658613037109374,0.22605133056640625,-0.3938073515892029,-0.05921661853790283
1773049170189589000,11.668589111328124,1.0368661880493164,-0.13340777158737183,-1.3852366209030151
1773049170199567000,11.678567138671875,-0.26927852630615234,-0.8174821138381958,0.18133544921875
1773049170209543400,11.68854345703125,-0.2113323211669922,0.24765531718730927,-1.3236373662948608
1773049170219521000,11.69852099609375,-0.02959442138671875,-0.5266069173812866,0.7747799754142761
1773049170229497600,11.70849755859375,1.2929620742797852,-0.011887401342391968,-0.37183600664138794
1773049170239475200,11.71847509765625,-1.930605411529541,0.4509871304035187,-0.8849117755889893
1773049170249451800,11.72845166015625,2.4116172790527344,-0.48712944984436035,1.3483729362487793
1773049170259429400,11.738429443359376,-1.3894376754760742,-0.2219015657901764,0.17130428552627563
1773049170269406000,11.748406005859374,-0.636199951171875,0.6935043931007385,-1.6575651168823242
1773049170279383600,11.758383544921875,0.272735595703125,-0.42342039942741394,0.2068764567375183
1773049170289360400,11.7683603515625,0.8739557266235352,-0.546610951423645,0.6698641180992126
1773049170299337700,11.778337646484376,-2.079698085784912,0.1598414033651352,-1.8520795106887817
1773049170309314600,11.788314453125,1.1738519668579102,0.050844669342041016,-0.16114050149917603
1773049170319291600,11.798291748046875,0.9767818450927734,-0.6582739949226379,2.377230644226074
1773049170329268500,11.8082685546875,-2.840381145477295,0.4914994239807129,-0.9784215688705444
1773049170339245800,11.818245849609376,0.13753700256347656,0.3063836693763733,-0.8319495916366577
1773049170349222700,11.82822265625,1.8807563781738281,-0.5518783330917358,2.283177137374878
1773049170359200000,11.838199951171875,-0.8457469940185547,0.474225252866745,-0.08896380662918091
1773049170369176800,11.8481767578125,-0.5665016174316406,-0.36847877502441406,-2.0911736488342285
1773049170379154200,11.858154296875,0.8913307189941406,-0.8256181478500366,0.4255986213684082
1773049170389131000,11.868131103515625,-0.7961969375610352,0.1495918184518814,0.7806944847106934
1773049170399108400,11.8781083984375,0.008099555969238281,0.07155445218086243,-1.0018224716186523
1773049170409085200,11.888085205078125,0.9862279891967773,-0.5863456130027771,-0.2822551131248474
1773049170419062300,11.898062255859376,-1.064702033996582,0.16912414133548737,1.4470645189285278
1773049170429039400,11.908039306640624,-0.24573898315429688,0.3529041111469269,-0.02835935354232788
1773049170439016400,11.918016357421875,1.1202974319458008,-0.1249694675207138,-0.356311559677124
1773049170448993500,11.92799365234375,-1.0166959762573242,-0.05115047097206116,0.7589493989944458
1773049170458970600,11.937970703125,-0.30251026153564453,-0.543342113494873,-0.1262323260307312
1773049170468947700,11.94794775390625,0.1797046661376953,-0.12551313638687134,-0.38863855600357056
1773049170478924800,11.9579248046875,0.15570354461669922,0.4716499447822571,0.11059224605560303
1773049170488901600,11.967901611328125,1.310359001159668,-1.4317408800125122,-1.1855673789978027
1773049170498878700,11.977878662109376,-1.6544370651245117,0.3441997468471527,-0.4828280508518219
1773049170508855800,11.987855712890624,0.44684314727783203,0.37444645166397095,2.5145936012268066
1773049170518833000,11.9978330078125,1.8865127563476562,0.10642305016517639,-0.8719004392623901
1773049170528810000,12.00781005859375,-2.5190300941467285,0.07787373661994934,-1.1711409091949463
1773049170538787000,12.017787109375,0.9064712524414062,-0.17930744588375092,1.0365283489227295
1773049170548764000,12.027763916015624,-0.2507505416870117,0.6635907292366028,-0.08922755718231201
1773049170558741200,12.0377412109375,1.1727705001831055,-0.936340868473053,-0.3952025771141052
1773049170568718000,12.047718017578125,-0.9847202301025391,-0.42685115337371826,-0.17405164241790771
1773049170578695400,12.0576953125,-0.7524824142456055,0.7372147440910339,-0.8480554223060608
1773049170588672300,12.06767236328125,1.7427053451538086,-0.4123035669326782,0.6094582676887512
1773049170598649300,12.0776494140625,-0.8401279449462891,-0.24502408504486084,0.8156108260154724
1773049170608626400,12.08762646484375,-2.461864948272705,0.5727234482765198,-1.5235241651535034
1773049170618603500,12.097603515625,1.8670339584350586,0.18505018949508667,1.1009043455123901
1773049170628580600,12.10758056640625,1.4191675186157227,-0.5957947373390198,1.6379199028015137
1773049170638557700,12.1175576171875,-1.4063615798950195,0.22914236783981323,-1.7992680072784424
1773049170648534800,12.12753466796875,-0.5528326034545898,0.03447344899177551,-1.2776566743850708
1773049170658512000,12.137511962890626,1.9563331604003906,-0.9177572727203369,2.286851644515991
1773049170668488700,12.14748876953125,-1.4866113662719727,-0.014683157205581665,-1.171665072441101
1773049170678465800,12.1574658203125,-1.344289779663086,0.3189610242843628,-1.3512601852416992
1773049170688443000,12.16744287109375,2.1033525466918945,-0.08405132591724396,0.8396140336990356
1773049170698420000,12.177419921875,-0.4650859832763672,-0.7656182050704956,1.3843246698379517
1773049170708397000,12.18739697265625,-1.7433438301086426,0.6067408323287964,-0.9420987367630005
1773049170718277000,12.197277099609375,0.8012962341308594,-0.003581896424293518,-1.348294973373413
1773049170728138200,12.20713818359375,2.647472381591797,-0.4323056936264038,1.3377659320831299
1773049170738328000,12.217328125,-1.6800127029418945,-0.22109024226665497,0.08586001396179199
1773049170748309200,12.227309326171875,-0.03724479675292969,0.07629810273647308,-1.7421658039093018
1773049170758282200,12.2372822265625,1.6912832260131836,-0.9092413783073425,-0.06511038541793823
1773049170768262700,12.2472626953125,0.07324028015136719,-0.30643630027770996,0.3311033248901367
1773049170778236400,12.257236328125,-0.6569948196411133,0.8340950012207031,-0.5941750407218933
1773049170788216000,12.267216064453125,1.264704704284668,-0.2276792675256729,0.20000874996185303
1773049170798190300,12.2771904296875,-0.7253580093383789,-0.24839922785758972,0.22303521633148193
1773049170808169700,12.287169677734376,-1.750272274017334,0.4496121406555176,0.17279350757598877
1773049170818144500,12.29714453125,0.6461658477783203,-0.00921003520488739,0.06091105937957764
1773049170828123400,12.307123291015625,1.570077896118164,-0.36262696981430054,-0.6977787017822266
1773049170838098700,12.3170986328125,-0.5589866638183594,0.05060367286205292,-0.4795628786087036
1773049170848077000,12.3270771484375,-0.4382305145263672,-0.20593570172786713,0.24273145198822021
1773049170857898000,12.33689794921875,1.5107917785644531,-0.9246413111686707,1.1668587923049927
1773049170867860700,12.34686083984375,-1.1584062576293945,0.19354961812496185,-1.742628574371338
1773049170878006800,12.3570068359375,-1.1652708053588867,0.9185523390769958,0.6088542938232422
1773049170887988000,12.366988037109374,2.635183334350586,-0.28107988834381104,3.1593873500823975
1773049170897961000,12.3769609375,-4.296998023986816,0.10099445283412933,-1.626326084136963
1773049170907941400,12.38694140625,-0.17914199829101562,0.8372238874435425,-0.9245433807373047
1773049170917915100,12.3969150390625,2.817079544067383,-0.07185789942741394,0.15774762630462646
1773049170927894800,12.406894775390626,-1.9215044975280762,-1.355875015258789,1.2485384941101074
1773049170937869000,12.416869140625,-1.1243410110473633,0.1951366513967514,-1.0900654792785645
1773049170947848400,12.426848388671875,1.0121803283691406,0.5589635372161865,-1.4572999477386475
1773049170957823200,12.4368232421875,2.3079566955566406,-0.9938668608665466,-0.26519644260406494
1773049170967802000,12.446802001953126,-2.344214916229248,0.5117267966270447,0.15301287174224854
1773049170977777400,12.45677734375,0.7757787704467773,0.1103108823299408,-0.21021801233291626
1773049170987755800,12.466755859375,1.761275291442871,0.15377627313137054,1.1096478700637817
1773049170997731600,12.476731689453125,-1.943565845489502,-0.04432293772697449,0.16358745098114014
1773049171007709700,12.486709716796875,-1.1370906829833984,-0.037962183356285095,-1.5911009311676025
1773049171017685800,12.496685791015626,0.10180282592773438,-0.39509379863739014,-0.3539852499961853
1773049171027663600,12.50666357421875,0.7080974578857422,-0.14451853930950165,-0.40005069971084595
1773049171037639700,12.5166396484375,0.5634326934814453,-0.09202682971954346,0.5809070467948914
1773049171047617500,12.526617431640625,0.28021907806396484,0.028019919991493225,-0.7961043119430542
1773049171057593900,12.53659375,1.4489259719848633,-0.26829642057418823,-0.0170973539352417
1773049171067571500,12.546571533203124,0.0748138427734375,0.06262141466140747,1.9284718036651611
1773049171077548000,12.556548095703125,0.19366455078125,0.43179574608802795,-0.8484833836555481
1773049171087525600,12.566525634765625,-0.98834228515625,-0.45415833592414856,-1.5887625217437744
1773049171097502200,12.576502197265626,-1.0963764190673828,0.23276013135910034,2.625593900680542
1773049171107479600,12.5864794921875,-1.2517786026000977,-0.06064191460609436,-1.3786848783493042
1773049171117456100,12.5964560546875,-0.18438434600830078,-0.5258020758628845,-0.9081810116767883
1773049171127433500,12.60643359375,-1.1101188659667969,0.3106215000152588,-0.2932843565940857
1773049171137410300,12.616410400390626,0.8995599746704102,-0.32103443145751953,-0.12408781051635742
1773049171147387600,12.6263876953125,0.3496694564819336,0.37745869159698486,0.772032618522644
1773049171157364500,12.636364501953125,-0.4718761444091797,0.00701729953289032,0.2892463803291321
1773049171167341600,12.646341552734375,1.3182973861694336,-0.04855215549468994,-0.6638855934143066
1773049171177318700,12.656318603515626,-0.6534013748168945,0.1158953309059143,0.7058122754096985
1773049171187295700,12.666295654296874,0.5901260375976562,-0.029259279370307922,-0.7820158004760742
1773049171197272600,12.6762724609375,-0.8443231582641602,-0.49116671085357666,-0.47837141156196594
1773049171207249700,12.686249755859375,-1.7491765022277832,0.07274864614009857,-0.7541899681091309
1773049171217226800,12.696226806640626,-0.43107032775878906,0.18277736008167267,0.3728342056274414
1773049171227203800,12.706203857421874,0.6634969711303711,-0.23591163754463196,-0.7277854084968567
1773049171237181000,12.716180908203125,0.15534210205078125,0.18461808562278748,0.1607312560081482
1773049171247158000,12.726157958984375,0.045398712158203125,0.6254151463508606,1.0699965953826904
