time,seconds_elapsed,z,y,x
1773049158696040400,0.17504052734375,-0.09813741594552994,0.027164222672581673,0.07057371735572815
1773049158706012200,0.18501220703125,-0.06085318699479103,0.10492847114801407,0.07803056389093399
1773049158726265300,0.205265380859375,0.0009321057004854083,-0.4032022953033447,-0.05512739345431328
1773049158766042000,0.2450419921875,-0.04593949392437935,0.03142527863383293,-0.007190529722720385
1773049158795992000,0.274991943359375,-0.17683376371860504,-0.01438105944544077,0.0023968431632965803
1773049158815849000,0.294848876953125,-0.04913528636097908,-0.23169484734535217,0.0002663159102667123
1773049158825729000,0.30472900390625,-0.058722659945487976,0.22623535990715027,0.03861580789089203
1773049158835879400,0.31487939453125,-0.026764748618006706,0.07297056168317795,0.004527370445430279
1773049158845933300,0.324933349609375,0.0062584239058196545,-0.3488738536834717,-0.05725792050361633
1773049158855835400,0.33483544921875,0.021172115579247475,0.13781848549842834,-0.08282424509525299
1773049158865827800,0.344827880859375,-0.02143843099474907,-0.14327795803546906,-0.04127896577119827
1773049158875789800,0.354789794921875,-0.09813741594552994,-0.1272990107536316,0.04181159660220146
1773049158885770000,0.36477001953125,-0.07044056057929993,0.4680502116680145,0.06950845569372177
1773049158895650000,0.374650146484375,-0.026764748618006706,-0.0985368862748146,0.019441060721874237
1773049158905529900,0.38452978515625,0.0009321057004854083,-0.15606112778186798,-0.008255792781710625
1773049158915465200,0.39446533203125,0.029694223776459694,0.2986733019351959,-0.015712639316916466
1773049158925423900,0.404423828125,0.037151068449020386,-0.29880645871162415,-0.016777902841567993
1773049158935604000,0.41460400390625,-0.03741738572716713,0.006924213841557503,0.016245270147919655
1773049158945717200,0.42471728515625,-0.07683213800191879,0.24114905297756195,-0.0050600022077560425
1773049158955597300,0.434597412109375,-0.04593949392437935,-0.3158506751060486,-0.015712639316916466
1773049158965477400,0.444477294921875,0.007323687430471182,0.14101427793502808,0.029028434306383133
1773049158975558000,0.454557861328125,0.02756369672715664,0.1687111258506775,0.027963170781731606
1773049158985614600,0.464614501953125,0.01904158666729927,-0.18162745237350464,0.03328948840498924
1773049158995494700,0.47449462890625,-0.02143843099474907,0.18469008803367615,0.0023968431632965803
1773049159005374700,0.484374755859375,-0.031025802716612816,-0.07616634666919708,-0.02636527456343174
1773049159015235300,0.4942353515625,0.004127896390855312,-0.0846884623169899,0.024767380207777023
1773049159025197000,0.504197021484375,-0.01504684891551733,0.15592797100543976,0.010918952524662018
1773049159035377200,0.514377197265625,-0.031025802716612816,-0.062317922711372375,-0.010386320762336254
1773049159045488000,0.524488037109375,-0.006524739786982536,-0.03994738683104515,-0.015712639316916466
1773049159055368200,0.5343681640625,0.0019973693415522575,0.03568633273243904,0.0141147430986166
1773049159065248300,0.544248291015625,0.008388951420783997,0.025033695623278618,0.024767380207777023
1773049159075097600,0.55409765625,0.0062584239058196545,-0.0037284228019416332,-0.007190529722720385
1773049159085059800,0.564059814453125,-0.039547912776470184,-0.006924213841557503,-0.030626330524683
1773049159095051500,0.574051513671875,-0.020373167470097542,-0.12197268754243851,-0.02210422046482563
1773049159105016600,0.5840166015625,0.004127896390855312,-0.026098959147930145,0.013049479573965073
1773049159115005400,0.59400537109375,0.007323687430471182,0.16977639496326447,0.036485280841588974
1773049159124973000,0.60397314453125,0.013715269044041634,-0.026098959147930145,0.020506324246525764
1773049159135153000,0.61415283203125,0.022237379103899002,-0.022903168573975563,-0.027430538088083267
1773049159145185300,0.624185302734375,0.020106852054595947,-0.05273054912686348,-0.023169483989477158
1773049159155065300,0.6340654296875,0.010519478470087051,-0.0708400309085846,-0.024234747514128685
1773049159164880400,0.64388037109375,0.012650005519390106,0.04953476041555405,0.0034621069207787514
1773049159174867500,0.653867431640625,0.02330264262855053,-0.0037284228019416332,-0.014647374860942364
1773049159184836400,0.66383642578125,0.013715269044041634,-0.03249054029583931,-0.012516847811639309
1773049159195016400,0.674016357421875,0.016911059617996216,0.03249054029583931,0.036485280841588974
1773049159205048600,0.684048583984375,0.02756369672715664,0.0751010850071907,0.013049479573965073
1773049159214928600,0.6939287109375,0.01584579609334469,-0.03994738683104515,-0.03382211923599243
1773049159224743200,0.7037431640625,-0.0022636852227151394,-0.09534109383821487,-0.03169159218668938
1773049159234923300,0.71392333984375,0.01904158666729927,-0.053795814514160156,0.010918952524662018
1773049159244955600,0.72395556640625,0.025433169677853584,0.08042740821838379,0.020506324246525764
1773049159254835700,0.733835693359375,0.011584741994738579,-0.03675159439444542,-0.015712639316916466
1773049159264650800,0.743650634765625,0.022237379103899002,-0.053795814514160156,-0.016777902841567993
1773049159274637800,0.753637939453125,0.02330264262855053,0.0037284228019416332,0.031158961355686188
1773049159284606700,0.763606689453125,0.0019973693415522575,0.07297056168317795,0.036485280841588974
1773049159294591700,0.773591796875,-0.0043942127376794815,-0.030360013246536255,-0.02210422046482563
1773049159304562200,0.783562255859375,-0.012916321866214275,-0.06870950758457184,-0.023169483989477158
1773049159314545700,0.793545654296875,0.017976323142647743,0.004793686326593161,0.019441060721874237
1773049159324517600,0.803517578125,0.021172115579247475,0.05592634156346321,0.032224226742982864
1773049159334697500,0.813697509765625,0.004127896390855312,0.04314317926764488,0.0023968431632965803
1773049159344729300,0.823729248046875,-0.023568958044052124,-0.04101264849305153,-0.028495801612734795
1773049159354609200,0.833609130859375,0.0062584239058196545,-0.11451584100723267,-0.002929474925622344
1773049159364489200,0.8434892578125,0.022237379103899002,0.07723161578178406,0.04500738903880119
1773049159374292000,0.8532919921875,0.020106852054595947,0.12410321086645126,0.03968106955289841
1773049159384252000,0.863251953125,0.024367906153202057,-0.038882121443748474,-0.007190529722720385
1773049159394432000,0.873431884765625,0.01904158666729927,-0.03675159439444542,-0.010386320762336254
1773049159404594200,0.88359423828125,0.014780532568693161,0.013315795920789242,0.03861580789089203
1773049159414549000,0.893549072265625,0.024367906153202057,0.10279794037342072,0.03009369783103466
1773049159424544000,0.9035439453125,0.028628960251808167,0.010120004415512085,-0.021038956940174103
1773049159434503200,0.913503173828125,0.021172115579247475,-0.08894951641559601,0.013049479573965073
1773049159444494300,0.923494384765625,0.021172115579247475,0.1303616315126419,0.05139897018671036
1773049159454457300,0.933457275390625,0.04034686088562012,0.08149266988039017,0.007723161485046148
1773049159464445700,0.94344580078125,0.03502054139971733,-0.18162745237350464,-0.060453712940216064
1773049159474325800,0.95332568359375,0.022237379103899002,-0.05592634156346321,-0.03808317333459854
1773049159484141600,0.9631416015625,0.01904158666729927,0.03994738683104515,0.05139897018671036
1773049159494321700,0.97332177734375,0.02756369672715664,0.17829850316047668,0.07483477145433426
1773049159504355000,0.98335498046875,0.021172115579247475,0.13142690062522888,0.027963170781731606
1773049159514319600,0.993319580078125,0.02756369672715664,-0.09001477807760239,-0.0018642114009708166
1773049159524306700,1.003306640625,0.03075948730111122,-0.02396843209862709,0.020506324246525764
1773049159534273800,1.013273681640625,0.032890014350414276,0.06444845348596573,0.015180006623268127
1773049159544258800,1.0232587890625,0.037151068449020386,-0.13795164227485657,-0.0540621280670166
1773049159554138600,1.033138671875,0.021172115579247475,-0.15606112778186798,-0.035952646285295486
1773049159563955500,1.04295556640625,0.011584741994738579,0.0708400309085846,0.04394212365150452
1773049159574135300,1.05313525390625,0.03075948730111122,0.14314480125904083,0.07590003311634064
1773049159584169200,1.063169189453125,0.04460791498422623,0.010120004415512085,0.007723161485046148
1773049159594135800,1.0731357421875,0.03821633383631706,-0.07723161578178406,-0.030626330524683
1773049159604121000,1.08312109375,0.03395527973771095,-0.0751010850071907,0.0141147430986166
1773049159614090000,1.093090087890625,0.037151068449020386,0.05592634156346321,0.048203181475400925
1773049159624073700,1.10307373046875,0.03821633383631706,0.06977476924657822,0.02583264373242855
1773049159634044200,1.113044189453125,0.003062632866203785,-0.07723161578178406,-0.02210422046482563
1773049159644026400,1.1230263671875,0.01584579609334469,-0.09960214793682098,0.005592633970081806
1773049159663979500,1.1429794921875,0.028628960251808167,0.08575372397899628,0.04607265070080757
1773049159673952300,1.1529521484375,0.03502054139971733,-0.0282294861972332,0.013049479573965073
1773049159683932700,1.1629326171875,0.041412122547626495,0.01970737800002098,0.0141147430986166
1773049159693906400,1.172906494140625,0.0456731803715229,0.0037284228019416332,0.04181159660220146
1773049159703886000,1.182885986328125,0.04780370742082596,0.01438105944544077,0.03435475379228592
1773049159713860600,1.192860595703125,-0.0043942127376794815,0.00798947736620903,-0.002929474925622344
1773049159723839700,1.20283984375,-0.020373167470097542,-0.06977476924657822,-0.002929474925622344
1773049159733814800,1.212814697265625,0.048868969082832336,-0.006924213841557503,0.019441060721874237
1773049159743793400,1.22279345703125,0.048868969082832336,0.034621067345142365,0.03328948840498924
1773049159753768700,1.232768798828125,0.0318247526884079,0.04314317926764488,0.02157158963382244
1773049159763747000,1.2427470703125,-0.02996053919196129,-0.09321057051420212,-0.01784316636621952
1773049159773723000,1.252722900390625,0.012650005519390106,-0.050600022077560425,-0.008255792781710625
1773049159783701000,1.262700927734375,0.04247738793492317,0.07190529257059097,0.008788425475358963
1773049159793676800,1.2726767578125,-0.009720530360937119,-0.0708400309085846,0.031158961355686188
1773049159803654700,1.282654541015625,-0.016112113371491432,0.14314480125904083,0.03328948840498924
1773049159813631000,1.292630859375,0.04354264959692955,-0.0282294861972332,0.0034621069207787514
1773049159823608600,1.302608642578125,0.05419528856873512,-0.12090742588043213,-0.02636527456343174
1773049159833585200,1.312585205078125,0.037151068449020386,0.07616634666919708,-0.03275685757398605
1773049159843562800,1.322562744140625,0.03608580678701401,-0.059122130274772644,0.013049479573965073
1773049159853539000,1.3325390625,0.022237379103899002,0.0942758321762085,-0.009321057237684727
1773049159863516700,1.3425166015625,0.005193160381168127,-0.033555805683135986,-0.02636527456343174
1773049159873493200,1.3524931640625,-0.05659212917089462,-0.14221268892288208,-0.0007989477599039674
1773049159883470600,1.362470703125,-0.0672447681427002,0.24541011452674866,-0.02636527456343174
1773049159893447400,1.372447509765625,0.008388951420783997,-0.030360013246536255,-0.0007989477599039674
1773049159903424800,1.3824248046875,0.021172115579247475,-0.07723161578178406,0.015180006623268127
1773049159913401300,1.3924013671875,0.04673844203352928,0.26884591579437256,-0.02636527456343174
1773049159923378700,1.402378662109375,0.05845634266734123,-0.2348906397819519,-0.0636495053768158
1773049159933355500,1.41235546875,0.05419528856873512,-0.2593916952610016,-0.1009337306022644
1773049159943332900,1.422332763671875,0.04993423447012901,0.1442100703716278,-0.1009337306022644
1773049159953309400,1.432309326171875,0.011584741994738579,-0.0942758321762085,0.008788425475358963
1773049159963286800,1.442286865234375,0.009454214945435524,0.06657897680997849,0.05033370852470398
1773049159973263600,1.452263671875,0.04460791498422623,0.39241650700569153,0.027963170781731606
1773049159983240700,1.46224072265625,0.04993423447012901,-0.03568633273243904,0.005592633970081806
1773049159993217800,1.4722177734375,0.0552605502307415,-0.04527370631694794,-0.0018642114009708166
1773049160003195000,1.48219482421875,0.0648479238152504,0.12929637730121613,-0.05299686640501022
1773049160013171700,1.492171630859375,0.08295740932226181,-0.32330751419067383,-0.1296958476305008
1773049160023148800,1.502148681640625,0.04673844203352928,-0.297741174697876,-0.10839057713747025
1773049160033126000,1.5121259765625,0.025433169677853584,0.1442100703716278,-0.0018642114009708166
1773049160043103000,1.52210302734375,0.05845634266734123,0.20919114351272583,0.060986343771219254
1773049160053080000,1.532080078125,0.06591318547725677,0.07403582334518433,0.06205160543322563
1773049160063057200,1.54205712890625,0.06378266215324402,0.0846884623169899,-0.019973693415522575
1773049160073034000,1.552033935546875,0.04780370742082596,-0.13049480319023132,-0.04980107396841049
1773049160083011000,1.562010986328125,0.04247738793492317,-0.14327795803546906,-0.009321057237684727
1773049160092988200,1.57198828125,0.05099949613213539,0.058056868612766266,-0.025300011038780212
1773049160102965200,1.58196533203125,0.03928159549832344,-0.0708400309085846,0.005592633970081806
1773049160112942300,1.5919423828125,0.028628960251808167,0.04740423336625099,0.06737792491912842
1773049160122919400,1.60191943359375,0.04247738793492317,0.21451745927333832,0.03861580789089203
1773049160132896300,1.611896240234375,0.0552605502307415,-0.13475584983825684,-0.011451584286987782
1773049160142873300,1.621873291015625,0.04993423447012901,-0.19121482968330383,-0.03488738462328911
1773049160152850400,1.631850341796875,0.05206476151943207,-0.002663159044459462,-0.016777902841567993
1773049160162827500,1.64182763671875,0.03928159549832344,-0.00798947736620903,0.0354200154542923
1773049160172804600,1.6518046875,0.04673844203352928,-0.004793686326593161,0.04713791608810425
1773049160182781700,1.66178173828125,0.03928159549832344,0.11664637178182602,0.036485280841588974
1773049160192758800,1.6717587890625,0.03821633383631706,0.04420844092965126,0.06205160543322563
1773049160202735600,1.681735595703125,0.057391077280044556,-0.059122130274772644,0.007723161485046148
1773049160212712700,1.691712646484375,0.04673844203352928,-0.08042740821838379,-0.01784316636621952
1773049160222689800,1.701689697265625,0.029694223776459694,-0.09321057051420212,0.008788425475358963
1773049160232667000,1.7116669921875,-0.012916321866214275,-0.02396843209862709,0.011984216049313545
1773049160242644000,1.72164404296875,-0.027830012142658234,-0.09001477807760239,0.023702116683125496
1773049160252621000,1.73162109375,0.025433169677853584,0.0282294861972332,0.06950845569372177
1773049160262598100,1.74159814453125,0.048868969082832336,0.037816859781742096,0.03861580789089203
1773049160272575200,1.7515751953125,0.024367906153202057,-0.12197268754243851,0.007723161485046148
1773049160282552000,1.761552001953125,0.007323687430471182,0.013315795920789242,0.05033370852470398
1773049160292529200,1.771529052734375,0.025433169677853584,0.06444845348596573,0.048203181475400925
1773049160302506200,1.78150634765625,0.0009321057004854083,-0.15180006623268127,-0.013582111336290836
1773049160312483300,1.7914833984375,0.013715269044041634,-0.08255793154239655,-0.009321057237684727
1773049160322460400,1.80146044921875,0.028628960251808167,0.006924213841557503,-0.012516847811639309
1773049160332437500,1.8114375,-0.0022636852227151394,-0.10066741704940796,0.006657897960394621
1773049160342414300,1.821414306640625,0.03928159549832344,0.061252661049366,0.015180006623268127
1773049160352391400,1.831391357421875,0.04354264959692955,0.0655137151479721,-0.0018642114009708166
1773049160362368500,1.841368408203125,-0.022503694519400597,-0.11132004857063293,-0.007190529722720385
1773049160372248600,1.85124853515625,0.007323687430471182,-0.018642114475369453,-0.040213704109191895
1773049160382109400,1.861109375,0.05419528856873512,-0.03675159439444542,-0.028495801612734795
1773049160392299500,1.871299560546875,0.0456731803715229,-0.0037284228019416332,0.008788425475358963
1773049160402281000,1.881281005859375,0.003062632866203785,0.16018901765346527,-0.015712639316916466
1773049160412253700,1.891253662109375,0.0318247526884079,-0.10705899447202682,-0.02636527456343174
1773049160422234000,1.901234130859375,0.013715269044041634,-0.07403582334518433,-0.003994738683104515
1773049160432169000,1.9111689453125,-0.02996053919196129,0.2102564126253128,-0.011451584286987782
1773049160442144800,1.921144775390625,-0.0011984215816482902,-0.14008216559886932,-0.021038956940174103
1773049160452162000,1.931162109375,-0.0043942127376794815,-0.09108003973960876,-0.010386320762336254
1773049160462142000,1.941141845703125,0.02649843320250511,0.13781848549842834,-0.003994738683104515
1773049160471960800,1.9509609375,-0.09387636184692383,-0.01651158556342125,-0.012516847811639309
1773049160481924900,1.9609248046875,-0.08855003863573074,-0.16777902841567993,-0.002929474925622344
1773049160492031200,1.97103125,-0.013981585390865803,0.09001477807760239,0.005592633970081806
1773049160502009600,1.981009521484375,0.011584741994738579,0.1346226930618286,-0.0007989477599039674
1773049160511985400,1.9909853515625,0.032890014350414276,-0.14327795803546906,-0.015712639316916466
1773049160521963500,2.000963623046875,-0.008655266836285591,-0.05699160322546959,-0.05193160101771355
1773049160531939600,2.010939697265625,-0.10239847004413605,0.06977476924657822,0.010918952524662018
1773049160541917400,2.02091748046875,-0.12157320976257324,0.06338318437337875,0.04607265070080757
1773049160551932400,2.030932373046875,-0.11944268643856049,0.0282294861972332,-0.002929474925622344
1773049160561914000,2.0409140625,-0.11837742477655411,-0.011185267940163612,-0.00612526573240757
1773049160571847700,2.05084765625,-0.058722659945487976,-0.005858949851244688,0.026897907257080078
1773049160581824500,2.060824462890625,-0.19387798011302948,0.08042740821838379,-0.019973693415522575
1773049160591801900,2.0708017578125,-0.26098960638046265,-0.10279794037342072,-0.01784316636621952
1773049160601778700,2.08077880859375,-0.1332911103963852,-0.08149266988039017,0.004527370445430279
1773049160611717000,2.090717041015625,-0.04593949392437935,0.12929637730121613,-0.05299686640501022
1773049160621690000,2.100690185546875,-0.01078579481691122,-0.22423799335956573,-0.07962846010923386
1773049160631593700,2.11059375,0.013715269044041634,-0.24554327130317688,-0.03701791167259216
1773049160641559800,2.120559814453125,0.017976323142647743,0.24008379876613617,-0.03701791167259216
1773049160651509000,2.130509033203125,0.021172115579247475,0.07829687744379044,-0.028495801612734795
1773049160661473300,2.140473388671875,0.013715269044041634,-0.12516847252845764,0.032224226742982864
1773049160671501600,2.15050146484375,0.01584579609334469,0.21132168173789978,-0.024234747514128685
1773049160681472500,2.160472412109375,0.009454214945435524,0.25499749183654785,-0.021038956940174103
1773049160691339500,2.170339599609375,0.022237379103899002,-0.19228008389472961,-0.025300011038780212
1773049160701300000,2.180300048828125,0.0318247526884079,-0.17949692904949188,-0.0870852991938591
1773049160711254800,2.1902548828125,0.029694223776459694,0.029294749721884727,-0.08921582996845245
1773049160721214700,2.200214599609375,0.021172115579247475,-0.004793686326593161,-0.024234747514128685
1773049160731170000,2.210170166015625,-0.051265813410282135,0.06657897680997849,0.02583264373242855
1773049160741129500,2.22012939453125,-0.048070020973682404,0.2102564126253128,0.03435475379228592
1773049160751085300,2.230085205078125,0.0062584239058196545,0.13888375461101532,0.04394212365150452
1773049160761044200,2.240044189453125,0.02649843320250511,0.01970737800002098,0.0023968431632965803
1773049160770924300,2.24992431640625,0.03075948730111122,-0.1411474347114563,-0.060453712940216064
1773049160780747300,2.259747314453125,0.021172115579247475,-0.14434322714805603,-0.028495801612734795
1773049160790915300,2.269915283203125,0.003062632866203785,-0.00798947736620903,0.02583264373242855
1773049160800878000,2.279878173828125,-0.09600688517093658,0.11025478690862656,0.00985368900001049
1773049160810792200,2.289792236328125,-0.07257108390331268,0.04953476041555405,0.0141147430986166
1773049160820750000,2.29975,-0.02889527566730976,-0.0015978955198079348,0.0822916179895401
1773049160830630000,2.3096298828125,-0.01717737689614296,0.13249216973781586,0.032224226742982864
1773049160840510000,2.319510009765625,-0.0011984215816482902,-0.1177116334438324,-0.0774979293346405
1773049160850390000,2.32939013671875,-0.011851058341562748,-0.4169175624847412,-0.011451584286987782
1773049160860270000,2.33927001953125,-0.019307903945446014,0.026098959147930145,0.040746334940195084
1773049160870450000,2.349449951171875,-0.042743705213069916,0.24541011452674866,-0.019973693415522575
1773049160880630000,2.359630126953125,-0.11731215566396713,-0.287088543176651,0.05352949723601341
1773049160890809900,2.369809814453125,-0.1045289933681488,-0.050600022077560425,0.11851058155298233
1773049160900854000,2.37985400390625,-0.05339634045958519,0.5063996911048889,0.02583264373242855
1773049160910873000,2.389873046875,-0.018242640420794487,-0.2721748650074005,-0.013582111336290836
1773049160920845300,2.39984521484375,-0.01078579481691122,-0.5032039284706116,0.00985368900001049
1773049160930866000,2.409865966796875,-0.016112113371491432,0.23795326054096222,-0.03488738462328911
1773049160940843000,2.419843017578125,-0.005459476262331009,0.07297056168317795,-0.024234747514128685
1773049160950781400,2.429781494140625,0.004127896390855312,-0.417982816696167,0.06737792491912842
1773049160960754400,2.43975439453125,-0.0033289489801973104,0.1537974327802658,0.023702116683125496
1773049160970735400,2.4497353515625,-0.0022636852227151394,0.3476754128932953,0.007723161485046148
1773049160980709400,2.45970947265625,-0.09174583107233047,-0.25193485617637634,0.060986343771219254
1773049160990689500,2.469689453125,-0.1375521719455719,-0.0985368862748146,0.04713791608810425
1773049161000664000,2.4796640625,-0.039547912776470184,0.31571751832962036,-0.016777902841567993
1773049161010643700,2.489643798828125,-0.07576687633991241,-0.11877689510583878,-0.023169483989477158
1773049161020618500,2.499618408203125,-0.2769685387611389,-0.29348012804985046,0.010918952524662018
1773049161030597600,2.50959765625,-0.19174745678901672,0.08788424730300903,-0.024234747514128685
1773049161040573200,2.5195732421875,-0.10559425503015518,0.12090742588043213,-0.06258423626422882
1773049161050590700,2.5295908203125,-0.08535424619913101,-0.30839383602142334,-0.04234423115849495
1773049161060570400,2.5395703125,-0.043808966875076294,-0.23276010155677795,-0.03275685757398605
1773049161070544600,2.549544677734375,-0.03315633162856102,0.11664637178182602,-0.07110634446144104
1773049161080523800,2.559523681640625,-0.03209106624126434,0.054861076176166534,-0.002929474925622344
1773049161090498800,2.569498779296875,-0.02463422156870365,-0.002663159044459462,0.011984216049313545
1773049161100477400,2.5794775390625,-0.11944268643856049,0.04101264849305153,0.0034621069207787514
1773049161110453000,2.589452880859375,-0.10559425503015518,0.1356879621744156,-0.002929474925622344
1773049161120431400,2.599431396484375,-0.016112113371491432,0.11025478690862656,-0.040213704109191895
1773049161130407200,2.6094072265625,-0.0033289489801973104,-0.19441060721874237,-0.04234423115849495
1773049161140385300,2.61938525390625,-0.008655266836285591,-0.1741705983877182,-0.016777902841567993
1773049161150361300,2.629361328125,-0.07470161467790604,0.13781848549842834,-0.05725792050361633
1773049161160339200,2.639339111328125,-0.1237037405371666,0.10918952524662018,-0.03169159218668938
1773049161170315300,2.649315185546875,-0.03315633162856102,-0.04101264849305153,0.06205160543322563
1773049161180293000,2.659293212890625,-0.006524739786982536,0.07723161578178406,-0.010386320762336254
1773049161190337300,2.669337158203125,-0.16085481643676758,0.15060164034366608,-0.06578002870082855
1773049161200321800,2.67932177734375,-0.1970737725496292,-0.09108003973960876,0.031158961355686188
1773049161210223600,2.6892236328125,-0.0906805694103241,-0.09960214793682098,0.0492684431374073
1773049161220200000,2.699199951171875,-0.06511423736810684,0.1676458716392517,-0.07643266767263412
1773049161230177800,2.709177734375,-0.01717737689614296,0.020772641524672508,-0.040213704109191895
1773049161240154000,2.719154052734375,-0.043808966875076294,-0.21784640848636627,0.04394212365150452
1773049161250132000,2.729132080078125,-0.16085481643676758,0.13355742394924164,0.04713791608810425
1773049161260108500,2.739108642578125,-0.0949416235089302,0.31252172589302063,0.00985368900001049
1773049161270086100,2.749086181640625,-0.05659212917089462,-0.015446322970092297,-0.0018642114009708166
1773049161280062700,2.759062744140625,-0.012916321866214275,-0.25193485617637634,0.02583264373242855
1773049161290040000,2.7690400390625,0.016911059617996216,-0.08894951641559601,-0.03275685757398605
1773049161300017000,2.779016845703125,0.0062584239058196545,0.06977476924657822,-0.012516847811639309
1773049161309994200,2.788994140625,-0.007590003311634064,0.1495363861322403,0.06950845569372177
1773049161319971000,2.79897119140625,0.004127896390855312,0.12716585397720337,0.056725289672613144
1773049161329948400,2.808948486328125,-0.0043942127376794815,0.08575372397899628,0.06631266325712204
1773049161339925200,2.81892529296875,-0.018242640420794487,0.13781848549842834,0.04500738903880119
1773049161349902600,2.828902587890625,-0.006524739786982536,-0.0005326318205334246,-0.02210422046482563
1773049161359879400,2.83887939453125,-0.006524739786982536,-0.23382537066936493,0.024767380207777023
1773049161369856800,2.848856689453125,-0.018242640420794487,-0.0708400309085846,0.040746334940195084
1773049161379833600,2.85883349609375,-0.02996053919196129,0.13249216973781586,0.001331579522229731
1773049161389810700,2.868810791015625,-0.06937529146671295,0.009054740890860558,0.0492684431374073
1773049161399787800,2.878787841796875,-0.06831002980470657,-0.04740423336625099,0.11424952745437622
1773049161409764900,2.888764892578125,-0.05446160212159157,0.1729721873998642,0.027963170781731606
1773049161419742000,2.898741943359375,-0.03741738572716713,0.04527370631694794,0.004527370445430279
1773049161429719000,2.908718994140625,-0.026764748618006706,-0.2583264410495758,0.06950845569372177
1773049161439696100,2.918696044921875,-0.08322372287511826,-0.13901691138744354,0.020506324246525764
1773049161449673200,2.928673095703125,-0.14607428014278412,0.0282294861972332,0.020506324246525764
1773049161459650000,2.938650146484375,-0.2024000883102417,0.022903168573975563,0.0822916179895401
1773049161469627400,2.94862744140625,-0.16724638640880585,-0.03675159439444542,0.07376950979232788
1773049161479604200,2.958604248046875,-0.13861742615699768,-0.04420844092965126,0.010918952524662018
1773049161489581300,2.968581298828125,-0.11944268643856049,-0.0985368862748146,0.023702116683125496
1773049161499558400,2.978558349609375,-0.09920267760753632,-0.15286533534526825,0.036485280841588974
1773049161509535500,2.988535400390625,-0.08641951531171799,-0.10918952524662018,0.007723161485046148
1773049161519512600,2.9985126953125,-0.06937529146671295,-0.058056868612766266,0.00985368900001049
1773049161529489700,3.00848974609375,-0.05446160212159157,-0.018642114475369453,0.06205160543322563
1773049161539466800,3.018466796875,-0.04593949392437935,0.11025478690862656,-0.009321057237684727
1773049161549443800,3.02844384765625,-0.02996053919196129,-0.06018739566206932,-0.04340949282050133
1773049161559421000,3.0384208984375,-0.022503694519400597,-0.21571588516235352,0.017310533672571182
1773049161569398000,3.04839794921875,-0.02143843099474907,0.018642114475369453,-0.011451584286987782
1773049161579374800,3.058374755859375,-0.05659212917089462,0.038882121443748474,-0.07004108279943466
1773049161589313300,3.068313232421875,-0.1970737725496292,-0.18056218326091766,-0.018908429890871048
1773049161599286300,3.078286376953125,-0.15126743912696838,-0.07829687744379044,0.0588558167219162
1773049161609306000,3.08830615234375,-0.0906805694103241,0.26884591579437256,-0.04767054691910744
1773049161619284000,3.098283935546875,-0.08961530029773712,0.03568633273243904,-0.07856319099664688
1773049161629260300,3.10826025390625,-0.06937529146671295,-0.335025429725647,0.001331579522229731
1773049161639238000,3.11823779296875,-0.11092057824134827,-0.10279794037342072,-0.05725792050361633
1773049161649214200,3.128214111328125,-0.17470324039459229,0.20812588930130005,-0.06151897460222244
1773049161659191800,3.13819189453125,-0.1322258561849594,0.04953476041555405,-0.018908429890871048
1773049161669168400,3.14816845703125,-0.12157320976257324,-0.20080219209194183,-0.016777902841567993
1773049161679146000,3.15814599609375,-0.10239847004413605,-0.04527370631694794,-0.016777902841567993
1773049161689122600,3.16812255859375,-0.08748477697372437,0.14634059369564056,-0.12223900109529495
1773049161699100000,3.178099853515625,-0.07683213800191879,-0.154995858669281,-0.05299686640501022
1773049161709076700,3.18807666015625,-0.05659212917089462,-0.25193485617637634,0.04181159660220146
1773049161719054000,3.19805419921875,-0.0576573945581913,0.15166690945625305,-0.04340949282050133
1773049161729031000,3.208031005859375,-0.06085318699479103,0.26884591579437256,-0.0966726765036583
1773049161739008000,3.218008056640625,-0.12903006374835968,-0.0751010850071907,0.04287686198949814
1773049161748984800,3.22798486328125,-0.19920429587364197,-0.11345057934522629,0.07163897901773453
1773049161758962200,3.237962158203125,-0.16405059397220612,0.10279794037342072,-0.05832318589091301
1773049161768939000,3.24793896484375,-0.1471395343542099,0.015446322970092297,-0.06151897460222244
1773049161778916400,3.257916259765625,-0.1428784877061844,-0.2487390637397766,0.05779055133461952
1773049161788893200,3.26789306640625,-0.2354232668876648,-0.07829687744379044,0.017310533672571182
1773049161798870300,3.277870361328125,-0.26951169967651367,0.1591237634420395,-0.0007989477599039674
1773049161808847400,3.287847412109375,-0.24074958264827728,0.06977476924657822,0.05992107838392258
1773049161818824400,3.297824462890625,-0.22796641290187836,-0.12516847252845764,0.040746334940195084
1773049161828801500,3.307801513671875,-0.21731378138065338,-0.12410321086645126,0.05459476262331009
1773049161838778600,3.317778564453125,-0.20985694229602814,0.018642114475369453,0.0141147430986166
1773049161848755500,3.32775537109375,-0.20559588074684143,-0.0015978955198079348,0.029028434306383133
1773049161858732500,3.337732666015625,-0.36964648962020874,-0.10066741704940796,0.056725289672613144
1773049161868709600,3.347709716796875,-0.4623244106769562,-0.04740423336625099,0.08122635632753372
1773049161878686700,3.357686767578125,-0.3802991211414337,0.07723161578178406,0.05033370852470398
1773049161888663800,3.367663818359375,-0.34088435769081116,-0.005858949851244688,-0.03382211923599243
1773049161898641000,3.377640869140625,-0.301469624042511,-0.17204007506370544,0.023702116683125496
1773049161908618000,3.387617919921875,-0.2727074921131134,-0.1454084813594818,0.08868319541215897
1773049161918595000,3.397594970703125,-0.2631201148033142,-0.022903168573975563,-0.014647374860942364
1773049161928572000,3.407572021484375,-0.2492716908454895,0.01651158556342125,-0.04554001986980438
1773049161938549000,3.417549072265625,-0.24074958264827728,-0.0282294861972332,0.04500738903880119
1773049161948526000,3.427526123046875,-0.24074958264827728,-0.010120004415512085,0.09933583438396454
1773049161958503200,3.437503173828125,-0.23861905932426453,0.01651158556342125,-0.01784316636621952
1773049161968480300,3.447480224609375,-0.24074958264827728,-0.03249054029583931,-0.0679105594754219
1773049161978457300,3.457457275390625,-0.2396843135356903,-0.09001477807760239,0.09294424951076508
1773049161988434400,3.467434326171875,-0.23755379021167755,-0.21358536183834076,0.07376950979232788
1773049161998411500,3.47741162109375,-0.2354232668876648,-0.21252009272575378,0.07483477145433426
1773049162008388400,3.487388427734375,-0.22903168201446533,-0.18056218326091766,0.026897907257080078
1773049162018365400,3.497365478515625,-0.2205095738172531,-0.15819165110588074,-0.04767054691910744
1773049162028342500,3.507342529296875,-0.2119874656200409,-0.1464737504720688,-0.008255792781710625
1773049162038319600,3.517319580078125,-0.21092219650745392,-0.1592569202184677,0.07163897901773453
1773049162048296700,3.527296630859375,-0.20879167318344116,-0.2530001103878021,0.06524740159511566
1773049162058273800,3.537273681640625,-0.20026956498622894,-0.3818970024585724,0.017310533672571182
1773049162068251000,3.5472509765625,-0.1928127259016037,-0.44887545704841614,0.0822916179895401
1773049162078228000,3.55722802734375,-0.19068218767642975,-0.3094590902328491,0.04181159660220146
1773049162088204800,3.567204833984375,-0.1981390416622162,0.16231954097747803,0.06631266325712204
1773049162098182000,3.577181884765625,-0.1928127259016037,0.08894951641559601,0.03861580789089203
1773049162108159000,3.587158935546875,-0.17683376371860504,0.005858949851244688,-0.013582111336290836
1773049162118136000,3.597135986328125,0.12663321197032928,0.00798947736620903,-0.011451584286987782
1773049162128113200,3.607113037109375,0.17030902206897736,-0.07190529257059097,0.08548741042613983
1773049162138090200,3.61709033203125,0.10639320313930511,-0.00798947736620903,0.08868319541215897
1773049162148067300,3.6270673828125,0.09574057161808014,-0.19547587633132935,0.027963170781731606
1773049162158044400,3.63704443359375,-0.03315633162856102,0.13249216973781586,0.03009369783103466
1773049162168021500,3.647021484375,-0.21731378138065338,0.17510271072387695,0.016245270147919655
1773049162177998300,3.656998291015625,-0.19174745678901672,-0.15606112778186798,0.07590003311634064
1773049162187975400,3.666975341796875,0.061652131378650665,-0.1976063996553421,0.03968106955289841
1773049162197952500,3.676952392578125,0.12450268864631653,-0.06444845348596573,0.08655267208814621
1773049162207929600,3.6869296875,-0.09707214683294296,-0.053795814514160156,0.08335687965154648
1773049162217906700,3.69690673828125,-0.06511423736810684,0.11132004857063293,-0.04234423115849495
1773049162227883800,3.7068837890625,0.04247738793492317,-0.02396843209862709,-0.10626004636287689
1773049162237860900,3.71686083984375,-0.0022636852227151394,0.13355742394924164,-0.0007989477599039674
1773049162247838000,3.726837890625,-0.05339634045958519,-0.06977476924657822,0.031158961355686188
1773049162257814800,3.736814697265625,0.03928159549832344,-0.2689790725708008,-0.023169483989477158
1773049162267792000,3.7467919921875,0.09361004084348679,-0.046338967978954315,-0.0774979293346405
1773049162277769000,3.75676904296875,-0.01504684891551733,0.26032379269599915,-0.04340949282050133
1773049162287746000,3.76674609375,-0.027830012142658234,-0.03994738683104515,-0.09560741484165192
1773049162297723100,3.77672314453125,0.06697845458984375,-0.06657897680997849,-0.06471476703882217
1773049162307700200,3.7867001953125,-0.016112113371491432,0.15486270189285278,-0.07536740601062775
1773049162317677300,3.79667724609375,-0.02996053919196129,-0.038882121443748474,-0.08282424509525299
1773049162327654400,3.806654296875,0.08402267098426819,0.029294749721884727,-0.056192658841609955
1773049162337631200,3.81663134765625,0.0009321057004854083,-0.0516652874648571,-0.11904320865869522
1773049162347608300,3.8266083984375,0.010519478470087051,0.010120004415512085,-0.05299686640501022
1773049162357585400,3.83658544921875,-0.02996053919196129,0.1452753245830536,-0.06897582113742828
1773049162367562500,3.8465625,0.04247738793492317,-0.10173267871141434,-0.09773793816566467
1773049162377539600,3.85653955078125,0.022237379103899002,0.050600022077560425,-0.06258423626422882
1773049162387516700,3.8665166015625,-0.013981585390865803,0.015446322970092297,-0.08602003753185272
1773049162397493800,3.87649365234375,0.04460791498422623,-0.10492847114801407,-0.12863057851791382
1773049162407470600,3.886470703125,-0.03741738572716713,0.05699160322546959,-0.05725792050361633
1773049162417447700,3.89644775390625,0.04780370742082596,0.1687111258506775,-0.03169159218668938
1773049162427424800,3.9064248046875,0.057391077280044556,-0.19014956057071686,-0.14567480981349945
1773049162437401900,3.91640185546875,-0.048070020973682404,0.04314317926764488,-0.04554001986980438
1773049162447379000,3.92637890625,0.0318247526884079,0.08575372397899628,-0.023169483989477158
1773049162457356000,3.93635595703125,0.017976323142647743,-0.11345057934522629,-0.07536740601062775
1773049162467333000,3.9463330078125,-0.005459476262331009,0.058056868612766266,-0.09241162240505219
1773049162477310000,3.95631005859375,-0.04487423226237297,0.06764423847198486,-0.05938844755291939
1773049162487287000,3.966287109375,0.024367906153202057,-0.0005326318205334246,-0.011451584286987782
1773049162497264000,3.97626416015625,0.07230477035045624,0.011185267940163612,-0.0732368752360344
1773049162507241200,3.9862412109375,-0.006524739786982536,-0.026098959147930145,-0.044474758207798004
1773049162517218300,3.99621826171875,-0.0043942127376794815,-0.006924213841557503,0.04607265070080757
1773049162527195400,4.0061953125,0.02756369672715664,0.10918952524662018,0.024767380207777023
1773049162537172500,4.01617236328125,0.005193160381168127,-0.08681898564100266,-0.110521100461483
1773049162547052500,4.026052490234375,0.003062632866203785,0.03675159439444542,-0.06151897460222244
1773049162556913700,4.03591357421875,-0.02143843099474907,0.12623374164104462,0.05992107838392258
1773049162567103500,4.046103515625,-0.03315633162856102,-0.018642114475369453,0.027963170781731606
1773049162577084700,4.056084716796875,0.08295740932226181,-0.2402169555425644,-0.08282424509525299
1773049162587252000,4.066251953125,-0.055526867508888245,0.005858949851244688,-0.015712639316916466
1773049162597251800,4.076251953125,-0.1502021700143814,0.48189863562583923,0.12277163565158844
1773049162607206100,4.0862060546875,-0.09174583107233047,0.14740586280822754,-0.011451584286987782
1773049162617201700,4.09620166015625,0.2480732649564743,-0.34141698479652405,-0.13289164006710052
1773049162627160300,4.106160400390625,0.29707539081573486,-0.28921908140182495,0.016245270147919655
1773049162637152300,4.11615234375,0.03821633383631706,0.3849596381187439,0.13555480539798737
1773049162647032000,4.126031982421875,-0.12263847887516022,0.12516847252845764,0.001331579522229731
1773049162656889900,4.135889892578125,-0.1045289933681488,-0.16351796686649323,0.020506324246525764
1773049162667068700,4.146068603515625,-0.12263847887516022,-0.37444016337394714,-0.04127896577119827
1773049162677059300,4.156059326171875,0.0062584239058196545,-0.09960214793682098,-0.04127896577119827
1773049162686939400,4.165939453125,0.0318247526884079,0.01438105944544077,0.07803056389093399
1773049162696797400,4.17579736328125,-0.01717737689614296,-0.14434322714805603,0.08122635632753372
1773049162706976800,4.185976806640625,-0.06191844865679741,0.06338318437337875,-0.044474758207798004
1773049162716967000,4.195966796875,-0.09281109273433685,0.06657897680997849,-0.04340949282050133
1773049162726931000,4.205930908203125,0.04780370742082596,-0.0015978955198079348,0.017310533672571182
1773049162736918500,4.21591845703125,0.20333220064640045,0.03675159439444542,-0.010386320762336254
1773049162746885000,4.225885009765625,0.025433169677853584,-0.12303794920444489,0.026897907257080078
1773049162756870700,4.23587060546875,-0.008655266836285591,-0.06444845348596573,0.07163897901773453
1773049162766839300,4.24583935546875,-0.06404897570610046,0.0037284228019416332,-0.019973693415522575
1773049162776823000,4.255822998046875,-0.0949416235089302,-0.042077913880348206,-0.011451584286987782
1773049162786793500,4.26579345703125,0.14261217415332794,-0.022903168573975563,0.05139897018671036
1773049162796776000,4.27577587890625,0.09147951751947403,-0.15393058955669403,0.020506324246525764
1773049162806747600,4.28574755859375,0.0062584239058196545,-0.20932430028915405,-0.05193160101771355
1773049162816728800,4.295728759765625,-0.14807164669036865,0.08894951641559601,0.0684431865811348
1773049162826701800,4.305701904296875,-0.15126743912696838,0.12303794920444489,0.024767380207777023
1773049162836682200,4.31568212890625,0.08295740932226181,-0.15712638199329376,-0.048735812306404114
1773049162846655700,4.32565576171875,0.02649843320250511,-0.1358211189508438,0.024767380207777023
1773049162856635600,4.3356357421875,-0.042743705213069916,0.1537974327802658,0.03861580789089203
1773049162866610000,4.34560986328125,0.011584741994738579,-0.0015978955198079348,-0.04234423115849495
1773049162876589300,4.35558935546875,-0.016112113371491432,-0.04740423336625099,-0.014647374860942364
1773049162886564000,4.365564208984375,0.011584741994738579,0.07403582334518433,0.02157158963382244
1773049162896543000,4.37554296875,-0.059787921607494354,0.06657897680997849,-0.030626330524683
1773049162906518300,4.385518310546875,-0.019307903945446014,-0.08362319320440292,-0.010386320762336254
1773049162916496600,4.39549658203125,0.05845634266734123,0.01438105944544077,0.040746334940195084
1773049162926472200,4.40547216796875,0.010519478470087051,-0.0751010850071907,-0.03914843872189522
1773049162936450600,4.415450439453125,-0.02463422156870365,-0.029294749721884727,-0.008255792781710625
1773049162946426400,4.42542626953125,-0.005459476262331009,0.09534109383821487,-0.0050600022077560425
1773049162956404200,4.435404296875,0.004127896390855312,0.0015978955198079348,0.004527370445430279
1773049162966380500,4.445380615234375,-0.007590003311634064,0.07723161578178406,0.0023968431632965803
1773049162976358400,4.4553583984375,0.005193160381168127,-0.07297056168317795,-0.048735812306404114
1773049162986334700,4.465334716796875,-0.02889527566730976,-0.03994738683104515,0.03755054250359535
1773049162996312300,4.475312255859375,-0.043808966875076294,0.12823110818862915,0.01837579719722271
1773049163006288600,4.48528857421875,0.07123950868844986,-0.11132004857063293,-0.04767054691910744
1773049163016266200,4.495266357421875,-0.02996053919196129,-0.07936213910579681,0.031158961355686188
1773049163026242800,4.505242919921875,-0.10346373170614243,0.11451584100723267,0.04181159660220146
1773049163036220200,4.51522021484375,-0.0342215932905674,0.015446322970092297,-0.04127896577119827
1773049163046197000,4.525197021484375,0.262986958026886,-0.033555805683135986,-0.0966726765036583
1773049163056174300,4.53517431640625,0.23102904856204987,0.08362319320440292,0.05352949723601341
1773049163066151200,4.545151123046875,-0.03741738572716713,0.12303794920444489,0.006657897960394621
1773049163076128300,4.555128173828125,-0.13009531795978546,-0.062317922711372375,-0.0540621280670166
1773049163086105000,4.56510498046875,-0.11944268643856049,-0.06657897680997849,0.027963170781731606
1773049163096082400,4.57508251953125,-0.0672447681427002,0.09534109383821487,-0.0050600022077560425
1773049163106059300,4.585059326171875,0.048868969082832336,0.02396843209862709,-0.011451584286987782
1773049163116036400,4.595036376953125,-0.013981585390865803,-0.029294749721884727,-0.040213704109191895
1773049163126013400,4.605013427734375,-0.03315633162856102,0.09214530140161514,0.015180006623268127
1773049163135990500,4.614990478515625,0.0009321057004854083,0.09108003973960876,-0.02636527456343174
1773049163145967400,4.62496728515625,-0.011851058341562748,-0.09640636295080185,-0.018908429890871048
1773049163155944400,4.6349443359375,0.020106852054595947,-0.03994738683104515,-0.003994738683104515
1773049163165921500,4.644921630859375,-0.04913528636097908,0.18788588047027588,-0.028495801612734795
1773049163175898600,4.654898681640625,-0.01504684891551733,0.08149266988039017,-0.06471476703882217
1773049163185875700,4.664875732421875,0.12450268864631653,0.09001477807760239,0.03435475379228592
1773049163195852800,4.674852783203125,-0.0043942127376794815,-0.04953476041555405,-0.06151897460222244
1773049163205791000,4.684791015625,-0.12050794810056686,0.053795814514160156,0.02263685315847397
1773049163215764200,4.69476416015625,-0.03315633162856102,0.07829687744379044,-0.03701791167259216
1773049163225783800,4.70478369140625,0.06271740049123764,0.020772641524672508,0.016245270147919655
1773049163235761700,4.71476171875,0.0882837250828743,-0.037816859781742096,-0.012516847811639309
1773049163245641700,4.724641845703125,-0.09387636184692383,-0.058056868612766266,-0.03701791167259216
1773049163255502300,4.73450244140625,-0.02463422156870365,0.0282294861972332,0.020506324246525764
1773049163265692000,4.74469189453125,0.03928159549832344,-0.004793686326593161,0.0034621069207787514
1773049163275673600,4.754673583984375,-0.03315633162856102,-0.16671375930309296,-0.10306425392627716
1773049163285646000,4.76464599609375,-0.0011984215816482902,0.13142690062522888,0.03968106955289841
1773049163295627000,4.774626953125,0.010519478470087051,0.2869553864002228,-0.013582111336290836
1773049163305600300,4.784600341796875,-0.04061317816376686,0.1868206113576889,-0.03701791167259216
1773049163315580200,4.794580078125,-0.06298371404409409,0.0942758321762085,-0.04980107396841049
1773049163325554200,4.80455419921875,0.009454214945435524,0.004793686326593161,0.032224226742982864
1773049163335533800,4.814533935546875,0.17670060694217682,-0.01438105944544077,-0.015712639316916466
1773049163345413600,4.82441357421875,0.009454214945435524,0.11451584100723267,0.026897907257080078
1773049163355274200,4.834274169921875,-0.07789740711450577,-0.0005326318205334246,0.0002663159102667123
1773049163365462300,4.844462158203125,-0.1428784877061844,-0.1315600574016571,0.0023968431632965803
1773049163375445200,4.8544453125,-0.027830012142658234,-0.13475584983825684,-0.021038956940174103
1773049163385416400,4.86441650390625,0.022237379103899002,-0.1272990107536316,0.060986343771219254
1773049163395398100,4.874398193359375,-0.0342215932905674,-0.1784316599369049,0.02583264373242855
1773049163405370600,4.88437060546875,0.1213068962097168,-0.30732855200767517,-0.01784316636621952
1773049163415351600,4.8943515625,0.15113428235054016,-0.2743053734302521,0.023702116683125496
1773049163425324800,4.90432470703125,0.07763108611106873,-0.20080219209194183,0.09400951862335205
1773049163435304700,4.9143046875,-0.07896266877651215,-0.2966759204864502,0.032224226742982864
1773049163445184800,4.924184814453125,-0.31212225556373596,-0.154995858669281,0.08122635632753372
1773049163455045000,4.934045166015625,-0.17257271707057953,-0.12197268754243851,-0.05938844755291939
1773049163465233000,4.94423291015625,0.1394163817167282,-0.03994738683104515,0.007723161485046148
1773049163475216100,4.954216064453125,0.12663321197032928,0.034621067345142365,0.07590003311634064
1773049163485187000,4.96418701171875,-0.031025802716612816,-0.018642114475369453,-0.003994738683104515
1773049163495169000,4.9741689453125,-0.06191844865679741,0.09640636295080185,-0.003994738683104515
1773049163505141000,4.98414111328125,0.05099949613213539,0.13888375461101532,0.03861580789089203
1773049163515122200,4.9941220703125,0.016911059617996216,0.07936213910579681,-0.008255792781710625
1773049163525095200,5.00409521484375,-0.039547912776470184,0.07297056168317795,0.020506324246525764
1773049163535075300,5.014075439453125,0.0062584239058196545,-0.04527370631694794,-0.0018642114009708166
1773049163544955400,5.023955322265625,-0.008655266836285591,0.08788424730300903,0.032224226742982864
1773049163554815700,5.033815673828125,-0.03741738572716713,0.1676458716392517,-0.07430213689804077
1773049163565003300,5.044003173828125,0.025433169677853584,0.006924213841557503,-0.023169483989477158
1773049163574986800,5.05398681640625,-0.03209106624126434,0.042077913880348206,0.06205160543322563
1773049163584957400,5.06395751953125,0.014780532568693161,-0.1464737504720688,-0.08921582996845245
1773049163594939600,5.073939697265625,-0.04913528636097908,-0.09108003973960876,-0.0050600022077560425
1773049163604911600,5.08391162109375,-0.09920267760753632,0.037816859781742096,0.024767380207777023
1773049163614892500,5.093892578125,0.0978710949420929,0.010120004415512085,-0.05193160101771355
1773049163624865800,5.10386572265625,0.11385004967451096,-0.04420844092965126,-0.04767054691910744
1773049163634846000,5.113845947265625,-0.022503694519400597,0.0516652874648571,0.013049479573965073
1773049163644819700,5.12381982421875,-0.026764748618006706,0.062317922711372375,-0.04767054691910744
1773049163654799400,5.13379931640625,-0.07683213800191879,0.018642114475369453,-0.05086633935570717
1773049163664774000,5.14377392578125,-0.043808966875076294,0.15592797100543976,-0.00612526573240757
1773049163674753000,5.1537529296875,0.04354264959692955,0.13888375461101532,-0.04234423115849495
1773049163684633000,5.163633056640625,-0.035286858677864075,0.16445007920265198,-0.029561065137386322
1773049163694513000,5.173512939453125,-0.042743705213069916,0.10492847114801407,-0.09028109163045883
1773049163704682000,5.183681884765625,0.053130023181438446,0.13888375461101532,-0.018908429890871048
1773049163714666500,5.19366650390625,-0.009720530360937119,0.2155827283859253,-0.05299686640501022
1773049163724636200,5.20363623046875,-0.06085318699479103,0.18788588047027588,-0.056192658841609955
1773049163734619100,5.213619140625,-0.07470161467790604,0.11984215676784515,-0.019973693415522575
1773049163744590300,5.22359033203125,0.022237379103899002,0.01438105944544077,-0.0913463607430458
1773049163754572000,5.233572021484375,0.2288985252380371,0.219843789935112,0.01837579719722271
1773049163764544300,5.243544189453125,0.13195952773094177,0.3221091032028198,-0.056192658841609955
1773049163774525200,5.253525146484375,0.06378266215324402,0.25499749183654785,-0.060453712940216064
1773049163784498400,5.26349853515625,0.03608580678701401,0.08681898564100266,-0.07110634446144104
1773049163794478600,5.273478515625,-0.01504684891551733,-0.022903168573975563,0.024767380207777023
1773049163804452400,5.283452392578125,-0.035286858677864075,-0.17949692904949188,-0.030626330524683
1773049163814431700,5.293431640625,0.10958899557590485,-0.0282294861972332,0.0034621069207787514
1773049163824406300,5.30340625,-0.05233107507228851,0.14207953214645386,-0.023169483989477158
1773049163834385400,5.313385498046875,0.024367906153202057,0.07829687744379044,-0.007190529722720385
1773049163844360400,5.3233603515625,0.012650005519390106,-0.1081242561340332,0.029028434306383133
1773049163854339000,5.333339111328125,-0.006524739786982536,-0.11345057934522629,0.0002663159102667123
1773049163864314600,5.343314697265625,-0.011851058341562748,-0.009054740890860558,0.006657897960394621
1773049163874292700,5.353292724609375,0.037151068449020386,0.10066741704940796,0.01837579719722271
1773049163884268500,5.3632685546875,0.011584741994738579,0.10066741704940796,-0.009321057237684727
1773049163894246700,5.37324658203125,-0.02143843099474907,-0.037816859781742096,-0.00612526573240757
1773049163904222700,5.38322265625,-0.00013315795513335615,-0.06977476924657822,-0.016777902841567993
1773049163914200600,5.39320068359375,-0.009720530360937119,0.12410321086645126,0.0492684431374073
1773049163924177000,5.403177001953125,0.0019973693415522575,-0.026098959147930145,-0.010386320762336254
1773049163934154500,5.413154541015625,-0.023568958044052124,-0.029294749721884727,-0.002929474925622344
1773049163944131000,5.423131103515625,0.01584579609334469,0.06657897680997849,0.007723161485046148
1773049163954108700,5.433108642578125,0.013715269044041634,0.0005326318205334246,0.00985368900001049
1773049163964085000,5.4430849609375,-0.018242640420794487,-0.06977476924657822,-0.0007989477599039674
1773049163974062600,5.4530625,-0.016112113371491432,-0.0015978955198079348,0.00985368900001049
1773049163984039200,5.4630390625,0.03395527973771095,0.07723161578178406,0.00985368900001049
1773049163994016500,5.4730166015625,-0.0043942127376794815,-0.1081242561340332,-0.05938844755291939
1773049164003993300,5.482993408203125,-0.0672447681427002,-0.053795814514160156,0.07163897901773453
1773049164013970400,5.492970458984375,0.008388951420783997,-0.054861076176166534,-0.0050600022077560425
1773049164023947300,5.502947265625,-0.02889527566730976,-0.20932430028915405,-0.03914843872189522
1773049164033924600,5.512924560546875,-0.16192007064819336,-0.15819165110588074,0.06950845569372177
1773049164043901400,5.5229013671875,-0.12263847887516022,-0.0655137151479721,0.010918952524662018
1773049164053878500,5.53287841796875,-0.02143843099474907,-0.01438105944544077,-0.035952646285295486
1773049164063855600,5.542855712890625,0.0062584239058196545,-0.07297056168317795,0.017310533672571182
1773049164073832700,5.552832763671875,-0.01078579481691122,-0.1837579756975174,0.05779055133461952
1773049164083809500,5.5628095703125,0.011584741994738579,-0.1368863731622696,0.019441060721874237
1773049164093786600,5.57278662109375,0.05632581561803818,0.0282294861972332,-0.008255792781710625
1773049164103763700,5.582763671875,0.012650005519390106,0.034621067345142365,0.07803056389093399
1773049164113740800,5.59274072265625,-0.008655266836285591,-0.1411474347114563,-0.012516847811639309
1773049164123718000,5.6027177734375,-0.08428898453712463,-0.17097482085227966,-0.027430538088083267
1773049164133695000,5.612695068359375,-0.0672447681427002,0.13781848549842834,0.1153147891163826
1773049164143671800,5.622671875,0.01584579609334469,0.16977639496326447,0.026897907257080078
1773049164153649000,5.63264892578125,0.0019973693415522575,-0.0037284228019416332,-0.07110634446144104
1773049164163626000,5.6426259765625,0.0456731803715229,-0.01651158556342125,0.040746334940195084
1773049164173603000,5.65260302734375,0.010519478470087051,0.19747324287891388,0.09400951862335205
1773049164183580200,5.662580078125,0.061652131378650665,0.21451745927333832,-0.048735812306404114
1773049164193557200,5.67255712890625,0.08508793264627457,0.08149266988039017,-0.04234423115849495
1773049164203534000,5.6825341796875,0.016911059617996216,-0.038882121443748474,0.05459476262331009
1773049164213511200,5.69251123046875,0.029694223776459694,-0.021837905049324036,0.0492684431374073
1773049164223488300,5.70248828125,0.013715269044041634,-0.10918952524662018,-0.05086633935570717
1773049164233465300,5.71246533203125,0.008388951420783997,0.053795814514160156,0.019441060721874237
1773049164243442200,5.722442138671875,0.024367906153202057,0.11132004857063293,0.020506324246525764
1773049164253419300,5.732419189453125,0.009454214945435524,-0.02396843209862709,-0.015712639316916466
1773049164263396400,5.742396240234375,0.03928159549832344,-0.05592634156346321,-0.03275685757398605
1773049164273373400,5.75237353515625,0.008388951420783997,-0.029294749721884727,0.005592633970081806
1773049164283350500,5.7623505859375,-0.02889527566730976,0.2613890767097473,0.05352949723601341
1773049164293327600,5.77232763671875,-0.00013315795513335615,0.28802067041397095,-0.0732368752360344
1773049164303304700,5.7823046875,0.004127896390855312,0.12716585397720337,-0.03808317333459854
1773049164313281500,5.792281494140625,0.009454214945435524,-0.038882121443748474,0.029028434306383133
1773049164323258600,5.802258544921875,0.01584579609334469,-0.04740423336625099,0.032224226742982864
1773049164333235700,5.812235595703125,0.037151068449020386,0.004793686326593161,-0.04340949282050133
1773049164343212800,5.822212890625,0.02649843320250511,0.03675159439444542,0.001331579522229731
1773049164353190000,5.83218994140625,0.008388951420783997,0.10066741704940796,-0.011451584286987782
1773049164363167000,5.8421669921875,0.017976323142647743,0.01225053146481514,0.0023968431632965803
1773049164373143800,5.852143798828125,0.05632581561803818,-0.21358536183834076,-0.04767054691910744
1773049164383121000,5.862120849609375,0.021172115579247475,-0.15393058955669403,0.05566002428531647
1773049164393098000,5.872097900390625,-0.007590003311634064,0.24647536873817444,0.03755054250359535
1773049164403036200,5.8820361328125,-0.011851058341562748,0.2390185296535492,-0.007190529722720385
1773049164413009400,5.892009521484375,0.003062632866203785,-0.029294749721884727,-0.030626330524683
1773049164423029000,5.902029052734375,0.04673844203352928,-0.3531349003314972,-0.056192658841609955
1773049164433006800,5.9120068359375,0.011584741994738579,-0.154995858669281,0.09827057272195816
1773049164442983200,5.921983154296875,0.004127896390855312,-0.03568633273243904,0.0588558167219162
1773049164452960800,5.931960693359375,0.04673844203352928,0.038882121443748474,-0.03275685757398605
1773049164462937300,5.941937255859375,0.032890014350414276,0.10599373281002045,-0.028495801612734795
1773049164472915000,5.9519150390625,0.03608580678701401,0.03568633273243904,-0.0007989477599039674
1773049164482891500,5.9618916015625,0.02756369672715664,-0.09321057051420212,0.01837579719722271
1773049164492868900,5.971868896484375,0.009454214945435524,-0.061252661049366,0.008788425475358963
1773049164502845400,5.981845458984375,-0.00013315795513335615,-0.03675159439444542,0.03755054250359535
1773049164512822800,5.99182275390625,0.007323687430471182,-0.1688442826271057,-0.003994738683104515
1773049164522799600,6.001799560546875,0.06591318547725677,-0.1933453530073166,-0.060453712940216064
1773049164532777000,6.01177685546875,0.037151068449020386,-0.011185267940163612,0.05352949723601341
1773049164542753800,6.02175390625,0.011584741994738579,0.054861076176166534,0.04607265070080757
1773049164552731000,6.03173095703125,0.0318247526884079,-0.054861076176166534,-0.030626330524683
1773049164562707700,6.041707763671875,0.007323687430471182,-0.1688442826271057,-0.011451584286987782
1773049164572685000,6.05168505859375,0.010519478470087051,-0.12303794920444489,0.0684431865811348
1773049164582662000,6.061661865234375,0.0552605502307415,-0.11664637178182602,-0.011451584286987782
1773049164592639000,6.071638916015625,0.03928159549832344,-0.07723161578178406,0.026897907257080078
1773049164602538200,6.081538330078125,0.008388951420783997,-0.0708400309085846,0.03968106955289841
1773049164612507600,6.091507568359375,0.03608580678701401,0.0846884623169899,-0.0018642114009708166
1773049164622570000,6.101570068359375,0.012650005519390106,0.2251701056957245,-0.021038956940174103
1773049164632548900,6.111548828125,-0.011851058341562748,0.1772332340478897,0.02583264373242855
1773049164642524200,6.121524169921875,0.05206476151943207,0.08362319320440292,-0.0018642114009708166
1773049164652502500,6.13150244140625,0.028628960251808167,-0.006924213841557503,-0.013582111336290836
1773049164662478300,6.141478271484375,-0.031025802716612816,0.1868206113576889,0.036485280841588974
1773049164672456400,6.15145654296875,-0.0011984215816482902,0.08681898564100266,0.001331579522229731
1773049164682432300,6.161432373046875,0.029694223776459694,-0.013315795920789242,-0.0018642114009708166
1773049164692410400,6.171410400390625,0.016911059617996216,-0.022903168573975563,0.017310533672571182
1773049164702386400,6.181386474609375,0.020106852054595947,-0.01438105944544077,0.013049479573965073
1773049164712364300,6.1913642578125,0.061652131378650665,0.1177116334438324,-0.0050600022077560425
1773049164722340600,6.201340576171875,0.048868969082832336,-0.05273054912686348,-0.025300011038780212
1773049164732318200,6.211318115234375,0.013715269044041634,0.02396843209862709,0.04181159660220146
1773049164742294800,6.221294677734375,0.012650005519390106,0.03568633273243904,0.010918952524662018
1773049164752272100,6.231272216796875,0.03928159549832344,-0.07829687744379044,-0.03808317333459854
1773049164762210000,6.2412099609375,0.028628960251808167,-0.07616634666919708,0.019441060721874237
1773049164772183600,6.25118359375,0.02649843320250511,-0.07297056168317795,-0.012516847811639309
1773049164782164000,6.2611640625,0.022237379103899002,-0.010120004415512085,0.020506324246525764
1773049164792138200,6.27113818359375,0.021172115579247475,0.005858949851244688,-0.040213704109191895
1773049164802118100,6.2811181640625,0.005193160381168127,0.0005326318205334246,-0.0018642114009708166
1773049164812093000,6.291093017578125,-0.0022636852227151394,0.34447962045669556,0.010918952524662018
1773049164822111000,6.301111083984375,-0.0033289489801973104,0.1591237634420395,-0.05832318589091301
1773049164832090000,6.311090087890625,0.009454214945435524,0.04740423336625099,0.019441060721874237
1773049164842026200,6.321026123046875,0.004127896390855312,-0.0708400309085846,0.03968106955289841
1773049164852001000,6.3310009765625,0.021172115579247475,-0.021837905049324036,-0.035952646285295486
1773049164861980400,6.34098046875,0.04247738793492317,-0.021837905049324036,-0.04234423115849495
1773049164871955700,6.350955810546875,0.0318247526884079,-0.11025478690862656,0.005592633970081806
1773049164881973200,6.36097314453125,0.005193160381168127,-0.06764423847198486,0.03968106955289841
1773049164891953000,6.370952880859375,0.0062584239058196545,-0.1315600574016571,-0.008255792781710625
1773049164901833000,6.3808330078125,0.0456731803715229,-0.08362319320440292,-0.08069372177124023
1773049164911712800,6.390712646484375,0.0456731803715229,-0.04314317926764488,0.013049479573965073
1773049164921842700,6.4008427734375,-0.01504684891551733,-0.18162745237350464,0.020506324246525764
1773049164931819800,6.41081982421875,-0.02996053919196129,-0.42970073223114014,-0.09560741484165192
1773049164941796900,6.420796875,-0.016112113371491432,-0.2860232889652252,0.004527370445430279
1773049164951774000,6.43077392578125,-0.009720530360937119,-0.2775011658668518,0.09294424951076508
1773049164961673200,6.440673095703125,0.024367906153202057,-0.3659180700778961,-0.0050600022077560425
1773049164971642600,6.450642578125,0.025433169677853584,0.18575534224510193,0.04607265070080757
1773049164981588500,6.46058837890625,-0.031025802716612816,0.41585230827331543,-0.044474758207798004
1773049164991555600,6.4705556640625,-0.03209106624126434,0.342349112033844,-0.016777902841567993
1773049165001503700,6.480503662109375,0.0009321057004854083,0.16125428676605225,-0.1573926955461502
1773049165011469000,6.490468994140625,-0.01078579481691122,0.06657897680997849,-0.03275685757398605
1773049165021458000,6.5004580078125,-0.005459476262331009,-0.020772641524672508,0.1291632205247879
1773049165031425300,6.51042529296875,0.1585911214351654,-0.006924213841557503,0.05566002428531647
1773049165041334500,6.52033447265625,0.12024163454771042,-0.046338967978954315,-0.05086633935570717
1773049165051296300,6.530296142578125,0.028628960251808167,-0.06764423847198486,0.0141147430986166
1773049165061249800,6.540249755859375,-0.06831002980470657,-0.16351796686649323,0.0023968431632965803
1773049165071210500,6.55021044921875,-0.1502021700143814,-0.04846949502825737,0.013049479573965073
1773049165081165000,6.5601650390625,-0.10772478580474854,0.2848248779773712,0.005592633970081806
1773049165091125200,6.570125244140625,-0.03848264738917351,0.2336922138929367,-0.07110634446144104
1773049165100964600,6.579964599609375,0.03928159549832344,0.1964079886674881,-0.028495801612734795
1773049165110912500,6.58991259765625,0.009454214945435524,-0.0846884623169899,0.0002663159102667123
1773049165120995300,6.599995361328125,0.014780532568693161,-0.30306750535964966,0.0141147430986166
1773049165130957000,6.60995703125,0.06058686971664429,-0.14860427379608154,-0.0050600022077560425
1773049165140837000,6.619837158203125,0.061652131378650665,-0.004793686326593161,-0.0018642114009708166
1773049165150717000,6.629717041015625,0.005193160381168127,0.01651158556342125,0.0023968431632965803
1773049165160597000,6.639596923828125,0.009454214945435524,-0.042077913880348206,-0.014647374860942364
1773049165170477000,6.64947705078125,0.024367906153202057,0.027164222672581673,-0.015712639316916466
1773049165180357000,6.659357177734375,-0.0011984215816482902,0.15805849432945251,-0.010386320762336254
1773049165190237000,6.66923681640625,-0.011851058341562748,-0.018642114475369453,-0.019973693415522575
1773049165200117000,6.679116943359375,0.003062632866203785,0.03675159439444542,0.013049479573965073
1773049165209997000,6.6889970703125,-0.0011984215816482902,-0.037816859781742096,-0.003994738683104515
1773049165220177200,6.69917724609375,0.005193160381168127,-0.06764423847198486,0.0023968431632965803
1773049165230357000,6.70935693359375,-0.009720530360937119,0.1081242561340332,0.0354200154542923
1773049165240537000,6.719537109375,-0.013981585390865803,0.0015978955198079348,0.005592633970081806
1773049165250717000,6.729717041015625,0.03395527973771095,-0.04101264849305153,-0.023169483989477158
1773049165260867800,6.739867919921875,0.010519478470087051,0.006924213841557503,-0.002929474925622344
1773049165270846500,6.749846435546875,0.014780532568693161,-0.09001477807760239,-0.011451584286987782
1773049165280861000,6.75986083984375,0.010519478470087051,-0.0985368862748146,0.0023968431632965803
1773049165290843100,6.769843017578125,0.0009321057004854083,-0.013315795920789242,0.031158961355686188
1773049165300776200,6.779776123046875,0.0691089779138565,-0.1038632020354271,-0.08921582996845245
1773049165310753500,6.78975341796875,0.011584741994738579,-0.12410321086645126,-0.011451584286987782
1773049165320730400,6.79973046875,-0.022503694519400597,0.011185267940163612,0.07590003311634064
1773049165330707700,6.809707763671875,0.025433169677853584,-0.26045694947242737,-0.06897582113742828
1773049165340684500,6.8196845703125,0.011584741994738579,-0.10492847114801407,0.001331579522229731
1773049165350662000,6.829661865234375,0.012650005519390106,-0.027164222672581673,0.01837579719722271
1773049165360638700,6.839638671875,0.011584741994738579,-0.12836426496505737,-0.013582111336290836
1773049165370615800,6.84961572265625,-0.0043942127376794815,0.13675321638584137,0.005592633970081806
1773049165380593000,6.859593017578125,0.01584579609334469,0.11132004857063293,-0.06151897460222244
1773049165390570000,6.869570068359375,-0.0011984215816482902,0.010120004415512085,-0.0007989477599039674
1773049165400585700,6.879585693359375,-0.0033289489801973104,0.033555805683135986,0.040746334940195084
1773049165410567000,6.88956689453125,0.029694223776459694,-0.04953476041555405,-0.018908429890871048
1773049165420540000,6.899539794921875,0.0062584239058196545,-0.027164222672581673,-0.025300011038780212
1773049165430520300,6.909520263671875,-0.016112113371491432,0.10173267871141434,0.03435475379228592
1773049165440494000,6.919494140625,-0.011851058341562748,0.20279955863952637,0.02157158963382244
1773049165450473700,6.9294736328125,0.003062632866203785,-0.020772641524672508,-0.044474758207798004
1773049165460448300,6.9394482421875,0.03928159549832344,-0.01225053146481514,-0.013582111336290836
1773049165470427400,6.949427490234375,0.0019973693415522575,0.037816859781742096,0.06631266325712204
1773049165480402400,6.95940234375,-0.01504684891551733,-0.1603221744298935,-0.018908429890871048
1773049165490381300,6.96938134765625,0.01904158666729927,-0.19547587633132935,-0.028495801612734795
1773049165500261400,6.979261474609375,0.005193160381168127,-0.03142527863383293,0.07590003311634064
1773049165510079700,6.989079833984375,0.003062632866203785,0.12929637730121613,-0.009321057237684727
1773049165520259800,6.999259765625,-0.0011984215816482902,0.0708400309085846,-0.03914843872189522
1773049165530294000,7.0092939453125,-0.009720530360937119,0.015446322970092297,0.0023968431632965803
1773049165540265000,7.019264892578125,0.013715269044041634,0.006924213841557503,0.00985368900001049
1773049165550247000,7.029246826171875,-0.0022636852227151394,-0.12623374164104462,0.00985368900001049
1773049165560219100,7.03921923828125,-0.01078579481691122,-0.04740423336625099,0.04181159660220146
1773049165580173300,7.05917333984375,-0.0022636852227151394,0.09001477807760239,-0.011451584286987782
1773049165590153500,7.069153564453125,-0.01717737689614296,0.0005326318205334246,0.05779055133461952
1773049165600127500,7.07912744140625,0.024367906153202057,-0.20399798452854156,-0.030626330524683
1773049165610107100,7.089107177734375,0.032890014350414276,-0.17097482085227966,0.00985368900001049
1773049165620081700,7.09908154296875,-0.026764748618006706,-0.004793686326593161,0.05459476262331009
1773049165630060800,7.109060791015625,0.021172115579247475,-0.03249054029583931,-0.019973693415522575
1773049165640035800,7.119035888671875,0.022237379103899002,-0.09321057051420212,-0.044474758207798004
1773049165650014700,7.1290146484375,-0.01504684891551733,0.19534271955490112,0.04607265070080757
1773049165659894500,7.13889453125,-0.0043942127376794815,0.24008379876613617,-0.01784316636621952
1773049165669755600,7.148755615234375,0.010519478470087051,0.0942758321762085,-0.027430538088083267
1773049165679944200,7.158944091796875,0.0009321057004854083,0.27417221665382385,0.011984216049313545
1773049165689926400,7.168926513671875,-0.03635212033987045,0.3082606792449951,-0.003994738683104515
1773049165699898400,7.1788984375,-0.03209106624126434,0.08255793154239655,-0.06258423626422882
1773049165709879600,7.188879638671875,0.032890014350414276,-0.04420844092965126,-0.04980107396841049
1773049165719852500,7.1988525390625,0.02330264262855053,-0.04953476041555405,0.06631266325712204
1773049165729833000,7.2088330078125,0.020106852054595947,-0.2498043179512024,-0.0018642114009708166
1773049165739806700,7.218806640625,0.05099949613213539,-0.3254380524158478,-0.029561065137386322
1773049165749786600,7.22878662109375,0.04354264959692955,-0.2583264410495758,0.04607265070080757
1773049165759761000,7.238760986328125,0.004127896390855312,0.10173267871141434,0.0588558167219162
1773049165769740300,7.248740234375,0.020106852054595947,-0.033555805683135986,-0.029561065137386322
1773049165779715000,7.258715087890625,0.005193160381168127,-0.04846949502825737,-0.02636527456343174
1773049165789694000,7.26869384765625,-0.008655266836285591,0.13888375461101532,0.052464235574007034
1773049165799669500,7.27866943359375,0.03928159549832344,-0.11238531768321991,-0.023169483989477158
1773049165809647900,7.28864794921875,0.02649843320250511,-0.13049480319023132,0.02263685315847397
1773049165819623400,7.29862353515625,-0.019307903945446014,-0.061252661049366,0.06950845569372177
1773049165829601800,7.308601806640625,0.016911059617996216,-0.2018674612045288,-0.06471476703882217
1773049165839577900,7.318577880859375,0.053130023181438446,-0.10599373281002045,0.008788425475358963
1773049165849555700,7.3285556640625,0.014780532568693161,0.0005326318205334246,0.0822916179895401
1773049165859532000,7.338531982421875,0.05206476151943207,-0.09534109383821487,-0.00612526573240757
1773049165869510000,7.348510009765625,0.08721846342086792,0.018642114475369453,-0.029561065137386322
1773049165879486200,7.358486328125,0.01904158666729927,0.07723161578178406,0.03435475379228592
1773049165889463800,7.3684638671875,-0.019307903945446014,-0.04314317926764488,-0.013582111336290836
1773049165899440400,7.3784404296875,-0.022503694519400597,0.0005326318205334246,-0.019973693415522575
1773049165909418000,7.38841796875,-0.047004759311676025,0.07190529257059097,0.04287686198949814
1773049165919394600,7.39839453125,0.007323687430471182,-0.03568633273243904,-0.009321057237684727
1773049165929372200,7.4083720703125,0.11065425723791122,-0.08362319320440292,-0.06258423626422882
1773049165939348700,7.4183486328125,0.032890014350414276,-0.01651158556342125,0.0492684431374073
1773049165949326000,7.428326171875,-0.006524739786982536,-0.06657897680997849,0.03435475379228592
1773049165959303000,7.438302978515625,-0.0011984215816482902,-0.12836426496505737,-0.00612526573240757
1773049165979257000,7.458257080078125,-0.0022636852227151394,0.12197268754243851,0.02583264373242855
1773049165989234400,7.468234375,0.0009321057004854083,0.01651158556342125,-0.014647374860942364
1773049165999211300,7.478211181640625,-0.01078579481691122,-0.026098959147930145,-0.002929474925622344
1773049166009188600,7.488188720703125,-0.0033289489801973104,-0.015446322970092297,0.023702116683125496
1773049166019068700,7.498068603515625,0.0019973693415522575,-0.03568633273243904,-0.007190529722720385
1773049166028930000,7.507929931640625,0.004127896390855312,-0.061252661049366,-0.01784316636621952
1773049166039119600,7.51811962890625,-0.027830012142658234,0.026098959147930145,0.04607265070080757
1773049166049101000,7.52810107421875,-0.009720530360937119,0.011185267940163612,0.017310533672571182
1773049166059073800,7.53807373046875,0.0552605502307415,-0.09640636295080185,-0.048735812306404114
1773049166069054500,7.548054443359375,0.007323687430471182,0.013315795920789242,0.029028434306383133
1773049166079028000,7.558028076171875,-0.01717737689614296,0.038882121443748474,0.03968106955289841
1773049166089007900,7.5680078125,0.0456731803715229,-0.09960214793682098,-0.04340949282050133
1773049166098982400,7.577982421875,-0.0022636852227151394,-0.00798947736620903,0.007723161485046148
1773049166108961500,7.58796142578125,-0.008655266836285591,0.22197431325912476,0.04607265070080757
1773049166118841600,7.597841552734375,0.021172115579247475,0.010120004415512085,-0.03701791167259216
1773049166128702700,7.60770263671875,0.0009321057004854083,0.04527370631694794,-0.012516847811639309
1773049166138890500,7.617890380859375,-0.01504684891551733,0.06870950758457184,0.010918952524662018
1773049166148873200,7.627873291015625,-0.031025802716612816,0.04101264849305153,0.036485280841588974
1773049166158753300,7.637753173828125,0.014780532568693161,0.02396843209862709,-0.016777902841567993
1773049166178822100,7.657822265625,-0.012916321866214275,0.19427745044231415,0.07057371735572815
1773049166188775400,7.667775390625,-0.012916321866214275,0.3380880355834961,0.015180006623268127
1773049166198771700,7.677771728515625,0.02756369672715664,0.12623374164104462,-0.06684529036283493
1773049166208651800,7.68765185546875,-0.009720530360937119,0.14740586280822754,0.027963170781731606
1773049166218509300,7.69750927734375,-0.03315633162856102,0.19960378110408783,0.056725289672613144
1773049166228684000,7.70768408203125,0.013715269044041634,-0.033555805683135986,-0.027430538088083267
1773049166238677800,7.717677734375,0.009454214945435524,-0.04101264849305153,-0.0050600022077560425
1773049166248638500,7.727638427734375,-0.0033289489801973104,0.19321219623088837,0.0354200154542923
1773049166258628900,7.73762890625,-0.00013315795513335615,0.1868206113576889,-0.016777902841567993
1773049166268592600,7.747592529296875,-0.009720530360937119,0.038882121443748474,-0.016777902841567993
1773049166278580500,7.75758056640625,0.009454214945435524,-0.002663159044459462,0.03755054250359535
1773049166288547000,7.767547119140625,0.008388951420783997,-0.11984215676784515,0.03861580789089203
1773049166298532600,7.77753271484375,0.010519478470087051,-0.17523586750030518,0.01837579719722271
1773049166308412700,7.78741259765625,0.010519478470087051,-0.03568633273243904,0.027963170781731606
1773049166318272300,7.797272216796875,-0.0043942127376794815,0.24114905297756195,0.005592633970081806
1773049166328455400,7.807455322265625,0.007323687430471182,0.04846949502825737,-0.05193160101771355
1773049166338442000,7.81744189453125,-0.01078579481691122,0.03142527863383293,0.01837579719722271
1773049166348409600,7.82740966796875,-0.016112113371491432,0.029294749721884727,0.02583264373242855
1773049166358394400,7.837394287109375,0.028628960251808167,-0.02396843209862709,-0.04127896577119827
1773049166368364000,7.847364013671875,0.009454214945435524,-0.058056868612766266,0.0141147430986166
1773049166378347300,7.85734716796875,-0.02463422156870365,0.009054740890860558,0.027963170781731606
1773049166388318200,7.867318115234375,0.01904158666729927,0.038882121443748474,-0.040213704109191895
1773049166398300200,7.877300048828125,0.02756369672715664,0.00798947736620903,0.00985368900001049
1773049166408272400,7.8872724609375,-0.01717737689614296,-0.0846884623169899,0.02583264373242855
1773049166418253600,7.897253662109375,-0.03741738572716713,-0.01651158556342125,0.024767380207777023
1773049166428226800,7.907226806640625,-0.01717737689614296,0.07829687744379044,0.013049479573965073
1773049166438207000,7.91720703125,0.005193160381168127,-0.05699160322546959,-0.009321057237684727
1773049166448181000,7.927180908203125,-0.0033289489801973104,-0.09960214793682098,-0.04340949282050133
1773049166458160600,7.93716064453125,-0.012916321866214275,0.05592634156346321,-0.009321057237684727
1773049166468135200,7.94713525390625,-0.02569948509335518,0.06870950758457184,0.017310533672571182
1773049166478114300,7.9571142578125,-0.023568958044052124,0.03675159439444542,0.02157158963382244
1773049166488089600,7.967089599609375,0.0318247526884079,-0.11984215676784515,-0.04767054691910744
1773049166498068200,7.977068115234375,0.04354264959692955,-0.061252661049366,0.006657897960394621
1773049166508043800,7.987043701171875,-0.009720530360937119,0.04953476041555405,0.060986343771219254
1773049166518022100,7.997022216796875,-0.0043942127376794815,-0.04527370631694794,-0.019973693415522575
1773049166527998000,8.006998046875,0.003062632866203785,-0.04846949502825737,-0.044474758207798004
1773049166537976000,8.01697607421875,-0.035286858677864075,0.07829687744379044,0.03009369783103466
1773049166547952000,8.0269521484375,0.01904158666729927,-0.07616634666919708,-0.011451584286987782
1773049166557930000,8.036929931640625,0.03821633383631706,-0.0751010850071907,-0.03914843872189522
1773049166567906300,8.04690625,-0.00013315795513335615,0.08575372397899628,0.0023968431632965803
1773049166577884200,8.05688427734375,-0.008655266836285591,0.08681898564100266,0.02157158963382244
1773049166587860700,8.06686083984375,0.008388951420783997,-0.03568633273243904,-0.044474758207798004
1773049166597838300,8.07683837890625,0.0318247526884079,-0.026098959147930145,-0.029561065137386322
1773049166607718400,8.086718505859375,-0.0033289489801973104,0.01970737800002098,0.03755054250359535
1773049166617579500,8.09657958984375,-0.005459476262331009,0.1346226930618286,-0.003994738683104515
1773049166627768800,8.106768798828124,0.01584579609334469,0.01651158556342125,-0.05938844755291939
1773049166637750500,8.11675048828125,-0.016112113371491432,-0.05592634156346321,0.005592633970081806
1773049166647723000,8.126722900390625,-0.01504684891551733,0.09534109383821487,0.01837579719722271
1773049166657704000,8.136703857421875,0.003062632866203785,0.12823110818862915,-0.035952646285295486
1773049166667677200,8.14667724609375,-0.016112113371491432,-0.018642114475369453,-0.023169483989477158
1773049166677657300,8.1566572265625,-0.01504684891551733,0.11558110266923904,0.04500738903880119
1773049166687631600,8.166631591796875,-0.013981585390865803,0.11984215676784515,-0.018908429890871048
1773049166697611000,8.176611083984374,0.0009321057004854083,-0.04740423336625099,-0.018908429890871048
1773049166707585800,8.186585693359374,-0.00013315795513335615,-0.03249054029583931,0.04500738903880119
1773049166717564700,8.196564697265625,0.0062584239058196545,-0.09321057051420212,0.005592633970081806
1773049166727540000,8.2065400390625,0.013715269044041634,-0.08255793154239655,-0.028495801612734795
1773049166737518600,8.2165185546875,-0.01504684891551733,0.10918952524662018,0.036485280841588974
1773049166747494400,8.226494384765624,0.0019973693415522575,0.0005326318205334246,-0.018908429890871048
1773049166757472500,8.236472412109375,-0.006524739786982536,-0.020772641524672508,-0.002929474925622344
1773049166767448600,8.246448486328125,-0.020373167470097542,0.17936377227306366,0.03009369783103466
1773049166777426700,8.2564267578125,0.020106852054595947,0.09214530140161514,-0.025300011038780212
1773049166787402800,8.26640283203125,0.009454214945435524,-0.030360013246536255,0.015180006623268127
1773049166797380600,8.276380615234375,-0.008655266836285591,0.0037284228019416332,0.03328948840498924
1773049166807357000,8.28635693359375,0.01904158666729927,-0.017576850950717926,0.010918952524662018
1773049166817334800,8.296334716796874,0.02756369672715664,-0.010120004415512085,-0.003994738683104515
1773049166827311000,8.30631103515625,-0.00013315795513335615,0.005858949851244688,0.020506324246525764
1773049166837288700,8.316288818359375,-0.0022636852227151394,0.053795814514160156,0.007723161485046148
1773049166847265500,8.326265625,0.007323687430471182,-0.06338318437337875,-0.016777902841567993
1773049166857243000,8.336242919921874,-0.0043942127376794815,0.004793686326593161,0.0141147430986166
1773049166867413800,8.346413818359375,-0.020373167470097542,0.058056868612766266,0.010918952524662018
1773049166877411000,8.3564111328125,-0.01717737689614296,0.050600022077560425,-0.02636527456343174
1773049166887368200,8.3663681640625,0.004127896390855312,-0.050600022077560425,-0.028495801612734795
1773049166897361400,8.376361328125,-0.02996053919196129,0.033555805683135986,0.052464235574007034
1773049166907241500,8.386241455078125,-0.01504684891551733,0.034621067345142365,0.007723161485046148
1773049166917099000,8.39609912109375,-0.00013315795513335615,-0.059122130274772644,-0.028495801612734795
1773049166927276500,8.406276611328124,-0.012916321866214275,-0.06870950758457184,0.007723161485046148
1773049166937268200,8.416268310546876,-0.016112113371491432,0.08149266988039017,0.031158961355686188
1773049166947231000,8.42623095703125,-0.013981585390865803,-0.03675159439444542,-0.013582111336290836
1773049166957219600,8.436219482421874,-0.01078579481691122,-0.11877689510583878,-0.016777902841567993
1773049166967185200,8.44618505859375,-0.02996053919196129,0.004793686326593161,0.04181159660220146
1773049166977171700,8.456171630859375,-0.02143843099474907,0.01225053146481514,-0.003994738683104515
1773049166987139600,8.4661396484375,-0.006524739786982536,-0.0708400309085846,-0.03382211923599243
1773049166997124000,8.4761240234375,-0.018242640420794487,-0.08575372397899628,0.026897907257080078
1773049167007093800,8.48609375,-0.011851058341562748,-0.03142527863383293,0.010918952524662018
1773049167017077000,8.496076904296874,-0.01078579481691122,-0.01651158556342125,-0.002929474925622344
1773049167027048200,8.506048095703125,-0.012916321866214275,-0.004793686326593161,-0.0018642114009708166
1773049167037030000,8.51602978515625,-0.01078579481691122,-0.022903168573975563,0.00985368900001049
1773049167047002400,8.52600244140625,-0.018242640420794487,0.015446322970092297,0.013049479573965073
1773049167056983300,8.5359833984375,-0.013981585390865803,-0.07190529257059097,-0.025300011038780212
1773049167066956500,8.54595654296875,-0.02143843099474907,-0.006924213841557503,0.017310533672571182
1773049167076936700,8.555936767578125,-0.026764748618006706,0.03994738683104515,-0.0007989477599039674
1773049167086910700,8.56591064453125,-0.011851058341562748,-0.03568633273243904,-0.035952646285295486
1773049167096890400,8.575890380859375,-0.02143843099474907,-0.009054740890860558,-0.009321057237684727
1773049167106865200,8.585865234375,-0.023568958044052124,0.025033695623278618,0.0002663159102667123
1773049167116844000,8.595843994140624,-0.01717737689614296,0.0516652874648571,-0.015712639316916466
1773049167126819300,8.6058193359375,-0.018242640420794487,-0.06338318437337875,-0.016777902841567993
1773049167136798000,8.6157978515625,-0.020373167470097542,-0.042077913880348206,0.005592633970081806
1773049167146773500,8.6257734375,-0.02889527566730976,0.06018739566206932,0.023702116683125496
1773049167156752000,8.635751953125,-0.020373167470097542,-0.06444845348596573,-0.02210422046482563
1773049167166727700,8.645727783203125,-0.03848264738917351,-0.04314317926764488,-0.002929474925622344
1773049167176705800,8.655705810546875,-0.04487423226237297,0.025033695623278618,0.02583264373242855
1773049167186681900,8.665681884765625,-0.02143843099474907,-0.04953476041555405,-0.01784316636621952
1773049167196660000,8.675659912109374,-0.03315633162856102,-0.021837905049324036,0.001331579522229731
1773049167206539800,8.685539794921874,-0.026764748618006706,0.030360013246536255,0.005592633970081806
1773049167216400600,8.695400634765624,-0.01717737689614296,-0.06018739566206932,0.006657897960394621
1773049167226590200,8.705590087890625,-0.02463422156870365,0.034621067345142365,0.015180006623268127
1773049167236572200,8.715572265625,-0.013981585390865803,-0.08149266988039017,-0.015712639316916466
1773049167246544400,8.72554443359375,-0.023568958044052124,0.01438105944544077,0.024767380207777023
1773049167256525300,8.735525390625,-0.018242640420794487,-0.027164222672581673,-0.014647374860942364
1773049167266498800,8.745498779296875,-0.027830012142658234,0.009054740890860558,0.00985368900001049
1773049167276479000,8.75547900390625,-0.026764748618006706,0.03675159439444542,0.001331579522229731
1773049167286453000,8.765452880859375,-0.018242640420794487,-0.037816859781742096,-0.012516847811639309
1773049167296432400,8.775432373046876,-0.02996053919196129,0.034621067345142365,0.008788425475358963
1773049167306312400,8.7853125,-0.01504684891551733,0.050600022077560425,-0.016777902841567993
1773049167316173000,8.795173095703126,-0.005459476262331009,-0.01225053146481514,0.0023968431632965803
1773049167326361300,8.805361328125,-0.022503694519400597,-0.04314317926764488,0.0034621069207787514
1773049167336344000,8.815343994140624,-0.016112113371491432,0.01438105944544077,-0.009321057237684727
1773049167346224000,8.82522412109375,-0.019307903945446014,0.034621067345142365,0.010918952524662018
1773049167356084000,8.835083984375,-0.018242640420794487,0.05592634156346321,-0.009321057237684727
1773049167366269700,8.845269775390625,-0.02996053919196129,-0.06338318437337875,-0.010386320762336254
1773049167376254700,8.855254638671875,-0.04487423226237297,0.09747162461280823,0.017310533672571182
1773049167386223900,8.865223876953126,-0.0033289489801973104,0.08788424730300903,-0.03275685757398605
1773049167396207400,8.875207275390625,-0.016112113371491432,-0.03568633273243904,-0.002929474925622344
1773049167406178000,8.885177978515625,-0.03209106624126434,0.04314317926764488,0.026897907257080078
1773049167416160300,8.89516015625,-0.01717737689614296,-0.009054740890860558,-0.0018642114009708166
1773049167426132200,8.90513232421875,-0.02143843099474907,-0.033555805683135986,0.001331579522229731
1773049167436113700,8.91511376953125,-0.022503694519400597,-0.013315795920789242,0.017310533672571182
1773049167446086700,8.925086669921875,-0.027830012142658234,0.04527370631694794,0.032224226742982864
1773049167456066800,8.93506689453125,-0.02996053919196129,-0.06977476924657822,-0.0050600022077560425
1773049167466040800,8.945040771484376,-0.035286858677864075,-0.04314317926764488,0.017310533672571182
1773049167476020500,8.9550205078125,-0.04167843982577324,-0.022903168573975563,0.032224226742982864
1773049167485995000,8.9649951171875,-0.011851058341562748,-0.004793686326593161,-0.015712639316916466
1773049167495974100,8.97497412109375,-0.027830012142658234,-0.022903168573975563,0.004527370445430279
1773049167505949200,8.98494921875,-0.02569948509335518,0.022903168573975563,0.020506324246525764
1773049167515928000,8.994927978515625,-0.019307903945446014,-0.03249054029583931,-0.008255792781710625
1773049167525903400,9.0049033203125,-0.042743705213069916,-0.04740423336625099,0.0141147430986166
1773049167535882000,9.014882080078126,-0.01717737689614296,0.09214530140161514,-0.0050600022077560425
1773049167545761800,9.02476171875,-0.01504684891551733,0.01651158556342125,-0.014647374860942364
1773049167555622700,9.03462255859375,-0.03848264738917351,-0.050600022077560425,0.007723161485046148
1773049167565811700,9.044811767578125,-0.02996053919196129,0.03249054029583931,-0.002929474925622344
1773049167575794000,9.0547939453125,-0.035286858677864075,0.006924213841557503,-0.024234747514128685
1773049167585766000,9.064765869140626,-0.022503694519400597,-0.029294749721884727,-0.025300011038780212
1773049167595747000,9.0747470703125,-0.02463422156870365,0.013315795920789242,-0.003994738683104515
1773049167605720300,9.08472021484375,-0.03315633162856102,0.04527370631694794,-0.011451584286987782
1773049167615700500,9.094700439453124,-0.018242640420794487,-0.042077913880348206,-0.04234423115849495
1773049167625674500,9.104674560546876,-0.031025802716612816,-0.04527370631694794,-0.00612526573240757
1773049167635654100,9.114654052734375,-0.023568958044052124,0.09214530140161514,-0.010386320762336254
1773049167645628700,9.124628662109375,-0.020373167470097542,-0.03568633273243904,-0.044474758207798004
1773049167655607800,9.13460791015625,-0.03741738572716713,-0.06444845348596573,-0.003994738683104515
1773049167665582800,9.144582763671876,-0.02463422156870365,0.06764423847198486,-0.003994738683104515
1773049167675561700,9.154561767578125,-0.023568958044052124,-0.0282294861972332,-0.04980107396841049
1773049167685537000,9.164537109375,-0.026764748618006706,-0.09640636295080185,-0.023169483989477158
1773049167695515600,9.174515625,-0.022503694519400597,0.05592634156346321,0.019441060721874237
1773049167705395500,9.1843955078125,-0.020373167470097542,-0.01651158556342125,-0.05193160101771355
1773049167715256300,9.19425634765625,-0.013981585390865803,-0.08681898564100266,-0.03701791167259216
1773049167725445400,9.2044453125,-0.02143843099474907,0.026098959147930145,0.0023968431632965803
1773049167735427600,9.214427490234375,-0.022503694519400597,-0.0005326318205334246,-0.027430538088083267
1773049167745307600,9.2243076171875,-0.02889527566730976,-0.020772641524672508,-0.028495801612734795
1773049167755167500,9.23416748046875,-0.02569948509335518,-0.018642114475369453,-0.03382211923599243
1773049167765353700,9.244353759765625,-0.023568958044052124,-0.009054740890860558,-0.00612526573240757
1773049167775338200,9.254338134765625,-0.026764748618006706,0.025033695623278618,-0.024234747514128685
1773049167785308000,9.264307861328126,-0.039547912776470184,-0.1272990107536316,-0.048735812306404114
1773049167795291100,9.274291015625,-0.04913528636097908,0.06018739566206932,0.036485280841588974
1773049167805171000,9.2841708984375,-0.01717737689614296,-0.00798947736620903,-0.04234423115849495
1773049167815030800,9.29403076171875,-0.026764748618006706,-0.09640636295080185,-0.024234747514128685
1773049167825216300,9.30421630859375,-0.03315633162856102,0.09960214793682098,0.020506324246525764
1773049167835201500,9.314201416015624,-0.02143843099474907,-0.03568633273243904,-0.016777902841567993
1773049167845170400,9.32417041015625,-0.02463422156870365,-0.033555805683135986,-0.018908429890871048
1773049167855154200,9.334154296875,-0.02463422156870365,-0.018642114475369453,-0.014647374860942364
1773049167865124900,9.344124755859376,-0.031025802716612816,0.037816859781742096,0.03328948840498924
1773049167875107000,9.354107177734376,-0.02143843099474907,0.006924213841557503,-0.025300011038780212
1773049167885079000,9.3640791015625,-0.02463422156870365,-0.09640636295080185,-0.016777902841567993
1773049167895060200,9.374060302734375,-0.023568958044052124,0.03249054029583931,0.0354200154542923
1773049167904940300,9.383940185546875,-0.02143843099474907,0.08894951641559601,0.007723161485046148
1773049167914800400,9.39380029296875,-0.027830012142658234,-0.061252661049366,-0.03808317333459854
1773049167924987100,9.403987060546875,-0.02463422156870365,-0.02396843209862709,-0.0018642114009708166
1773049167934971100,9.41397119140625,-0.035286858677864075,0.11451584100723267,0.023702116683125496
1773049167944941600,9.423941650390624,-0.023568958044052124,-0.013315795920789242,-0.029561065137386322
1773049167954924300,9.43392431640625,-0.022503694519400597,-0.013315795920789242,-0.007190529722720385
1773049167964895700,9.443895751953125,-0.02996053919196129,0.06764423847198486,0.008788425475358963
1773049167974877200,9.453877197265625,-0.02143843099474907,-0.037816859781742096,-0.025300011038780212
1773049167984850000,9.463849853515624,-0.019307903945446014,0.005858949851244688,0.004527370445430279
1773049167994830600,9.47383056640625,-0.023568958044052124,0.017576850950717926,-0.007190529722720385
1773049168004804000,9.48380419921875,-0.02143843099474907,-0.04846949502825737,-0.024234747514128685
1773049168014784000,9.493783935546874,-0.012916321866214275,0.015446322970092297,-0.008255792781710625
1773049168024758300,9.50375830078125,-0.027830012142658234,0.033555805683135986,-0.007190529722720385
1773049168034737700,9.513737548828125,-0.009720530360937119,-0.027164222672581673,-0.03275685757398605
1773049168044712700,9.523712646484375,-0.012916321866214275,0.017576850950717926,-0.016777902841567993
1773049168054691600,9.533691650390624,-0.0342215932905674,-0.017576850950717926,-0.0050600022077560425
1773049168064667000,9.5436669921875,-0.01504684891551733,-0.013315795920789242,-0.05725792050361633
1773049168074645200,9.553645263671875,-0.018242640420794487,0.002663159044459462,-0.03488738462328911
1773049168084621000,9.56362109375,-0.03315633162856102,0.034621067345142365,0.013049479573965073
1773049168094599200,9.57359912109375,-0.0011984215816482902,0.022903168573975563,-0.06897582113742828
1773049168104575200,9.5835751953125,-0.01717737689614296,-0.030360013246536255,-0.056192658841609955
1773049168114553300,9.59355322265625,-0.06511423736810684,0.01651158556342125,0.023702116683125496
1773049168124529400,9.603529296875,-0.008655266836285591,0.04527370631694794,-0.03701791167259216
1773049168134507300,9.61350732421875,-0.0342215932905674,-0.01970737800002098,-0.044474758207798004
1773049168144483600,9.623483642578124,-0.020373167470097542,-0.013315795920789242,-0.013582111336290836
1773049168154461200,9.633461181640625,-0.018242640420794487,0.06444845348596573,0.007723161485046148
1773049168164437800,9.643437744140625,-0.023568958044052124,-0.050600022077560425,-0.040213704109191895
1773049168174415400,9.653415283203126,-0.01717737689614296,0.026098959147930145,-0.002929474925622344
1773049168184392000,9.663391845703124,-0.023568958044052124,0.04846949502825737,0.00985368900001049
1773049168194369500,9.67336962890625,-0.03635212033987045,-0.050600022077560425,0.008788425475358963
1773049168204346000,9.68334619140625,-0.01504684891551733,0.002663159044459462,-0.014647374860942364
1773049168214323700,9.69332373046875,-0.03635212033987045,0.03249054029583931,0.0141147430986166
1773049168224300300,9.70330029296875,-0.035286858677864075,0.053795814514160156,0.023702116683125496
1773049168234277600,9.713277587890625,-0.01717737689614296,0.002663159044459462,-0.015712639316916466
1773049168244254500,9.72325439453125,-0.047004759311676025,-0.015446322970092297,0.011984216049313545
1773049168254231800,9.733231689453126,-0.031025802716612816,0.09321057051420212,0.02157158963382244
1773049168264208600,9.743208740234374,-0.005459476262331009,0.07297056168317795,-0.0018642114009708166
1773049168274186000,9.75318603515625,-0.04487423226237297,-0.07829687744379044,0.0034621069207787514
1773049168284162800,9.763162841796875,-0.01504684891551733,0.0282294861972332,0.027963170781731606
1773049168294140200,9.77314013671875,-0.009720530360937119,0.04314317926764488,0.016245270147919655
1773049168304117200,9.7831171875,-0.04167843982577324,-0.05273054912686348,-0.009321057237684727
1773049168314094300,9.79309423828125,-0.00013315795513335615,-0.01438105944544077,0.0034621069207787514
1773049168324071200,9.8030712890625,-0.03635212033987045,0.050600022077560425,0.031158961355686188
1773049168334048500,9.813048583984376,-0.05339634045958519,-0.017576850950717926,0.001331579522229731
1773049168344025600,9.823025634765624,-0.007590003311634064,-0.020772641524672508,-0.03808317333459854
1773049168354002700,9.833002685546875,-0.02889527566730976,0.004793686326593161,0.013049479573965073
1773049168363979500,9.8429794921875,-0.031025802716612816,0.004793686326593161,0.026897907257080078
1773049168373956900,9.852956787109376,-0.026764748618006706,-0.046338967978954315,-0.029561065137386322
1773049168383933700,9.86293359375,-0.031025802716612816,-0.017576850950717926,-0.0018642114009708166
1773049168393911000,9.8729111328125,-0.01717737689614296,0.027164222672581673,-0.007190529722720385
1773049168403888000,9.88288818359375,-0.031025802716612816,-0.03994738683104515,-0.007190529722720385
1773049168413865200,9.892865234375,-0.03741738572716713,0.017576850950717926,0.007723161485046148
1773049168423842300,9.90284228515625,-0.0033289489801973104,0.062317922711372375,-0.030626330524683
1773049168433819400,9.9128193359375,-0.035286858677864075,-0.002663159044459462,0.010918952524662018
1773049168443796500,9.92279638671875,-0.039547912776470184,-0.08149266988039017,-0.009321057237684727
1773049168453773600,9.932773681640626,-0.026764748618006706,0.09214530140161514,0.0034621069207787514
1773049168463750400,9.94275048828125,-0.023568958044052124,-0.005858949851244688,-0.025300011038780212
1773049168473727500,9.9527275390625,-0.022503694519400597,-0.025033695623278618,0.007723161485046148
1773049168483704800,9.962704833984375,-0.023568958044052124,0.0516652874648571,0.010918952524662018
1773049168493682000,9.972681884765626,-0.018242640420794487,0.00798947736620903,-0.0007989477599039674
1773049168503659000,9.982658935546874,-0.018242640420794487,0.002663159044459462,0.006657897960394621
1773049168513636000,9.992635986328125,-0.02996053919196129,0.034621067345142365,0.015180006623268127
1773049168523613200,10.00261328125,-0.01717737689614296,0.033555805683135986,-0.0007989477599039674
1773049168533590300,10.01259033203125,-0.020373167470097542,-0.020772641524672508,0.0034621069207787514
1773049168543567400,10.0225673828125,-0.023568958044052124,0.04101264849305153,0.017310533672571182
1773049168553544400,10.03254443359375,-0.020373167470097542,0.03568633273243904,0.013049479573965073
1773049168563521500,10.042521484375,-0.022503694519400597,-0.038882121443748474,-0.009321057237684727
1773049168573498400,10.052498291015626,-0.013981585390865803,0.0015978955198079348,0.007723161485046148
1773049168583475700,10.062475830078125,-0.027830012142658234,0.03994738683104515,0.026897907257080078
1773049168593452800,10.072452880859375,-0.023568958044052124,-0.033555805683135986,-0.00612526573240757
1773049168603429600,10.0824296875,-0.020373167470097542,-0.010120004415512085,-0.007190529722720385
1773049168613406700,10.09240673828125,-0.02996053919196129,0.030360013246536255,0.008788425475358963
1773049168623384000,10.102384033203125,-0.027830012142658234,-0.0005326318205334246,0.001331579522229731
1773049168633361200,10.112361083984375,-0.02889527566730976,0.03142527863383293,-0.012516847811639309
1773049168643338200,10.122338134765625,-0.02996053919196129,-0.05273054912686348,-0.02636527456343174
1773049168653315300,10.1323154296875,-0.03315633162856102,0.08788424730300903,0.0141147430986166
1773049168663292400,10.14229248046875,-0.02569948509335518,0.021837905049324036,-0.02636527456343174
1773049168673269500,10.15226953125,-0.02569948509335518,-0.05699160322546959,-0.01784316636621952
1773049168683246300,10.162246337890625,-0.027830012142658234,0.0655137151479721,0.0023968431632965803
1773049168693223400,10.172223388671876,-0.02143843099474907,0.01438105944544077,-0.019973693415522575
1773049168703200500,10.182200439453124,-0.02889527566730976,-0.006924213841557503,-0.008255792781710625
1773049168713177600,10.192177490234375,-0.02463422156870365,0.04846949502825737,-0.018908429890871048
1773049168723154700,10.20215478515625,-0.02463422156870365,0.021837905049324036,-0.0007989477599039674
1773049168733131800,10.2121318359375,-0.02463422156870365,0.01970737800002098,-0.011451584286987782
1773049168743108900,10.22210888671875,-0.02996053919196129,-0.030360013246536255,-0.011451584286987782
1773049168753086000,10.2320859375,-0.0342215932905674,0.07723161578178406,0.015180006623268127
1773049168763063000,10.24206298828125,-0.01717737689614296,0.029294749721884727,-0.019973693415522575
1773049168773040000,10.2520400390625,-0.02143843099474907,-0.026098959147930145,0.029028434306383133
1773049168783017200,10.262017333984375,-0.02463422156870365,0.029294749721884727,0.008788425475358963
1773049168792994300,10.271994384765625,-0.01717737689614296,0.03249054029583931,-0.0050600022077560425
1773049168802971400,10.281971435546875,-0.02463422156870365,-0.02396843209862709,0.023702116683125496
1773049168812948500,10.291948486328126,-0.026764748618006706,0.05592634156346321,0.020506324246525764
1773049168822925600,10.301925537109375,-0.02569948509335518,0.01225053146481514,0.015180006623268127
1773049168832902700,10.311902587890625,-0.019307903945446014,-0.004793686326593161,-0.009321057237684727
1773049168842879700,10.321879638671875,-0.02569948509335518,-0.018642114475369453,0.019441060721874237
1773049168852856800,10.33185693359375,-0.03741738572716713,0.08149266988039017,0.036485280841588974
1773049168862834000,10.341833984375,-0.012916321866214275,0.03994738683104515,-0.03701791167259216
1773049168872811000,10.35181103515625,-0.01504684891551733,-0.037816859781742096,0.01837579719722271
1773049168882788000,10.3617880859375,-0.02889527566730976,-0.03142527863383293,0.03328948840498924
1773049168892765200,10.37176513671875,-0.022503694519400597,0.01225053146481514,-0.009321057237684727
1773049168902742300,10.3817421875,-0.026764748618006706,-0.01651158556342125,-0.008255792781710625
1773049168912719400,10.39171923828125,-0.026764748618006706,-0.010120004415512085,0.004527370445430279
1773049168922696400,10.401696533203125,-0.03209106624126434,0.010120004415512085,0.001331579522229731
1773049168932673500,10.411673583984374,-0.03635212033987045,-0.04314317926764488,-0.02636527456343174
1773049168942650600,10.421650634765625,-0.026764748618006706,-0.062317922711372375,-0.021038956940174103
1773049168952627700,10.431627685546875,-0.02463422156870365,-0.009054740890860558,0.02263685315847397
1773049168962604800,10.441604736328125,-0.02996053919196129,-0.07403582334518433,-0.024234747514128685
1773049168972582000,10.451581787109374,-0.02569948509335518,-0.053795814514160156,-0.028495801612734795
1773049168992536000,10.4715361328125,-0.043808966875076294,0.0005326318205334246,-0.012516847811639309
1773049169002513200,10.48151318359375,-0.026764748618006706,-0.006924213841557503,-0.019973693415522575
1773049169012490200,10.491490234375,-0.02463422156870365,-0.02396843209862709,-0.027430538088083267
1773049169022467300,10.50146728515625,-0.031025802716612816,0.01651158556342125,0.011984216049313545
1773049169032444400,10.5114443359375,-0.022503694519400597,0.013315795920789242,-0.010386320762336254
1773049169042421500,10.52142138671875,-0.02996053919196129,-0.04420844092965126,-0.010386320762336254
1773049169052398600,10.531398681640624,-0.0043942127376794815,-0.029294749721884727,0.0002663159102667123
1773049169062375700,10.541375732421875,0.010519478470087051,0.026098959147930145,0.010918952524662018
1773049169072352800,10.551352783203125,-0.04913528636097908,-0.03994738683104515,-0.010386320762336254
1773049169082329900,10.561329833984376,-0.023568958044052124,0.042077913880348206,-0.0018642114009708166
1773049169092307000,10.571306884765624,0.0009321057004854083,0.07723161578178406,-0.002929474925622344
1773049169102284000,10.581283935546875,-0.035286858677864075,-0.01970737800002098,-0.0018642114009708166
1773049169112261000,10.59126123046875,-0.022503694519400597,-0.01225053146481514,-0.003994738683104515
1773049169122238000,10.601238037109376,-0.020373167470097542,0.11132004857063293,0.016245270147919655
1773049169132215000,10.611215087890624,-0.019307903945446014,0.015446322970092297,-0.008255792781710625
1773049169142153500,10.621153564453126,-0.02569948509335518,-0.04420844092965126,0.0002663159102667123
1773049169152126700,10.631126708984375,-0.023568958044052124,0.08255793154239655,0.017310533672571182
1773049169162107600,10.641107666015625,-0.01504684891551733,0.04314317926764488,-0.00612526573240757
1773049169172081400,10.651081298828124,-0.018242640420794487,-0.021837905049324036,-0.002929474925622344
1773049169182061800,10.661061767578126,-0.02569948509335518,0.062317922711372375,0.008788425475358963
1773049169192036400,10.671036376953126,-0.02143843099474907,0.029294749721884727,-0.009321057237684727
1773049169202015700,10.681015625,-0.02463422156870365,-0.0005326318205334246,-0.003994738683104515
1773049169211990800,10.69099072265625,-0.04061317816376686,-0.022903168573975563,-0.0018642114009708166
1773049169221970000,10.700969970703126,-0.01717737689614296,0.0708400309085846,-0.00612526573240757
1773049169231945500,10.710945556640626,-0.006524739786982536,0.015446322970092297,-0.024234747514128685
1773049169241963000,10.720962890625,-0.05659212917089462,-0.042077913880348206,0.015180006623268127
1773049169251942700,10.730942626953125,-0.0342215932905674,0.010120004415512085,0.015180006623268127
1773049169261878300,10.740878173828126,-0.007590003311634064,-0.062317922711372375,-0.025300011038780212
1773049169271853600,10.750853515625,-0.02463422156870365,-0.059122130274772644,0.0023968431632965803
1773049169281832400,10.76083251953125,-0.031025802716612816,0.030360013246536255,0.024767380207777023
1773049169291808000,10.77080810546875,-0.02996053919196129,-0.04953476041555405,-0.03808317333459854
1773049169301786600,10.78078662109375,-0.027830012142658234,0.027164222672581673,0.010918952524662018
1773049169311762400,10.790762451171876,-0.03848264738917351,-0.0015978955198079348,0.0034621069207787514
1773049169321663200,10.800663330078125,-0.031025802716612816,-0.009054740890860558,-0.010386320762336254
1773049169331631600,10.810631591796875,-0.016112113371491432,0.0037284228019416332,-0.015712639316916466
1773049169341578500,10.82057861328125,-0.03315633162856102,-0.0005326318205334246,0.03435475379228592
1773049169351544600,10.830544677734375,-0.02569948509335518,-0.025033695623278618,-0.012516847811639309
1773049169361532400,10.840532470703126,-0.026764748618006706,-0.04527370631694794,-0.014647374860942364
1773049169371500800,10.850500732421875,-0.02889527566730976,0.026098959147930145,0.04713791608810425
1773049169381409000,10.860408935546875,-0.022503694519400597,-0.037816859781742096,0.007723161485046148
1773049169391371500,10.87037158203125,-0.02996053919196129,-0.059122130274772644,-0.0018642114009708166
1773049169401324300,10.88032421875,-0.02569948509335518,0.020772641524672508,0.00985368900001049
1773049169411285800,10.89028564453125,-0.031025802716612816,0.042077913880348206,0.024767380207777023
1773049169421239800,10.90023974609375,-0.02569948509335518,-0.06764423847198486,-0.018908429890871048
1773049169431200300,10.9102001953125,-0.026764748618006706,0.018642114475369453,0.013049479573965073
1773049169441155000,10.920155029296875,-0.027830012142658234,0.025033695623278618,0.013049479573965073
1773049169451115000,10.930114990234374,-0.022503694519400597,-0.01651158556342125,0.010918952524662018
1773049169461031700,10.94003173828125,-0.022503694519400597,-0.030360013246536255,-0.002929474925622344
1773049169470987300,10.9499873046875,-0.02143843099474907,0.018642114475369453,0.01837579719722271
1773049169480947000,10.959947021484375,-0.026764748618006706,-0.01651158556342125,0.011984216049313545
1773049169490903000,10.969903076171875,-0.02889527566730976,-0.03142527863383293,0.004527370445430279
1773049169500862000,10.979862060546875,-0.02463422156870365,0.00798947736620903,-0.0007989477599039674
1773049169510818600,10.989818603515625,-0.02569948509335518,0.005858949851244688,0.0141147430986166
1773049169520777200,10.999777099609375,-0.022503694519400597,0.01225053146481514,-0.007190529722720385
1773049169530733800,11.00973388671875,-0.02463422156870365,-0.058056868612766266,0.001331579522229731
1773049169540654000,11.019654052734374,-0.02569948509335518,0.05592634156346321,0.005592633970081806
1773049169550606800,11.02960693359375,-0.01717737689614296,-0.009054740890860558,-0.00612526573240757
1773049169560607700,11.039607666015625,-0.02143843099474907,-0.053795814514160156,0.010918952524662018
1773049169570565400,11.0495654296875,-0.022503694519400597,0.05699160322546959,0.010918952524662018
1773049169580484400,11.059484375,-0.020373167470097542,-0.025033695623278618,0.0002663159102667123
1773049169590438400,11.0694384765625,-0.02569948509335518,-0.01651158556342125,0.0034621069207787514
1773049169600438000,11.07943798828125,-0.026764748618006706,-0.002663159044459462,0.010918952524662018
1773049169610396700,11.089396728515625,-0.026764748618006706,0.01225053146481514,0.010918952524662018
1773049169620576500,11.099576416015625,-0.02143843099474907,-0.037816859781742096,-0.002929474925622344
1773049169630756600,11.109756591796875,-0.016112113371491432,0.013315795920789242,0.0141147430986166
1773049169640936700,11.119936767578125,-0.009720530360937119,0.005858949851244688,0.016245270147919655
1773049169651043300,11.130043212890625,-0.02143843099474907,-0.1411474347114563,-0.011451584286987782
1773049169660999700,11.139999755859375,-0.03209106624126434,-0.011185267940163612,0.04181159660220146
1773049169670993400,11.149993408203125,-0.03635212033987045,0.03994738683104515,0.0034621069207787514
1773049169680953900,11.159953857421876,-0.02996053919196129,0.021837905049324036,0.006657897960394621
1773049169690944300,11.1699443359375,-0.027830012142658234,-0.011185267940163612,-0.013582111336290836
1773049169700908000,11.179907958984375,-0.04487423226237297,0.00798947736620903,0.02263685315847397
1773049169710895900,11.189895751953125,-0.02996053919196129,0.09747162461280823,0.007723161485046148
1773049169720862200,11.1998623046875,-0.022503694519400597,-0.03994738683104515,-0.012516847811639309
1773049169730848000,11.209847900390624,-0.02569948509335518,0.00798947736620903,0.027963170781731606
1773049169740816600,11.219816650390625,-0.022503694519400597,0.034621067345142365,0.0141147430986166
1773049169750800400,11.22980029296875,-0.022503694519400597,-0.053795814514160156,-0.0007989477599039674
1773049169760770600,11.2397705078125,-0.027830012142658234,-0.017576850950717926,0.00985368900001049
1773049169770753300,11.249753173828125,-0.02996053919196129,0.015446322970092297,0.020506324246525764
1773049169780724700,11.259724853515625,-0.02569948509335518,-0.04314317926764488,-0.0007989477599039674
1773049169790706400,11.26970654296875,-0.03209106624126434,-0.08149266988039017,-0.00612526573240757
1773049169800679200,11.27967919921875,-0.0342215932905674,-0.006924213841557503,0.015180006623268127
1773049169810659600,11.28965966796875,-0.013981585390865803,0.0282294861972332,-0.002929474925622344
1773049169820633000,11.299633056640625,-0.02889527566730976,-0.1177116334438324,-0.012516847811639309
1773049169830613000,11.309613037109376,-0.035286858677864075,-0.002663159044459462,0.02263685315847397
1773049169840587300,11.319587158203126,-0.022503694519400597,0.11558110266923904,-0.003994738683104515
1773049169850566700,11.329566650390625,-0.019307903945446014,-0.053795814514160156,-0.008255792781710625
1773049169860580400,11.339580322265626,-0.03635212033987045,-0.04420844092965126,0.03328948840498924
1773049169870563000,11.34956298828125,-0.026764748618006706,0.033555805683135986,0.0141147430986166
1773049169880495600,11.35949560546875,-0.02569948509335518,-0.034621067345142365,-0.015712639316916466
1773049169890473500,11.369473388671874,-0.03209106624126434,-0.042077913880348206,0.031158961355686188
1773049169900353300,11.379353271484375,-0.026764748618006706,0.021837905049324036,0.02583264373242855
1773049169910214100,11.389214111328124,-0.023568958044052124,0.0015978955198079348,-0.0050600022077560425
1773049169920210000,11.3992099609375,-0.013981585390865803,-0.08042740821838379,-0.012516847811639309
1773049169930172000,11.409171875,-0.01078579481691122,0.03994738683104515,0.040746334940195084
1773049169940163800,11.419163818359374,-0.02996053919196129,0.002663159044459462,0.0002663159102667123
1773049169950129000,11.42912890625,-0.01717737689614296,0.01438105944544077,-0.014647374860942364
1773049169960117800,11.43911767578125,-0.023568958044052124,0.025033695623278618,0.008788425475358963
1773049169970085400,11.44908544921875,-0.02143843099474907,-0.037816859781742096,-0.0007989477599039674
1773049169980072000,11.459072021484374,-0.023568958044052124,0.033555805683135986,0.013049479573965073
1773049169990041300,11.469041259765625,-0.02569948509335518,0.013315795920789242,-0.00612526573240757
1773049170000025900,11.47902587890625,-0.019307903945446014,-0.017576850950717926,-0.00612526573240757
1773049170009996800,11.488996826171874,-0.020373167470097542,0.03675159439444542,0.006657897960394621
1773049170019980000,11.49897998046875,-0.02143843099474907,0.0037284228019416332,0.001331579522229731
1773049170029952300,11.5089521484375,-0.011851058341562748,0.021837905049324036,-0.0050600022077560425
1773049170039934200,11.518934326171875,-0.01717737689614296,0.009054740890860558,-0.018908429890871048
1773049170049907200,11.5289072265625,-0.019307903945446014,0.0005326318205334246,-0.0007989477599039674
1773049170059888000,11.53888818359375,-0.01717737689614296,0.054861076176166534,-0.0018642114009708166
1773049170069862100,11.548862060546876,-0.02143843099474907,0.006924213841557503,-0.003994738683104515
1773049170079842300,11.55884228515625,-0.01717737689614296,-0.03142527863383293,-0.023169483989477158
1773049170089816800,11.56881689453125,-0.0033289489801973104,0.037816859781742096,-0.012516847811639309
1773049170099796500,11.57879638671875,-0.006524739786982536,0.03142527863383293,-0.0007989477599039674
1773049170109771500,11.588771484375,-0.016112113371491432,0.006924213841557503,0.001331579522229731
1773049170119750400,11.59875048828125,-0.007590003311634064,0.01970737800002098,-0.024234747514128685
1773049170129726000,11.608725830078125,-0.0043942127376794815,0.005858949851244688,-0.013582111336290836
1773049170139704600,11.61870458984375,-0.006524739786982536,0.004793686326593161,-0.007190529722720385
1773049170149680400,11.628680419921874,-0.018242640420794487,0.061252661049366,-0.009321057237684727
1773049170159658800,11.63865869140625,-0.0043942127376794815,0.0282294861972332,-0.03701791167259216
1773049170169634800,11.648634765625,0.0019973693415522575,-0.038882121443748474,-0.014647374860942364
1773049170179613000,11.658613037109374,-0.009720530360937119,-0.01225053146481514,0.0023968431632965803
1773049170189589000,11.668589111328124,0.007323687430471182,0.06657897680997849,-0.014647374860942364
1773049170199567000,11.678567138671875,0.0019973693415522575,-0.03675159439444542,-0.03488738462328911
1773049170209543400,11.68854345703125,0.004127896390855312,0.0005326318205334246,0.02157158963382244
1773049170219521000,11.69852099609375,-0.0043942127376794815,0.03142527863383293,-0.0018642114009708166
1773049170229497600,11.70849755859375,-0.0022636852227151394,0.06657897680997849,-0.024234747514128685
1773049170239475200,11.71847509765625,-0.00013315795513335615,0.1177116334438324,-0.044474758207798004
1773049170249451800,11.72845166015625,-0.006524739786982536,-0.04420844092965126,0.007723161485046148
1773049170259429400,11.738429443359376,-0.011851058341562748,-0.23276010155677795,-0.014647374860942364
1773049170269406000,11.748406005859374,-0.02463422156870365,0.010120004415512085,0.020506324246525764
1773049170279383600,11.758383544921875,-0.027830012142658234,0.02396843209862709,-0.028495801612734795
1773049170289360400,11.7683603515625,0.021172115579247475,0.0015978955198079348,-0.04660528525710106
1773049170299337700,11.778337646484376,0.03075948730111122,-0.03249054029583931,-0.027430538088083267
1773049170309314600,11.788314453125,0.02330264262855053,-0.04740423336625099,0.03861580789089203
1773049170319291600,11.798291748046875,-0.020373167470097542,-0.17949692904949188,0.019441060721874237
1773049170329268500,11.8082685546875,-0.01504684891551733,-0.16245271265506744,-0.019973693415522575
1773049170339245800,11.818245849609376,-0.019307903945446014,0.00798947736620903,0.02263685315847397
1773049170349222700,11.82822265625,0.0019973693415522575,-0.01225053146481514,-0.023169483989477158
1773049170359200000,11.838199951171875,-0.008655266836285591,-0.0708400309085846,-0.027430538088083267
1773049170369176800,11.8481767578125,-0.011851058341562748,-0.011185267940163612,0.007723161485046148
1773049170379154200,11.858154296875,0.029694223776459694,0.03994738683104515,-0.0018642114009708166
1773049170389131000,11.868131103515625,0.005193160381168127,-0.0708400309085846,-0.035952646285295486
1773049170399108400,11.8781083984375,-0.018242640420794487,0.011185267940163612,0.010918952524662018
1773049170409085200,11.888085205078125,0.0009321057004854083,0.10492847114801407,-0.014647374860942364
1773049170419062300,11.898062255859376,-0.009720530360937119,-0.053795814514160156,-0.04340949282050133
1773049170429039400,11.908039306640624,-0.02996053919196129,0.04314317926764488,0.01837579719722271
1773049170439016400,11.918016357421875,-0.0043942127376794815,0.0655137151479721,-0.007190529722720385
1773049170448993500,11.92799365234375,0.003062632866203785,-0.08362319320440292,-0.018908429890871048
1773049170458970600,11.937970703125,-0.0011984215816482902,0.0037284228019416332,0.0034621069207787514
1773049170468947700,11.94794775390625,0.0019973693415522575,0.0985368862748146,-0.009321057237684727
1773049170478924800,11.9579248046875,-0.007590003311634064,-0.033555805683135986,0.001331579522229731
1773049170488901600,11.967901611328125,-0.0033289489801973104,0.08362319320440292,0.011984216049313545
1773049170498878700,11.977878662109376,0.04780370742082596,0.02396843209862709,-0.04767054691910744
1773049170508855800,11.987855712890624,-0.013981585390865803,-0.034621067345142365,0.02263685315847397
1773049170518833000,11.9978330078125,-0.04487423226237297,0.16445007920265198,0.040746334940195084
1773049170538787000,12.017787109375,0.004127896390855312,0.07829687744379044,-0.009321057237684727
1773049170548764000,12.027763916015624,0.004127896390855312,-0.10599373281002045,0.031158961355686188
1773049170558741200,12.0377412109375,-0.0033289489801973104,0.04420844092965126,0.03009369783103466
1773049170568718000,12.047718017578125,0.008388951420783997,0.053795814514160156,-0.05725792050361633
1773049170578695400,12.0576953125,-0.005459476262331009,-0.059122130274772644,0.024767380207777023
1773049170588672300,12.06767236328125,-0.01078579481691122,-0.01438105944544077,0.06205160543322563
1773049170598649300,12.0776494140625,0.0062584239058196545,-0.0751010850071907,-0.03914843872189522
1773049170608626400,12.08762646484375,-0.012916321866214275,-0.01438105944544077,-0.0050600022077560425
1773049170618603500,12.097603515625,-0.019307903945446014,-0.01651158556342125,0.040746334940195084
1773049170628580600,12.10758056640625,0.009454214945435524,-0.0985368862748146,-0.029561065137386322
1773049170638557700,12.1175576171875,0.007323687430471182,-0.08681898564100266,-0.018908429890871048
1773049170648534800,12.12753466796875,-0.012916321866214275,0.013315795920789242,0.03009369783103466
1773049170658512000,12.137511962890626,0.004127896390855312,-0.01970737800002098,0.017310533672571182
1773049170668488700,12.14748876953125,0.01584579609334469,-0.09321057051420212,-0.027430538088083267
1773049170678465800,12.1574658203125,0.0318247526884079,-0.011185267940163612,0.010918952524662018
1773049170688443000,12.16744287109375,0.0062584239058196545,-0.050600022077560425,0.010918952524662018
1773049170698420000,12.177419921875,-0.026764748618006706,-0.17310534417629242,-0.015712639316916466
1773049170708397000,12.18739697265625,-0.02569948509335518,-0.0655137151479721,0.001331579522229731
1773049170718277000,12.197277099609375,-0.043808966875076294,0.07403582334518433,0.01837579719722271
1773049170728138200,12.20713818359375,0.005193160381168127,0.03249054029583931,-0.011451584286987782
1773049170738328000,12.217328125,0.013715269044041634,-0.1645832359790802,-0.04660528525710106
1773049170748309200,12.227309326171875,0.016911059617996216,-0.033555805683135986,0.04394212365150452
1773049170758282200,12.2372822265625,0.0062584239058196545,0.059122130274772644,0.015180006623268127
