time,seconds_elapsed,z,y,x
1773049158766042000,0.2450419921875,13.37169075012207,1.3776676654815674,0.9260223507881165
1773049158795992000,0.274991943359375,14.501701354980469,-0.8590233325958252,-0.3762713670730591
1773049158815849000,0.294848876953125,11.21216869354248,1.6839489936828613,0.6580262184143066
1773049158825729000,0.30472900390625,11.10209846496582,1.0133603811264038,0.5431707501411438
1773049158835879400,0.31487939453125,5.413163185119629,0.0029910283628851175,0.26979073882102966
1773049158845933300,0.324933349609375,9.93380355834961,-0.5617151260375977,0.3798605799674988
1773049158855835400,0.33483544921875,12.840484619140625,-0.48035913705825806,0.4660021960735321
1773049158865827800,0.344827880859375,7.941778182983398,0.9415757060050964,1.2562319040298462
1773049158875789800,0.354789794921875,12.840484619140625,1.6600207090377808,0.5042873620986938
1773049158885770000,0.36477001953125,8.38684368133545,0.251844584941864,0.29850462079048157
1773049158895650000,0.374650146484375,6.035895347595215,-0.001794616924598813,0.31764721870422363
1773049158905529900,0.38452978515625,13.113265991210938,-0.29850462079048157,0.0975075215101242
1773049158915465200,0.39446533203125,10.04865837097168,0.6879364848136902,0.10707881301641464
1773049158925423900,0.404423828125,9.66102123260498,1.2478569746017456,1.1365907192230225
1773049158935604000,0.41460400390625,10.872387886047363,0.6783652305603027,1.399801254272461
1773049158945717200,0.42471728515625,7.481758117675781,-0.0975075215101242,0.2267199456691742
1773049158955597300,0.434597412109375,10.177870750427246,-0.04007977992296219,-0.3236292600631714
1773049158965477400,0.444477294921875,11.159526824951172,0.6305087804794312,0.31764721870422363
1773049158975558000,0.454557861328125,9.488140106201172,1.1473584175109863,0.2841476798057556
1773049158985614600,0.464614501953125,10.743175506591797,0.7405785918235779,1.1174482107162476
1773049158995494700,0.47449462890625,7.822137355804443,-0.07357929646968842,0.849452018737793
1773049159005374700,0.484374755859375,10.53200912475586,0.4773681163787842,-0.5102694034576416
1773049159015235300,0.4942353515625,10.120443344116211,0.6687939167022705,0.7872386574745178
1773049159025197000,0.504197021484375,9.531210899353027,0.5491527915000916,0.9643075466156006
1773049159035377200,0.514377197265625,10.24487018585205,-0.39421752095222473,0.14057832956314087
1773049159045488000,0.524488037109375,8.066205024719238,0.07477571070194244,0.01615155301988125
1773049159055368200,0.5343681640625,10.450653076171875,1.1425727605819702,0.4181457459926605
1773049159065248300,0.544248291015625,10.87717342376709,0.9367900490760803,0.7250252366065979
1773049159075097600,0.55409765625,9.263215065002441,-0.11665010452270508,1.2658032178878784
1773049159085059800,0.564059814453125,9.914660453796387,-0.5712863802909851,0.22193430364131927
1773049159095051500,0.574051513671875,8.813364028930664,0.5539384484291077,-0.3044866919517517
1773049159105016600,0.5840166015625,11.11167049407959,1.2335001230239868,0.5186443328857422
1773049159115005400,0.59400537109375,10.690533638000488,0.24227328598499298,0.020937198773026466
1773049159124973000,0.60397314453125,8.69372272491455,-0.5138586759567261,0.3367897868156433
1773049159135153000,0.61415283203125,8.760722160339355,0.2667997181415558,0.08793623000383377
1773049159145185300,0.624185302734375,10.53200912475586,0.9655039310455322,0.7920243144035339
1773049159155065300,0.6340654296875,10.901102066040039,0.7884350419044495,0.4420739710330963
1773049159164880400,0.64388037109375,9.559925079345703,-0.11665010452270508,0.10707881301641464
1773049159174867500,0.653867431640625,9.157930374145508,-0.4612165689468384,0.5479564070701599
1773049159184836400,0.66383642578125,9.92423152923584,0.534795880317688,-0.20398813486099243
1773049159195016400,0.674016357421875,10.063015937805176,1.0947163105010986,0.5575276613235474
1773049159205048600,0.684048583984375,10.359725952148438,0.5970092415809631,0.916451096534729
1773049159214928600,0.6939287109375,9.46899700164795,-0.5904290080070496,0.8015955686569214
1773049159224743200,0.7037431640625,8.219346046447754,0.534795880317688,-0.17527425289154053
1773049159234923300,0.71392333984375,10.201799392700195,1.2335001230239868,0.40378883481025696
1773049159244955600,0.72395556640625,11.288739204406738,0.7549355626106262,1.093519926071167
1773049159254835700,0.733835693359375,9.842875480651855,-0.4133601188659668,0.32721850275993347
1773049159264650800,0.743650634765625,7.989634990692139,0.36251261830329895,-0.026919255033135414
1773049159274637800,0.753637939453125,9.790233612060547,1.109073281288147,0.9116654396057129
1773049159284606700,0.763606689453125,11.96889877319336,0.5635097622871399,1.1509476900100708
1773049159294591700,0.773591796875,9.086145401000977,-0.26500511169433594,0.763310432434082
1773049159304562200,0.783562255859375,8.181060791015625,0.381655216217041,0.054436713457107544
1773049159314545700,0.793545654296875,9.838089942932129,1.022931694984436,0.6675975322723389
1773049159324517600,0.803517578125,11.044671058654785,0.8745766878128052,1.031306505203247
1773049159334697500,0.813697509765625,10.340582847595215,-0.28893333673477173,1.2275179624557495
1773049159344729300,0.823729248046875,8.37727165222168,-0.4372883439064026,0.04007977992296219
1773049159354609200,0.833609130859375,8.69372272491455,0.8506484627723694,0.26979073882102966
1773049159364489200,0.8434892578125,11.21216869354248,1.1808580160140991,0.8638089895248413
1773049159374292000,0.8532919921875,11.303095817565918,0.36251261830329895,0.8255237936973572
1773049159384252000,0.863251953125,7.592426300048828,-0.31764721870422363,0.45164528489112854
1773049159394432000,0.873431884765625,8.02791976928711,0.8123632669448853,0.4468596279621124
1773049159404594200,0.88359423828125,11.609376907348633,1.262213945388794,0.5042873620986938
1773049159414549000,0.893549072265625,11.997612953186035,-0.1453639715909958,0.5431707501411438
1773049159424544000,0.9035439453125,8.023134231567383,-0.2315055876970291,-0.31405797600746155
1773049159434503200,0.913503173828125,8.018348693847656,0.9846464991569519,-0.09391828626394272
1773049159444494300,0.923494384765625,12.3278226852417,1.1521440744400024,0.5718846321105957
1773049159454457300,0.933457275390625,11.403594970703125,-0.16929219663143158,0.729810893535614
1773049159464445700,0.94344580078125,8.305487632751465,-0.24586252868175507,0.1501496136188507
1773049159474325800,0.95332568359375,7.975277900695801,0.8027920126914978,0.054436713457107544
1773049159484141600,0.9631416015625,11.188240051269531,1.334596872329712,0.3798605799674988
1773049159494321700,0.97332177734375,11.059027671813965,0.6352944374084473,0.6675975322723389
1773049159504355000,0.98335498046875,8.985647201538086,-0.3128615617752075,0.1788634955883026
1773049159514319600,0.993319580078125,7.688138961791992,0.6352944374084473,-0.01734796352684498
1773049159524306700,1.003306640625,10.441082000732422,1.4111671447753906,0.2841476798057556
1773049159534273800,1.013273681640625,13.218550682067871,0.6735795736312866,0.9882357716560364
1773049159544258800,1.0232587890625,9.033503532409668,-0.08793623000383377,0.1740778535604477
1773049159554138600,1.033138671875,7.2089762687683105,0.8841479420661926,-0.0077766734175384045
1773049159563955500,1.04295556640625,11.11167049407959,1.3872389793395996,0.1740778535604477
1773049159574135300,1.05313525390625,11.696117401123047,0.8410771489143372,0.9068797826766968
1773049159584169200,1.063169189453125,9.086145401000977,-0.0687936544418335,0.7202396392822266
1773049159594135800,1.0731357421875,8.003992080688477,0.6065805554389954,-0.12263216078281403
1773049159604121000,1.08312109375,9.852447509765625,1.334596872329712,0.20757736265659332
1773049159614090000,1.093090087890625,12.222537994384766,1.3680963516235352,0.6197410821914673
1773049159624073700,1.10307373046875,10.455438613891602,0.10348957777023315,1.337587833404541
1773049159634044200,1.113044189453125,7.45782995223999,0.01734796352684498,-0.09870393574237823
1773049159644026400,1.1230263671875,8.885149002075195,1.2382856607437134,0.049651071429252625
1773049159663979500,1.1429794921875,10.460224151611328,1.1377872228622437,0.5575276613235474
1773049159673952300,1.1529521484375,7.070192813873291,0.6161518096923828,0.4372883439064026
1773049159683932700,1.1629326171875,9.05264663696289,1.1186445951461792,0.01136590726673603
1773049159693906400,1.172906494140625,11.810972213745117,1.5355939865112305,0.2315055876970291
1773049159703886000,1.182885986328125,10.73838996887207,1.2335001230239868,1.2131611108779907
1773049159713860600,1.192860595703125,8.391629219055176,0.6544370055198669,1.1126625537872314
1773049159723839700,1.20283984375,9.545567512512207,0.7980063557624817,-0.534795880317688
1773049159733814800,1.212814697265625,10.17308521270752,1.3489537239074707,0.21236300468444824
1773049159743793400,1.22279345703125,10.953743934631348,1.3872389793395996,0.42771705985069275
1773049159753768700,1.232768798828125,9.358927726745605,0.6975077986717224,1.7641085386276245
1773049159763747000,1.2427470703125,7.223333358764648,0.5491527915000916,-0.01734796352684498
1773049159773723000,1.252722900390625,12.754343032836914,0.7357929348945618,0.5814558863639832
1773049159783701000,1.262700927734375,9.7998046875,0.8506484627723694,1.1365907192230225
1773049159793676800,1.2726767578125,9.900303840637207,1.1282159090042114,0.7872386574745178
1773049159803654700,1.282654541015625,9.009575843811035,0.5730810165405273,0.04486542567610741
1773049159813631000,1.292630859375,8.128418922424316,0.5778666734695435,0.3607180118560791
1773049159823608600,1.302608642578125,12.06939697265625,0.9990034699440002,0.9451649188995361
1773049159833585200,1.312585205078125,10.364511489868164,0.9272187948226929,0.0687936544418335
1773049159843562800,1.322562744140625,8.425128936767578,0.46779683232307434,0.5138586759567261
1773049159853539000,1.3325390625,10.335797309875488,-0.6813562512397766,0.8446664214134216
1773049159863516700,1.3425166015625,8.233702659606934,0.26201409101486206,0.9116654396057129
1773049159873493200,1.3524931640625,10.86281681060791,0.6879364848136902,1.2131611108779907
1773049159883470600,1.362470703125,11.494522094726562,-0.19800607860088348,-0.7501499056816101
1773049159893447400,1.372447509765625,6.165107727050781,0.49651068449020386,-0.26620152592658997
1773049159903424800,1.3824248046875,11.063814163208008,0.5060819983482361,0.15493527054786682
1773049159913401300,1.3924013671875,11.551949501037598,-0.10229317098855972,-0.026919255033135414
1773049159923378700,1.402378662109375,7.975277900695801,0.625723123550415,0.6293123364448547
1773049159933355500,1.41235546875,9.866804122924805,-0.22193430364131927,0.47557350993156433
1773049159943332900,1.422332763671875,9.46899700164795,-0.5330012440681458,0.4420739710330963
1773049159953309400,1.432309326171875,10.292726516723633,0.050847481936216354,0.8255237936973572
1773049159963286800,1.442286865234375,10.50808048248291,0.3242274820804596,-0.046061836183071136
1773049159973263600,1.452263671875,9.421140670776367,0.19920247793197632,0.06400800496339798
1773049159983240700,1.46224072265625,9.138788223266602,0.046061836183071136,-0.2997010350227356
1773049159993217800,1.4722177734375,8.544769287109375,0.10827522724866867,0.15972091257572174
1773049160003195000,1.48219482421875,11.384451866149902,0.251844584941864,0.7010970115661621
1773049160013171700,1.492171630859375,10.153943061828613,0.06999006122350693,0.5288137793540955
1773049160023148800,1.502148681640625,8.909076690673828,0.31465616822242737,0.07836493849754333
1773049160033126000,1.5121259765625,9.90987491607666,-0.07836493849754333,0.006580262444913387
1773049160043103000,1.52210302734375,11.049456596374512,0.3768695592880249,0.32243284583091736
1773049160053080000,1.532080078125,9.7998046875,0.49651068449020386,1.007378339767456
1773049160063057200,1.54205712890625,10.474580764770508,0.050847481936216354,0.5383850932121277
1773049160073034000,1.552033935546875,8.047062873840332,0.33858439326286316,-0.4911268353462219
1773049160083011000,1.562010986328125,9.871589660644531,0.8219345808029175,0.48514479398727417
1773049160092988200,1.57198828125,12.074183464050293,0.2955136001110077,0.9499505758285522
1773049160102965200,1.58196533203125,9.320642471313477,0.50129634141922,-0.28534409403800964
1773049160112942300,1.5919423828125,8.157132148742676,0.8171489238739014,0.2602194547653198
1773049160122919400,1.60191943359375,11.049456596374512,0.2183450609445572,0.40378883481025696
1773049160132896300,1.611896240234375,11.758330345153809,0.28115665912628174,0.11186445504426956
1773049160142873300,1.621873291015625,7.980063438415527,0.8745766878128052,0.24107688665390015
1773049160152850400,1.631850341796875,9.445069313049316,0.4534398913383484,0.9403793215751648
1773049160162827500,1.64182763671875,10.431509971618652,0.39601215720176697,0.638883650302887
1773049160172804600,1.6518046875,9.852447509765625,0.7740781307220459,0.5718846321105957
1773049160182781700,1.66178173828125,10.168299674987793,0.5874379873275757,-0.2805584669113159
1773049160192758800,1.6717587890625,8.037490844726562,0.30987054109573364,0.50907301902771
1773049160202735600,1.681735595703125,10.192228317260742,0.5778666734695435,0.5623133182525635
1773049160212712700,1.691712646484375,11.283953666687012,0.6017948985099792,0.2554338276386261
1773049160222689800,1.701689697265625,9.900303840637207,0.5108676552772522,1.428515076637268
1773049160232667000,1.7116669921875,8.257631301879883,0.18963119387626648,1.2562319040298462
1773049160242644000,1.72164404296875,9.881160736083984,0.41515472531318665,-0.6065805554389954
1773049160252621000,1.73162109375,9.665806770324707,0.592223584651947,0.4660021960735321
1773049160262598100,1.74159814453125,10.015159606933594,0.4007977843284607,1.2705888748168945
1773049160272575200,1.7515751953125,8.449056625366211,0.17527425289154053,0.01615155301988125
1773049160282552000,1.761552001953125,9.5264253616333,-0.08315058797597885,-0.5730810165405273
1773049160292529200,1.771529052734375,10.65224838256836,-0.06400800496339798,1.3040883541107178
1773049160302506200,1.78150634765625,9.095717430114746,-0.001794616924598813,0.2793620526790619
1773049160312483300,1.7914833984375,9.608379364013672,-0.18843477964401245,0.006580262444913387
1773049160322460400,1.80146044921875,10.838888168334961,-0.12622138857841492,1.3519448041915894
1773049160332437500,1.8114375,11.604591369628906,0.41515472531318665,-0.06041877344250679
1773049160342414300,1.821414306640625,9.009575843811035,-0.001794616924598813,0.2027917206287384
1773049160352391400,1.831391357421875,8.276773452758789,0.15613168478012085,1.7784653902053833
1773049160362368500,1.841368408203125,10.278369903564453,0.15613168478012085,0.5623133182525635
1773049160372248600,1.85124853515625,10.484152793884277,0.38644084334373474,0.054436713457107544
1773049160382109400,1.861109375,8.214560508728027,0.8506484627723694,0.19322042167186737
1773049160392299500,1.871299560546875,10.206584930419922,0.7022934556007385,1.4715858697891235
1773049160402281000,1.881281005859375,12.81177043914795,0.026919255033135414,0.605384111404419
1773049160412253700,1.891253662109375,7.6977105140686035,0.6400800347328186,0.4707878530025482
1773049160422234000,1.901234130859375,9.349356651306152,0.6017948985099792,1.5385849475860596
1773049160432169000,1.9111689453125,12.624532699584961,0.31465616822242737,0.42771705985069275
1773049160442144800,1.921144775390625,10.709675788879395,0.07956135272979736,1.0552347898483276
1773049160452162000,1.931162109375,7.779066562652588,0.6400800347328186,-0.022133609279990196
1773049160462142000,1.941141845703125,10.393224716186523,0.12263216078281403,2.328814744949341
1773049160471960800,1.9509609375,11.791830062866211,0.3481557071208954,0.9834501147270203
1773049160481924900,1.9609248046875,7.927421569824219,0.865005373954773,-0.5150550603866577
1773049160492031200,1.97103125,9.387641906738281,1.0612168312072754,0.4325026869773865
1773049160502009600,1.981009521484375,12.031112670898438,0.9128618240356445,0.50907301902771
1773049160511985400,1.9909853515625,10.125228881835938,0.1657029688358307,1.3950155973434448
1773049160521963500,2.000963623046875,6.931408882141113,0.23748764395713806,1.6683956384658813
1773049160531939600,2.010939697265625,9.675378799438477,0.381655216217041,1.2993026971817017
1773049160541917400,2.02091748046875,11.341381072998047,0.30987054109573364,1.1461620330810547
1773049160551932400,2.030932373046875,9.34457015991211,-0.01615155301988125,1.1222338676452637
1773049160561914000,2.0409140625,7.645068168640137,0.5300102233886719,-0.2566302418708801
1773049160571847700,2.05084765625,9.559925079345703,0.2955136001110077,2.3814568519592285
1773049160581824500,2.060824462890625,10.87717342376709,-0.2315055876970291,1.9268203973770142
1773049160591801900,2.0708017578125,6.845267295837402,0.09391828626394272,-1.1473584175109863
1773049160601778700,2.08077880859375,9.306285858154297,0.2566302418708801,-0.357128769159317
1773049160611717000,2.090717041015625,11.590234756469727,-0.355932354927063,0.5186443328857422
1773049160621690000,2.100690185546875,8.84207820892334,-0.08793623000383377,-0.23748764395713806
1773049160631593700,2.11059375,8.444271087646484,-0.15972091257572174,-0.18005990982055664
1773049160641559800,2.120559814453125,10.603793144226074,-0.11186445504426956,0.7824530005455017
1773049160651509000,2.130509033203125,11.312666893005371,-0.12622138857841492,-0.06041877344250679
1773049160661473300,2.140473388671875,8.128418922424316,0.18963119387626648,0.3846462368965149
1773049160671501600,2.15050146484375,9.157930374145508,0.06041877344250679,-0.24227328598499298
1773049160681472500,2.160472412109375,10.125228881835938,-0.2267199456691742,0.18843477964401245
1773049160691339500,2.170339599609375,8.549555778503418,-0.006580262444913387,0.8255237936973572
1773049160701300000,2.180300048828125,8.765507698059082,-0.12143574655056,0.5670989751815796
1773049160711254800,2.1902548828125,11.484950065612793,0.5587241053581238,0.8973084688186646
1773049160721214700,2.200214599609375,10.929815292358398,-0.3320041298866272,1.6301103830337524
1773049160731170000,2.210170166015625,10.268798828125,-0.5808576941490173,0.6867401003837585
1773049160741129500,2.22012939453125,9.41635513305664,0.10827522724866867,-0.1417747437953949
1773049160751085300,2.230085205078125,10.939387321472168,0.2667997181415558,0.1788634955883026
1773049160761044200,2.240044189453125,8.660223007202148,-0.08793623000383377,0.7489534616470337
1773049160770924300,2.24992431640625,9.952945709228516,-0.1501496136188507,0.11186445504426956
1773049160780747300,2.259747314453125,10.637292861938477,0.4486542344093323,0.006580262444913387
1773049160790915300,2.269915283203125,9.7998046875,0.38644084334373474,2.386242389678955
1773049160800878000,2.279878173828125,11.154741287231445,-0.2602194547653198,0.7728816866874695
1773049160810792200,2.289792236328125,8.492127418518066,0.0029910283628851175,-0.6687939167022705
1773049160820750000,2.29975,8.516056060791016,1.0660024881362915,0.26979073882102966
1773049160830630000,2.3096298828125,12.495320320129395,0.4534398913383484,1.1318050622940063
1773049160840510000,2.319510009765625,10.767104148864746,-0.5234299302101135,-0.07956135272979736
1773049160850390000,2.32939013671875,7.932207107543945,0.31465616822242737,-0.49591249227523804
1773049160860270000,2.33927001953125,11.83011531829834,0.36729827523231506,1.098305583000183
1773049160870450000,2.349449951171875,12.380464553833008,-0.7339983582496643,1.6205391883850098
1773049160880630000,2.359630126953125,6.495915412902832,0.20398813486099243,-0.5730810165405273
1773049160890809900,2.369809814453125,9.602995872497559,0.8219345808029175,-0.1417747437953949
1773049160900854000,2.37985400390625,13.338191986083984,-0.1788634955883026,0.5138586759567261
1773049160910873000,2.389873046875,6.993622303009033,-0.2267199456691742,0.03529413416981697
1773049160920845300,2.39984521484375,7.0271220207214355,0.8602197170257568,0.2602194547653198
1773049160930866000,2.409865966796875,13.534402847290039,0.06520441919565201,0.8207381963729858
1773049160940843000,2.419843017578125,11.56152057647705,-0.5952146053314209,0.37028929591178894
1773049160950781400,2.429781494140625,7.448258876800537,-0.08793623000383377,0.8590233325958252
1773049160960754400,2.43975439453125,10.187442779541016,-0.14057832956314087,0.672383189201355
1773049160970735400,2.4497353515625,12.189038276672363,-0.47557350993156433,1.6444673538208008
1773049160980709400,2.45970947265625,7.621140003204346,-0.4085744619369507,1.4093725681304932
1773049160990689500,2.469689453125,8.334200859069824,0.43908295035362244,-0.6400800347328186
1773049161000664000,2.4796640625,10.637292861938477,0.36251261830329895,0.6963114142417908
1773049161010643700,2.489643798828125,9.287142753601074,-0.42771705985069275,3.5258240699768066
1773049161020618500,2.499618408203125,7.8795647621154785,0.0029910283628851175,-0.6305087804794312
1773049161030597600,2.50959765625,7.970492362976074,0.38644084334373474,-0.2757728099822998
1773049161040573200,2.5195732421875,11.307881355285645,0.1944168359041214,1.0552347898483276
1773049161050590700,2.5295908203125,10.211370468139648,-0.15493527054786682,0.0975075215101242
1773049161060570400,2.5395703125,7.984848976135254,0.04127619042992592,0.7680960893630981
1773049161070544600,2.549544677734375,9.41635513305664,0.4247260093688965,0.9020941257476807
1773049161080523800,2.559523681640625,12.476177215576172,-0.001794616924598813,0.6867401003837585
1773049161090498800,2.569498779296875,7.573283672332764,-0.29371899366378784,1.7545372247695923
1773049161100477400,2.5794775390625,7.908278942108154,0.5539384484291077,0.6915257573127747
1773049161110453000,2.589452880859375,12.088540077209473,0.2231307178735733,-0.47676992416381836
1773049161120431400,2.599431396484375,8.990432739257812,-0.1501496136188507,0.5814558863639832
1773049161130407200,2.6094072265625,8.209774017333984,0.2907279431819916,0.355932354927063
1773049161140385300,2.61938525390625,10.474580764770508,0.4247260093688965,1.0791629552841187
1773049161150361300,2.629361328125,11.240882873535156,-0.1740778535604477,1.7114664316177368
1773049161160339200,2.639339111328125,9.804591178894043,0.08434699475765228,-0.7836494445800781
1773049161170315300,2.649315185546875,8.95693302154541,0.4342973232269287,0.5186443328857422
1773049161180293000,2.659293212890625,10.503294944763184,-0.15972091257572174,2.5633113384246826
1773049161190337300,2.669337158203125,11.734402656555176,-0.5186443328857422,1.069591760635376
1773049161200321800,2.67932177734375,9.095717430114746,0.50129634141922,-0.8171489238739014
1773049161210223600,2.6892236328125,8.92821979522705,0.49172505736351013,1.0121639966964722
1773049161220200000,2.699199951171875,10.570294380187988,0.18005990982055664,0.16450655460357666
1773049161230177800,2.709177734375,8.200202941894531,0.16091732680797577,0.389431893825531
1773049161240154000,2.719154052734375,10.38365364074707,0.11306086927652359,2.6452653408050537
1773049161250132000,2.729132080078125,9.751948356628418,0.5539384484291077,-0.12263216078281403
1773049161260108500,2.739108642578125,9.637093544006348,0.4582255482673645,0.6197410821914673
1773049161270086100,2.749086181640625,10.163514137268066,0.41994038224220276,0.2793620526790619
1773049161280062700,2.759062744140625,10.522438049316406,0.6975077986717224,0.5240281820297241
1773049161290040000,2.7690400390625,9.143573760986328,0.6305087804794312,0.7728816866874695
1773049161300017000,2.779016845703125,11.465807914733887,0.9702895879745483,0.08315058797597885
1773049161309994200,2.788994140625,9.948160171508789,0.1178465187549591,0.5240281820297241
1773049161319971000,2.79897119140625,8.181060791015625,0.6783652305603027,0.50907301902771
1773049161329948400,2.808948486328125,10.676176071166992,1.430309772491455,0.04486542567610741
1773049161339925200,2.81892529296875,11.3509521484375,1.2335001230239868,0.5431707501411438
1773049161349902600,2.828902587890625,8.496912956237793,0.7597211599349976,0.5958128571510315
1773049161359879400,2.83887939453125,10.441082000732422,1.2191431522369385,0.0975075215101242
1773049161369856800,2.848856689453125,10.268798828125,1.1330015659332275,0.42293140292167664
1773049161379833600,2.85883349609375,11.341381072998047,1.1665010452270508,1.246660590171814
1773049161389810700,2.868810791015625,9.392427444458008,1.200000524520874,0.09272187948226929
1773049161399787800,2.878787841796875,10.14437198638916,1.4063814878463745,0.025722842663526535
1773049161409764900,2.888764892578125,9.943374633789062,1.2430713176727295,0.35114672780036926
1773049161419742000,2.898741943359375,8.219346046447754,0.9655039310455322,0.2745763957500458
1773049161429719000,2.908718994140625,12.380464553833008,1.602592945098877,1.0504491329193115
1773049161439696100,2.918696044921875,8.281558990478516,1.042074203491211,0.7920243144035339
1773049161449673200,2.928673095703125,8.46341323852539,0.9367900490760803,1.275374412536621
1773049161459650000,2.938650146484375,10.331011772155762,1.3872389793395996,0.0687936544418335
1773049161469627400,2.94862744140625,10.264012336730957,1.358525037765503,0.28893333673477173
1773049161479604200,2.958604248046875,9.100502967834473,1.1665010452270508,0.19800607860088348
1773049161489581300,2.968581298828125,9.34457015991211,1.3010972738265991,0.08793623000383377
1773049161499558400,2.978558349609375,10.512866020202637,1.3776676654815674,0.4468596279621124
1773049161509535500,2.988535400390625,10.388439178466797,1.3010972738265991,0.29371899366378784
1773049161519512600,2.9985126953125,6.370890140533447,0.7501499056816101,-0.0029910283628851175
1773049161529489700,3.00848974609375,10.944172859191895,1.4446666240692139,0.5479564070701599
1773049161539466800,3.018466796875,11.116456031799316,1.0085747241973877,0.6532405614852905
1773049161549443800,3.02844384765625,8.219346046447754,0.4486542344093323,0.50907301902771
1773049161559421000,3.0384208984375,10.005587577819824,1.2430713176727295,0.22193430364131927
1773049161569398000,3.04839794921875,10.192228317260742,0.5395814776420593,1.0121639966964722
1773049161579374800,3.058374755859375,11.394022941589355,-0.0975075215101242,3.056830883026123
1773049161589313300,3.068313232421875,8.195417404174805,0.5156532526016235,-0.07477571070194244
1773049161599286300,3.078286376953125,8.827720642089844,0.9415757060050964,-0.01734796352684498
1773049161609306000,3.08830615234375,9.996016502380371,0.5300102233886719,1.093519926071167
1773049161619284000,3.098283935546875,10.441082000732422,0.6975077986717224,0.494716078042984
1773049161629260300,3.10826025390625,9.019146919250488,0.6496513485908508,1.0552347898483276
1773049161639238000,3.11823779296875,8.866005897521973,0.6975077986717224,1.552941918373108
1773049161649214200,3.128214111328125,11.590234756469727,1.171286702156067,-0.15134602785110474
1773049161659191800,3.13819189453125,10.666604995727539,0.44386860728263855,0.8590233325958252
1773049161669168400,3.14816845703125,7.874779224395752,0.8123632669448853,0.10707881301641464
1773049161679146000,3.15814599609375,10.575079917907715,1.113858938217163,0.7010970115661621
1773049161689122600,3.16812255859375,10.455438613891602,0.592223584651947,0.8398807644844055
1773049161699100000,3.178099853515625,9.905089378356934,0.865005373954773,0.2745763957500458
1773049161709076700,3.18807666015625,9.392427444458008,1.022931694984436,0.8590233325958252
1773049161719054000,3.19805419921875,11.547163963317871,1.113858938217163,0.973878800868988
1773049161729031000,3.208031005859375,10.091729164123535,0.6161518096923828,1.25144624710083
1773049161739008000,3.218008056640625,10.98724365234375,1.1042876243591309,1.404586911201477
1773049161748984800,3.22798486328125,9.780662536621094,1.1904292106628418,0.13579268753528595
1773049161758962200,3.237962158203125,8.765507698059082,0.865005373954773,0.4707878530025482
1773049161768939000,3.24793896484375,9.220144271850586,0.8937192559242249,0.3798605799674988
1773049161778916400,3.257916259765625,11.7056884765625,1.3537393808364868,1.5098711252212524
1773049161788893200,3.26789306640625,9.56471061706543,1.0995019674301147,1.0552347898483276
1773049161798870300,3.277870361328125,8.449056625366211,0.9320043921470642,0.1740778535604477
1773049161808847400,3.287847412109375,11.652447700500488,1.2957134246826172,0.7154539823532104
1773049161818824400,3.297824462890625,8.985647201538086,1.0612168312072754,0.45643091201782227
1773049161828801500,3.307801513671875,8.50169849395752,1.0995019674301147,0.47557350993156433
1773049161838778600,3.317778564453125,10.795817375183105,1.3441680669784546,0.5186443328857422
1773049161848755500,3.32775537109375,10.719246864318848,1.0612168312072754,2.1948165893554688
1773049161858732500,3.337732666015625,9.535996437072754,0.8889335989952087,1.7832510471343994
1773049161868709600,3.347709716796875,9.287142753601074,1.2191431522369385,-0.47676992416381836
1773049161878686700,3.357686767578125,11.116456031799316,1.430309772491455,0.3798605799674988
1773049161888663800,3.367663818359375,10.13479995727539,1.1473584175109863,0.13579268753528595
1773049161898641000,3.377640869140625,6.620342254638672,0.6879364848136902,-0.0077766734175384045
1773049161908618000,3.387617919921875,10.335797309875488,1.1330015659332275,0.6532405614852905
1773049161918595000,3.397594970703125,11.135598182678223,1.2335001230239868,0.6771687865257263
1773049161928572000,3.407572021484375,9.780662536621094,0.9367900490760803,0.6293123364448547
1773049161938549000,3.417549072265625,8.880363464355469,0.8697910308837891,0.5527420043945312
1773049161948526000,3.427526123046875,9.89551830291748,1.046859860420227,0.7345965504646301
1773049161958503200,3.437503173828125,10.235299110412598,0.8889335989952087,0.9308080077171326
1773049161968480300,3.447480224609375,7.376473903656006,0.7357929348945618,0.26500511169433594
1773049161978457300,3.457457275390625,13.189836502075195,1.3537393808364868,0.8303094506263733
1773049161988434400,3.467434326171875,8.583653450012207,0.8315058946609497,0.6819544434547424
1773049161998411500,3.47741162109375,7.802994728088379,0.9224331378936768,0.389431893825531
1773049162008388400,3.487388427734375,10.235299110412598,1.2191431522369385,0.3655036687850952
1773049162018365400,3.497365478515625,9.54078197479248,1.0037890672683716,0.4420739710330963
1773049162028342500,3.507342529296875,9.828518867492676,0.9798609018325806,0.605384111404419
1773049162038319600,3.517319580078125,12.026326179504395,1.2239288091659546,0.6197410821914673
1773049162048296700,3.527296630859375,12.313465118408203,1.3489537239074707,0.5623133182525635
1773049162058273800,3.537273681640625,7.476972579956055,0.7980063557624817,0.3798605799674988
1773049162068251000,3.5472509765625,10.838888168334961,1.200000524520874,0.6149554252624512
1773049162078228000,3.55722802734375,9.277571678161621,1.0037890672683716,0.7345965504646301
1773049162088204800,3.567204833984375,8.22413158416748,0.9224331378936768,0.48035913705825806
1773049162098182000,3.577181884765625,10.522438049316406,1.2430713176727295,0.9643075466156006
1773049162108159000,3.587158935546875,10.685748100280762,2.5459632873535156,1.3088740110397339
1773049162118136000,3.597135986328125,9.124430656433105,1.1042876243591309,-0.06041877344250679
1773049162128113200,3.607113037109375,11.331809997558594,1.195214867591858,0.1740778535604477
1773049162138090200,3.61709033203125,10.077372550964355,1.3058829307556152,0.08793623000383377
1773049162148067300,3.6270673828125,8.598010063171387,1.171286702156067,1.4763715267181396
1773049162158044400,3.63704443359375,10.642078399658203,1.3728820085525513,2.913261651992798
1773049162168021500,3.647021484375,8.458627700805664,0.9080761671066284,-0.26141586899757385
1773049162177998300,3.656998291015625,11.628520011901855,1.8801604509353638,-0.29012975096702576
1773049162187975400,3.666975341796875,8.83250617980957,1.7748762369155884,1.4476577043533325
1773049162197952500,3.676952392578125,7.299903869628906,0.9128618240356445,2.3670997619628906
1773049162207929600,3.6869296875,11.025528907775879,1.4063814878463745,0.8350951075553894
1773049162217906700,3.69690673828125,9.1052885055542,1.2287144660949707,-0.28534409403800964
1773049162227883800,3.7068837890625,7.984848976135254,1.4350954294204712,3.1716864109039307
1773049162237860900,3.71686083984375,12.088540077209473,0.21355941891670227,-0.4097708761692047
1773049162247838000,3.726837890625,8.511270523071289,-0.23629122972488403,-0.3188436031341553
1773049162257814800,3.736814697265625,7.936992645263672,0.23748764395713806,0.4899304509162903
1773049162267792000,3.7467919921875,7.941778182983398,0.12263216078281403,3.4061830043792725
1773049162277769000,3.75676904296875,11.518449783325195,-0.600000262260437,0.5431707501411438
1773049162287746000,3.76674609375,7.908278942108154,-0.28893333673477173,-0.7310073375701904
1773049162297723100,3.77672314453125,9.938589096069336,-1.0839486122131348,3.751347780227661
1773049162307700200,3.7867001953125,10.901102066040039,-0.6047859191894531,0.37507495284080505
1773049162317677300,3.79667724609375,7.7838521003723145,-0.04007977992296219,-0.4289134442806244
1773049162327654400,3.806654296875,12.145967483520508,-0.9212366938591003,2.7314071655273438
1773049162337631200,3.81663134765625,8.047062873840332,-0.42293140292167664,0.8350951075553894
1773049162347608300,3.8266083984375,9.665806770324707,-0.4612165689468384,2.032104730606079
1773049162357585400,3.83658544921875,9.263215065002441,-0.4660021960735321,-0.46719861030578613
1773049162367562500,3.8465625,8.281558990478516,-0.5377869009971619,1.721037745475769
1773049162377539600,3.85653955078125,10.512866020202637,-0.4325026869773865,0.5862415432929993
1773049162387516700,3.8665166015625,8.822935104370117,-0.7968099117279053,1.2562319040298462
1773049162397493800,3.87649365234375,8.02791976928711,-0.6430711150169373,1.399801254272461
1773049162407470600,3.886470703125,10.527223587036133,-0.0975075215101242,-0.23270200192928314
1773049162417447700,3.89644775390625,13.663615226745605,-0.6574280261993408,2.510669231414795
1773049162427424800,3.9064248046875,8.703293800354004,-0.5617151260375977,1.5242279767990112
1773049162437401900,3.91640185546875,9.382855415344238,-0.4325026869773865,0.049651071429252625
1773049162447379000,3.92637890625,10.0343017578125,-0.4899304509162903,0.3032902777194977
1773049162457356000,3.93635595703125,9.881160736083984,-1.4428720474243164,2.544168710708618
1773049162467333000,3.9463330078125,9.871589660644531,-1.0552347898483276,0.5958128571510315
1773049162477310000,3.95631005859375,8.98086166381836,-0.16929219663143158,-0.8458628058433533
1773049162487287000,3.966287109375,10.805388450622559,-0.15972091257572174,0.9643075466156006
1773049162497264000,3.97626416015625,11.327024459838867,-1.246660590171814,2.9419753551483154
1773049162507241200,3.9862412109375,8.937790870666504,-0.6813562512397766,0.3415754437446594
1773049162517218300,3.99621826171875,9.775876998901367,-0.0687936544418335,-0.07956135272979736
1773049162527195400,4.0061953125,11.575878143310547,-0.1501496136188507,1.275374412536621
1773049162537172500,4.01617236328125,9.181859016418457,-1.069591760635376,1.716252088546753
1773049162547052500,4.026052490234375,8.631509780883789,-0.8733802437782288,1.6253247261047363
1773049162556913700,4.03591357421875,12.69153118133545,-0.542572557926178,-0.7022934556007385
1773049162567103500,4.046103515625,11.686545372009277,-0.6095715761184692,-0.3188436031341553
1773049162577084700,4.056084716796875,6.6490559577941895,-1.0408778190612793,4.972285270690918
1773049162587252000,4.066251953125,7.443472862243652,-0.08793623000383377,0.4420739710330963
1773049162597251800,4.076251953125,14.271990776062012,-0.054436713457107544,-1.022931694984436
1773049162607206100,4.0862060546875,11.145169258117676,-0.389431893825531,-0.7740781307220459
1773049162617201700,4.09620166015625,5.0638108253479,-0.2554338276386261,0.049651071429252625
1773049162627160300,4.106160400390625,10.700104713439941,-0.542572557926178,2.7218358516693115
1773049162637152300,4.11615234375,14.444273948669434,-1.0169496536254883,2.6021945476531982
1773049162647032000,4.126031982421875,6.256034851074219,-0.42771705985069275,-0.4097708761692047
1773049162656889900,4.135889892578125,9.325428009033203,-0.5282155871391296,0.5186443328857422
1773049162667068700,4.146068603515625,12.40439224243164,-1.2323036193847656,2.5776681900024414
1773049162677059300,4.156059326171875,9.737591743469238,-0.355932354927063,-0.4145565330982208
1773049162686939400,4.165939453125,8.104490280151367,-0.26500511169433594,-0.05563312768936157
1773049162696797400,4.17579736328125,9.885947227478027,-0.3080759048461914,1.3663017749786377
1773049162706976800,4.185976806640625,9.857233047485352,-0.882951557636261,2.0512471199035645
1773049162716967000,4.195966796875,7.76470947265625,-0.389431893825531,-0.47676992416381836
1773049162726931000,4.205930908203125,10.89153003692627,-0.7100701332092285,1.2993026971817017
1773049162736918500,4.21591845703125,9.45464038848877,-0.719641387462616,2.376671075820923
1773049162746885000,4.225885009765625,8.090133666992188,-0.15972091257572174,-0.16091732680797577
1773049162756870700,4.23587060546875,11.394022941589355,-0.47557350993156433,0.31764721870422363
1773049162766839300,4.24583935546875,9.09093189239502,-1.4189438819885254,4.22512674331665
1773049162776823000,4.255822998046875,8.8707914352417,-0.45643091201782227,-0.13220344483852386
1773049162786793500,4.26579345703125,10.714461326599121,-0.01136590726673603,-0.9128618240356445
1773049162796776000,4.27577587890625,11.169097900390625,-0.42293140292167664,0.26500511169433594
1773049162806747600,4.28574755859375,7.022336483001709,-0.6765705943107605,3.2243285179138184
1773049162816728800,4.295728759765625,9.157930374145508,-0.34636107087135315,0.4660021960735321
1773049162826701800,4.305701904296875,10.86281681060791,-0.389431893825531,-0.8410771489143372
1773049162836682200,4.31568212890625,8.827720642089844,-0.6717849373817444,1.428515076637268
1773049162846655700,4.32565576171875,8.401200294494629,-0.9499505758285522,3.205185890197754
1773049162856635600,4.3356357421875,9.713663101196289,-0.5760720372200012,0.37507495284080505
1773049162866610000,4.34560986328125,10.527223587036133,-0.7483552694320679,1.2179467678070068
1773049162876589300,4.35558935546875,9.06700325012207,-0.5138586759567261,1.1270195245742798
1773049162886564000,4.365564208984375,11.413166046142578,-0.973878800868988,2.520240545272827
1773049162896543000,4.37554296875,9.545567512512207,-0.4468596279621124,-0.4001995921134949
1773049162906518300,4.385518310546875,8.81814956665039,-0.3846462368965149,-0.18005990982055664
1773049162916496600,4.39549658203125,10.848459243774414,-0.7052844762802124,2.046461582183838
1773049162926472200,4.40547216796875,7.984848976135254,-0.7722834944725037,2.166102647781372
1773049162936450600,4.415450439453125,7.82692289352417,-0.32721850275993347,-0.10827522724866867
1773049162946426400,4.42542626953125,9.339784622192383,-0.9020941257476807,1.989033818244934
1773049162956404200,4.435404296875,10.067801475524902,-0.5856433510780334,1.098305583000183
1773049162966380500,4.445380615234375,11.551949501037598,-0.8398807644844055,1.8215361833572388
1773049162976358400,4.4553583984375,8.444271087646484,-0.7770691514015198,1.654038667678833
1773049162986334700,4.465334716796875,10.445867538452148,-0.2793620526790619,-0.357128769159317
1773049162996312300,4.475312255859375,11.676376342773438,-0.37507495284080505,-0.41934216022491455
1773049163006288600,4.48528857421875,9.46899700164795,-1.1509476900100708,5.230710506439209
1773049163016266200,4.495266357421875,7.621140003204346,-0.3080759048461914,0.2745763957500458
1773049163026242800,4.505242919921875,9.263215065002441,-0.12143574655056,-0.7214360237121582
1773049163036220200,4.51522021484375,11.676376342773438,-0.2602194547653198,-0.4336991012096405
1773049163046197000,4.525197021484375,7.57806921005249,-0.26979073882102966,0.32243284583091736
1773049163056174300,4.53517431640625,9.866804122924805,-0.9403793215751648,3.434896945953369
1773049163066151200,4.545151123046875,11.56152057647705,-0.8111668825149536,1.3567304611206055
1773049163076128300,4.555128173828125,8.799007415771484,-0.25064817070961,-0.42412781715393066
1773049163086105000,4.56510498046875,11.01595687866211,-0.7824530005455017,2.5872395038604736
1773049163096082400,4.57508251953125,9.401998519897461,-0.633499801158905,0.14057832956314087
1773049163106059300,4.585059326171875,10.125228881835938,-0.3415754437446594,-0.11306086927652359
1773049163116036400,4.595036376953125,9.277571678161621,-0.9978070259094238,3.377469062805176
1773049163126013400,4.605013427734375,9.694520950317383,-0.5952146053314209,0.32721850275993347
1773049163135990500,4.614990478515625,10.603793144226074,-0.3607180118560791,-0.18484555184841156
1773049163145967400,4.62496728515625,8.319844245910645,-0.6861419081687927,0.9020941257476807
1773049163155944400,4.6349443359375,9.512067794799805,-1.0552347898483276,2.812762975692749
1773049163165921500,4.644921630859375,10.24487018585205,-0.47557350993156433,-0.046061836183071136
1773049163175898600,4.654898681640625,8.789435386657715,-0.4707878530025482,-0.13698910176753998
1773049163185875700,4.664875732421875,12.07896900177002,-0.7244270443916321,1.3950155973434448
1773049163195852800,4.674852783203125,8.214560508728027,-0.9499505758285522,3.535395383834839
1773049163205791000,4.684791015625,10.512866020202637,-0.5712863802909851,0.13100704550743103
1773049163215764200,4.69476416015625,9.55513858795166,-0.32243284583091736,-0.4384847581386566
1773049163225783800,4.70478369140625,10.498509407043457,-0.4372883439064026,0.23629122972488403
1773049163235761700,4.71476171875,9.900303840637207,-0.8590233325958252,2.851048231124878
1773049163245641700,4.724641845703125,7.1228346824646,-0.5665007829666138,1.0265209674835205
1773049163255502300,4.73450244140625,11.32223892211914,-0.542572557926178,0.16450655460357666
1773049163265692000,4.74469189453125,11.834900856018066,-0.5569294691085815,0.10707881301641464
1773049163275673600,4.754673583984375,7.390830993652344,-0.9595218896865845,3.0185458660125732
1773049163285646000,4.76464599609375,9.608379364013672,-0.7920243144035339,1.3950155973434448
1773049163295627000,4.774626953125,10.65224838256836,-0.32243284583091736,-0.5826523303985596
1773049163305600300,4.784600341796875,10.627721786499023,-0.48035913705825806,0.1453639715909958
1773049163315580200,4.794580078125,9.009575843811035,-0.2793620526790619,0.5186443328857422
1773049163325554200,4.80455419921875,10.565508842468262,-0.7674978375434875,0.4707878530025482
1773049163335533800,4.814533935546875,7.70249605178833,-0.8877372145652771,2.9515466690063477
1773049163345413600,4.82441357421875,10.704890251159668,-0.5186443328857422,0.8973084688186646
1773049163355274200,4.834274169921875,10.700104713439941,-0.48035913705825806,2.242672920227051
1773049163365462300,4.844462158203125,8.794221878051758,-0.5665007829666138,0.5479564070701599
1773049163375445200,4.8544453125,7.8795647621154785,-0.3415754437446594,-0.6687939167022705
1773049163385416400,4.86441650390625,10.565508842468262,-0.26979073882102966,-0.15613168478012085
1773049163395398100,4.874398193359375,13.290334701538086,0.13698910176753998,0.6340979933738708
1773049163405370600,4.88437060546875,9.723235130310059,0.18005990982055664,2.8558337688446045
1773049163415351600,4.8943515625,6.8309102058410645,-0.3320041298866272,-0.3284149169921875
1773049163425324800,4.90432470703125,10.743175506591797,-0.494716078042984,1.5242279767990112
1773049163435304700,4.9143046875,9.224929809570312,-0.5377869009971619,5.584847927093506
1773049163445184800,4.924184814453125,11.815757751464844,0.26201409101486206,-1.1808580160140991
1773049163455045000,4.934045166015625,5.90668249130249,0.0364905446767807,-1.602592945098877
1773049163465233000,4.94423291015625,9.20578670501709,0.0364905446767807,0.9451649188995361
1773049163475216100,4.954216064453125,11.681161880493164,-0.6430711150169373,2.6021945476531982
1773049163485187000,4.96418701171875,9.608379364013672,-0.6143572330474854,1.1653046607971191
1773049163495169000,4.9741689453125,8.602795600891113,0.09870393574237823,-0.3188436031341553
1773049163505141000,4.98414111328125,10.944172859191895,-0.4420739710330963,2.8223342895507812
1773049163515122200,4.9941220703125,8.74636459350586,-0.5138586759567261,0.15493527054786682
1773049163525095200,5.00409521484375,9.919445991516113,-0.4420739710330963,0.13579268753528595
1773049163535075300,5.014075439453125,8.60758113861084,-0.8877372145652771,3.0233314037323
1773049163544955400,5.023955322265625,10.810174942016602,-0.8781659007072449,1.740180253982544
1773049163554815700,5.033815673828125,7.956135272979736,-0.4181457459926605,0.3032902777194977
1773049163565003300,5.044003173828125,8.429914474487305,-0.5808576941490173,1.7353945970535278
1773049163574986800,5.05398681640625,12.141181945800781,-0.4995017349720001,0.15493527054786682
1773049163584957400,5.06395751953125,8.434700012207031,-0.882951557636261,3.047259569168091
1773049163594939600,5.073939697265625,8.047062873840332,-0.24107688665390015,0.025722842663526535
1773049163604911600,5.08391162109375,11.149955749511719,-0.42293140292167664,-0.9224331378936768
1773049163614892500,5.093892578125,10.50808048248291,-0.8159525394439697,2.166102647781372
1773049163624865800,5.10386572265625,7.850851058959961,-0.37028929591178894,1.2370892763137817
1773049163634846000,5.113845947265625,11.484950065612793,-0.3320041298866272,-0.4576273262500763
1773049163644819700,5.12381982421875,9.948160171508789,-0.2745763957500458,1.5194423198699951
1773049163654799400,5.13379931640625,8.008777618408203,-0.8925228714942932,2.462812662124634
1773049163664774000,5.14377392578125,9.373284339904785,-0.8111668825149536,0.8303094506263733
1773049163674753000,5.1537529296875,9.732806205749512,-0.9308080077171326,2.4771697521209717
1773049163684633000,5.163633056640625,10.565508842468262,-0.5617151260375977,0.3032902777194977
1773049163694513000,5.173512939453125,8.952147483825684,-0.7148557901382446,0.3607180118560791
1773049163704682000,5.183681884765625,10.230513572692871,-1.4428720474243164,3.6358940601348877
1773049163714666500,5.19366650390625,10.49372386932373,-0.5904290080070496,0.2841476798057556
1773049163724636200,5.20363623046875,10.388439178466797,-0.42293140292167664,-0.10348957777023315
1773049163734619100,5.213619140625,10.01994514465332,-0.5760720372200012,0.10707881301641464
1773049163744590300,5.22359033203125,8.070990562438965,-0.9643075466156006,1.2562319040298462
1773049163754572000,5.233572021484375,10.431509971618652,-1.1174482107162476,2.386242389678955
1773049163764544300,5.243544189453125,8.641080856323242,-0.3846462368965149,-0.37148571014404297
1773049163774525200,5.253525146484375,11.551949501037598,-0.7435696125030518,0.2745763957500458
1773049163784498400,5.26349853515625,7.2951178550720215,-0.4995017349720001,0.3798605799674988
1773049163794478600,5.273478515625,12.667603492736816,-2.022533416748047,3.032902717590332
1773049163804452400,5.283452392578125,7.946564197540283,-4.536193370819092,-0.0891326442360878
1773049163814431700,5.293431640625,11.130812644958496,0.4630111753940582,2.4580271244049072
1773049163824406300,5.30340625,9.148359298706055,-1.490728497505188,-0.5054838061332703
1773049163834385400,5.313385498046875,11.14038372039795,0.26201409101486206,0.355932354927063
1773049163844360400,5.3233603515625,10.101301193237305,-0.7148557901382446,0.07357929646968842
1773049163854339000,5.333339111328125,8.923434257507324,-1.6007983684539795,2.09431791305542
1773049163864314600,5.343314697265625,8.434700012207031,-0.5617151260375977,0.47557350993156433
1773049163874292700,5.353292724609375,9.694520950317383,0.01734796352684498,-0.4049852192401886
1773049163884268500,5.3632685546875,10.704890251159668,-0.9643075466156006,1.7832510471343994
1773049163894246700,5.37324658203125,9.852447509765625,-1.2370892763137817,1.3184453248977661
1773049163904222700,5.38322265625,7.735995769500732,-0.4372883439064026,0.4899304509162903
1773049163914200600,5.39320068359375,11.964113235473633,-0.8973084688186646,1.0456634759902954
1773049163924177000,5.403177001953125,10.50808048248291,-0.7483552694320679,1.8502501249313354
1773049163934154500,5.413154541015625,8.904291152954102,0.01734796352684498,0.4995017349720001
1773049163944131000,5.423131103515625,9.670592308044434,-0.8207381963729858,-0.21355941891670227
1773049163954108700,5.433108642578125,9.775876998901367,-1.5290136337280273,2.2474586963653564
1773049163964085000,5.4430849609375,8.075776100158691,0.7405785918235779,0.9260223507881165
1773049163974062600,5.4530625,9.593423843383789,-1.1365907192230225,-0.026919255033135414
1773049163984039200,5.4630390625,10.843673706054688,-2.4675984382629395,1.2849457263946533
1773049163994016500,5.4730166015625,7.175477027893066,0.4055834412574768,1.25144624710083
1773049164003993300,5.482993408203125,11.753544807434082,-0.0687936544418335,-1.4536397457122803
1773049164013970400,5.492970458984375,10.944172859191895,-1.332802176475525,1.831107497215271
1773049164023947300,5.502947265625,8.429914474487305,-0.7770691514015198,4.048057556152344
1773049164033924600,5.512924560546875,9.354142189025879,0.7836494445800781,-1.3100703954696655
1773049164043901400,5.5229013671875,10.838888168334961,-0.08793623000383377,-0.5252245664596558
1773049164053878500,5.53287841796875,9.90987491607666,-0.18364913761615753,0.8638089895248413
1773049164063855600,5.542855712890625,8.496912956237793,0.8602197170257568,0.48035913705825806
1773049164073832700,5.552832763671875,10.417153358459473,-0.10229317098855972,1.069591760635376
1773049164083809500,5.5628095703125,9.670592308044434,-2.032104730606079,1.673181176185608
1773049164093786600,5.57278662109375,8.209774017333984,0.9559326171875,-0.01734796352684498
1773049164103763700,5.582763671875,13.524831771850586,1.2382856607437134,0.15493527054786682
1773049164113740800,5.59274072265625,9.641879081726074,-0.6191428303718567,2.486740827560425
1773049164123718000,5.6027177734375,6.457031726837158,-0.07357929646968842,1.098305583000183
1773049164133695000,5.612695068359375,12.05504035949707,0.4486542344093323,0.355932354927063
1773049164143671800,5.622671875,11.355737686157227,-0.45643091201782227,0.3655036687850952
1773049164153649000,5.63264892578125,7.304689407348633,-1.399801254272461,0.40378883481025696
1773049164163626000,5.6426259765625,7.601997375488281,-0.0687936544418335,2.386242389678955
1773049164173603000,5.65260302734375,11.863615036010742,-0.8111668825149536,-0.022133609279990196
1773049164183580200,5.662580078125,9.473783493041992,-1.1270195245742798,-0.6592226624488831
1773049164193557200,5.67255712890625,8.7176513671875,-0.2602194547653198,1.8598214387893677
1773049164203534000,5.6825341796875,10.522438049316406,-0.50907301902771,-0.03170489892363548
1773049164213511200,5.69251123046875,11.686545372009277,-1.0121639966964722,0.8398807644844055
1773049164223488300,5.70248828125,8.185846328735352,-0.9499505758285522,1.6875381469726562
1773049164233465300,5.71246533203125,9.780662536621094,-0.4133601188659668,0.16929219663143158
1773049164243442200,5.722442138671875,10.929815292358398,-0.13100704550743103,0.5527420043945312
1773049164253419300,5.732419189453125,10.01994514465332,-1.3232308626174927,1.4428720474243164
1773049164263396400,5.742396240234375,6.964908599853516,-0.11665010452270508,-0.05563312768936157
1773049164273373400,5.75237353515625,9.153144836425781,-0.4468596279621124,2.669193744659424
1773049164283350500,5.7623505859375,12.605389595031738,-0.2315055876970291,-0.05563312768936157
1773049164293327600,5.77232763671875,7.76470947265625,-0.32243284583091736,0.5575276613235474
1773049164303304700,5.7823046875,10.192228317260742,0.5252245664596558,0.20757736265659332
1773049164313281500,5.792281494140625,10.555936813354492,-0.355932354927063,1.3040883541107178
1773049164323258600,5.802258544921875,11.106884956359863,-0.23629122972488403,0.5910272002220154
1773049164333235700,5.812235595703125,6.92183780670166,-0.3080759048461914,0.24586252868175507
1773049164343212800,5.822212890625,11.532807350158691,0.13698910176753998,1.222732424736023
1773049164353190000,5.83218994140625,8.909076690673828,0.4103690981864929,-0.4624129831790924
1773049164363167000,5.8421669921875,10.7766752243042,-1.1988041400909424,0.6819544434547424
1773049164373143800,5.852143798828125,7.390830993652344,0.5491527915000916,0.39421752095222473
1773049164383121000,5.862120849609375,11.346166610717773,-0.494716078042984,2.654836654663086
1773049164393098000,5.872097900390625,9.82373332977295,0.2183450609445572,-0.18005990982055664
1773049164403036200,5.8820361328125,7.654639720916748,0.16091732680797577,-0.357128769159317
1773049164413009400,5.892009521484375,12.284751892089844,-0.3846462368965149,0.7585247755050659
1773049164423029000,5.902029052734375,9.358927726745605,0.20398813486099243,1.3088740110397339
1773049164433006800,5.9120068359375,9.483354568481445,0.4247260093688965,0.16929219663143158
1773049164442983200,5.921983154296875,9.56471061706543,-0.849452018737793,0.6197410821914673
1773049164452960800,5.931960693359375,8.410771369934082,-0.4325026869773865,0.15493527054786682
1773049164462937300,5.941937255859375,9.622735977172852,0.1178465187549591,-0.29012975096702576
1773049164472915000,5.9519150390625,10.36929702758789,-0.3798605799674988,0.12622138857841492
1773049164482891500,5.9618916015625,10.613365173339844,-0.7244270443916321,2.6500511169433594
1773049164492868900,5.971868896484375,8.420342445373535,0.4486542344093323,-0.23270200192928314
1773049164502845400,5.981845458984375,10.005587577819824,0.625723123550415,-0.2997010350227356
1773049164512822800,5.99182275390625,12.337393760681152,-0.6717849373817444,2.166102647781372
1773049164522799600,6.001799560546875,7.237690448760986,-0.1788634955883026,1.1270195245742798
1773049164532777000,6.01177685546875,8.933005332946777,0.8697910308837891,0.8063812255859375
1773049164542753800,6.02175390625,12.222537994384766,-0.9978070259094238,1.3854442834854126
1773049164552731000,6.03173095703125,9.632308006286621,0.11306086927652359,1.1365907192230225
1773049164562707700,6.041707763671875,7.82692289352417,0.486939400434494,-0.49591249227523804
1773049164572685000,6.05168505859375,12.390035629272461,-0.31764721870422363,1.074377417564392
1773049164582662000,6.061661865234375,9.392427444458008,-0.5377869009971619,0.18364913761615753
1773049164592639000,6.071638916015625,9.382855415344238,0.8937192559242249,0.11665010452270508
1773049164602538200,6.081538330078125,10.4219388961792,0.26201409101486206,2.2713868618011475
1773049164612507600,6.091507568359375,10.881958961486816,-0.50907301902771,0.5814558863639832
1773049164622570000,6.101570068359375,7.573283672332764,0.5395814776420593,-0.20398813486099243
1773049164632548900,6.111548828125,10.565508842468262,-0.16450655460357666,2.132603168487549
1773049164642524200,6.121524169921875,10.311869621276855,-0.13579268753528595,1.2418749332427979
1773049164652502500,6.13150244140625,7.836493968963623,0.8219345808029175,1.5433706045150757
1773049164662478300,6.141478271484375,10.177870750427246,0.2907279431819916,0.2315055876970291
1773049164672456400,6.15145654296875,9.531210899353027,-0.39421752095222473,0.9499505758285522
1773049164682432300,6.161432373046875,10.15872859954834,-0.006580262444913387,0.47557350993156433
1773049164692410400,6.171410400390625,9.943374633789062,0.9224331378936768,1.495514154434204
1773049164702386400,6.181386474609375,10.110872268676758,-0.35114672780036926,0.12143574655056
1773049164712364300,6.1913642578125,9.531210899353027,-0.5042873620986938,-0.23270200192928314
1773049164722340600,6.201340576171875,8.544769287109375,0.06999006122350693,1.5726827383041382
1773049164732318200,6.211318115234375,10.503294944763184,-0.13579268753528595,0.9403793215751648
1773049164742294800,6.221294677734375,10.120443344116211,0.28115665912628174,0.8255237936973572
1773049164752272100,6.231272216796875,8.195417404174805,-0.07357929646968842,-0.3810569941997528
1773049164762210000,6.2412099609375,11.681161880493164,0.19920247793197632,1.7928223609924316
1773049164772183600,6.25118359375,9.339784622192383,0.22791635990142822,0.19322042167186737
1773049164782164000,6.2611640625,10.709675788879395,-0.47557350993156433,1.6683956384658813
1773049164792138200,6.27113818359375,8.11406135559082,0.5395814776420593,0.6963114142417908
1773049164802118100,6.2811181640625,9.737591743469238,0.13698910176753998,1.5146567821502686
1773049164812093000,6.291093017578125,10.87717342376709,0.06520441919565201,0.6005984544754028
1773049164822111000,6.301111083984375,7.735995769500732,-0.4612165689468384,1.031306505203247
1773049164832090000,6.311090087890625,10.417153358459473,0.5108676552772522,0.25064817070961
1773049164842026200,6.321026123046875,10.690533638000488,0.6065805554389954,1.835893154144287
1773049164852001000,6.3310009765625,9.20578670501709,-0.14057832956314087,-0.1657029688358307
1773049164861980400,6.34098046875,7.850851058959961,-0.5904290080070496,0.12622138857841492
1773049164871955700,6.350955810546875,10.101301193237305,0.3768695592880249,0.8925228714942932
1773049164881973200,6.36097314453125,10.671390533447266,0.50129634141922,-0.12741780281066895
1773049164891953000,6.370952880859375,10.642078399658203,-1.0456634759902954,2.8223342895507812
1773049164901833000,6.3808330078125,7.036693096160889,-0.11665010452270508,-0.04127619042992592
1773049164911712800,6.390712646484375,10.25922679901123,1.0133603811264038,-0.15613168478012085
1773049164921842700,6.4008427734375,14.602200508117676,0.20398813486099243,2.6213371753692627
1773049164931819800,6.41081982421875,5.810969829559326,-0.3415754437446594,1.4380863904953003
1773049164941796900,6.420796875,7.352545738220215,0.7214360237121582,-0.4384847581386566
1773049164951774000,6.43077392578125,14.257634162902832,0.8554341197013855,0.4612165689468384
1773049164961673200,6.440673095703125,7.017550468444824,-0.3080759048461914,2.812762975692749
1773049164971642600,6.450642578125,9.986445426940918,-0.19322042167186737,0.10229317098855972
1773049164981588500,6.46058837890625,7.390830993652344,0.5587241053581238,-0.18005990982055664
1773049164991555600,6.4705556640625,13.280763626098633,0.046061836183071136,0.11665010452270508
1773049165001503700,6.480503662109375,9.82373332977295,-0.08793623000383377,0.6149554252624512
1773049165011469000,6.490468994140625,9.378069877624512,0.18963119387626648,0.5575276613235474
1773049165021458000,6.5004580078125,10.872387886047363,0.6687939167022705,0.916451096534729
1773049165031425300,6.51042529296875,10.192228317260742,-0.3080759048461914,2.970689296722412
1773049165041334500,6.52033447265625,6.931408882141113,0.2183450609445572,-0.0891326442360878
1773049165051296300,6.530296142578125,9.929018020629883,-0.08315058797597885,1.74496591091156
1773049165061249800,6.540249755859375,9.637093544006348,0.046061836183071136,3.229114055633545
1773049165071210500,6.55021044921875,9.57906723022461,0.3577269911766052,0.9643075466156006
1773049165081165000,6.5601650390625,10.517651557922363,-0.09272187948226929,-0.9702895879745483
1773049165091125200,6.570125244140625,7.95134973526001,0.10827522724866867,0.3655036687850952
1773049165100964600,6.579964599609375,13.735400199890137,-0.001794616924598813,0.7489534616470337
1773049165110912500,6.58991259765625,9.550353050231934,-0.0687936544418335,0.2745763957500458
1773049165120995300,6.599995361328125,8.458627700805664,-0.11665010452270508,0.22193430364131927
1773049165130957000,6.60995703125,9.713663101196289,0.31465616822242737,0.9403793215751648
1773049165140837000,6.619837158203125,9.55513858795166,0.2231307178735733,1.7353945970535278
1773049165150717000,6.629717041015625,9.296713829040527,0.04127619042992592,0.9643075466156006
1773049165160597000,6.639596923828125,8.338987350463867,0.7501499056816101,1.740180253982544
1773049165170477000,6.64947705078125,9.919445991516113,-0.001794616924598813,1.8741782903671265
1773049165180357000,6.659357177734375,10.455438613891602,0.07956135272979736,-0.012562318705022335
1773049165190237000,6.66923681640625,9.900303840637207,0.3242274820804596,1.2610175609588623
1773049165200117000,6.679116943359375,11.255239486694336,-0.10707881301641464,0.8877372145652771
1773049165209997000,6.6889970703125,9.818947792053223,0.20398813486099243,1.179661512374878
1773049165220177200,6.69917724609375,9.110074043273926,-0.13100704550743103,0.10229317098855972
1773049165230357000,6.70935693359375,9.718449592590332,0.15613168478012085,-0.2709871530532837
1773049165240537000,6.719537109375,8.789435386657715,-0.45643091201782227,0.9260223507881165
1773049165250717000,6.729717041015625,9.531210899353027,0.3433700501918793,0.2554338276386261
1773049165260867800,6.739867919921875,10.858031272888184,-0.22193430364131927,0.5431707501411438
1773049165270846500,6.749846435546875,9.948160171508789,0.12263216078281403,2.0368902683258057
1773049165280861000,6.75986083984375,8.482556343078613,1.0277173519134521,0.29371899366378784
1773049165290843100,6.769843017578125,11.791830062866211,-0.29371899366378784,0.8590233325958252
1773049165300776200,6.779776123046875,8.281558990478516,-0.04007977992296219,2.5872395038604736
1773049165310753500,6.78975341796875,8.401200294494629,0.41515472531318665,0.0687936544418335
1773049165320730400,6.79973046875,13.342977523803711,-0.2315055876970291,0.9595218896865845
1773049165330707700,6.809707763671875,7.476972579956055,0.23748764395713806,1.6061822175979614
1773049165340684500,6.8196845703125,9.425926208496094,-0.31764721870422363,-0.2709871530532837
1773049165350662000,6.829661865234375,10.139585494995117,0.07956135272979736,0.5527420043945312
1773049165360638700,6.839638671875,8.539983749389648,0.5252245664596558,1.1174482107162476
1773049165370615800,6.84961572265625,11.10209846496582,-0.19800607860088348,0.39421752095222473
1773049165380593000,6.859593017578125,8.81814956665039,0.05563312768936157,1.7976080179214478
1773049165390570000,6.869570068359375,9.651450157165527,0.4007977843284607,0.7489534616470337
1773049165400585700,6.879585693359375,11.106884956359863,0.13220344483852386,1.831107497215271
1773049165410567000,6.88956689453125,9.406784057617188,-0.19800607860088348,0.5042873620986938
1773049165420540000,6.899539794921875,8.200202941894531,0.23270200192928314,1.9316060543060303
1773049165430520300,6.909520263671875,10.972886085510254,0.4630111753940582,0.9212366938591003
1773049165440494000,6.919494140625,10.819746017456055,0.3242274820804596,0.5910272002220154
1773049165450473700,6.9294736328125,9.90987491607666,-0.9930213689804077,1.3232308626174927
1773049165460448300,6.9394482421875,7.6498541831970215,0.33858439326286316,-0.33798620104789734
1773049165470427400,6.949427490234375,11.327024459838867,0.6017948985099792,0.39421752095222473
1773049165480402400,6.95940234375,11.480164527893066,-0.8015955686569214,0.9020941257476807
1773049165490381300,6.96938134765625,6.783053874969482,0.12263216078281403,0.26500511169433594
1773049165500261400,6.979261474609375,10.613365173339844,0.33858439326286316,2.0033907890319824
1773049165510079700,6.989079833984375,10.182656288146973,-0.35114672780036926,0.2841476798057556
1773049165520259800,6.999259765625,8.92821979522705,0.5635097622871399,1.3615161180496216
1773049165530294000,7.0092939453125,11.542378425598145,-0.10229317098855972,2.400599241256714
1773049165540265000,7.019264892578125,9.828518867492676,0.18963119387626648,0.8303094506263733
1773049165550247000,7.029246826171875,8.353343963623047,0.9032905697822571,0.5814558863639832
1773049165560219100,7.03921923828125,10.393224716186523,-0.1788634955883026,2.654836654663086
1773049165580173300,7.05917333984375,7.750352382659912,0.39122650027275085,0.07357929646968842
1773049165590153500,7.069153564453125,13.74497127532959,-0.18843477964401245,0.45164528489112854
1773049165600127500,7.07912744140625,8.679366111755371,-0.973878800868988,0.08315058797597885
1773049165610107100,7.089107177734375,8.410771369934082,0.8697910308837891,1.2610175609588623
1773049165620081700,7.09908154296875,11.25045394897461,0.14656038582324982,0.37507495284080505
1773049165630060800,7.109060791015625,10.25922679901123,-0.4372883439064026,1.9411773681640625
1773049165640035800,7.119035888671875,7.82692289352417,0.6640082597732544,1.5385849475860596
1773049165650014700,7.1290146484375,10.89153003692627,-0.09272187948226929,0.16450655460357666
1773049165659894500,7.13889453125,8.69372272491455,0.07956135272979736,1.960319995880127
1773049165669755600,7.148755615234375,10.053443908691406,-0.07836493849754333,2.4771697521209717
1773049165679944200,7.158944091796875,9.378069877624512,0.13698910176753998,-0.9176474809646606
1773049165689926400,7.168926513671875,9.129216194152832,0.10348957777023315,0.355932354927063
1773049165699898400,7.1788984375,12.107682228088379,-0.5617151260375977,0.15972091257572174
1773049165709879600,7.188879638671875,8.73200798034668,0.3242274820804596,-0.29012975096702576
1773049165719852500,7.1988525390625,10.920244216918945,0.1417747437953949,0.07836493849754333
1773049165729833000,7.2088330078125,10.498509407043457,-0.6717849373817444,0.22193430364131927
1773049165739806700,7.218806640625,8.434700012207031,0.3768695592880249,0.9834501147270203
1773049165749786600,7.22878662109375,10.201799392700195,0.865005373954773,2.142174482345581
1773049165759761000,7.238760986328125,9.656235694885254,-0.3415754437446594,0.7250252366065979
1773049165769740300,7.248740234375,8.563912391662598,0.49651068449020386,2.352742910385132
1773049165779715000,7.258715087890625,9.047860145568848,0.36251261830329895,0.4181457459926605
1773049165789694000,7.26869384765625,12.476177215576172,-0.6430711150169373,1.0791629552841187
1773049165799669500,7.27866943359375,8.674580574035645,-0.5473581552505493,1.4380863904953003
1773049165809647900,7.28864794921875,8.866005897521973,0.6975077986717224,-0.4001995921134949
1773049165819623400,7.29862353515625,12.893126487731934,0.12741780281066895,0.23629122972488403
1773049165829601800,7.308601806640625,7.860422611236572,-1.2705888748168945,1.2849457263946533
1773049165839577900,7.318577880859375,8.50169849395752,0.5395814776420593,-0.10827522724866867
1773049165849555700,7.3285556640625,11.834900856018066,0.4582255482673645,0.7824530005455017
1773049165859532000,7.338531982421875,9.028717994689941,-0.47557350993156433,2.2187447547912598
1773049165869510000,7.348510009765625,7.314260482788086,0.44386860728263855,-0.0077766734175384045
1773049165879486200,7.358486328125,10.469795227050781,0.43908295035362244,1.654038667678833
1773049165889463800,7.3684638671875,10.431509971618652,-0.42293140292167664,3.229114055633545
1773049165899440400,7.3784404296875,8.023134231567383,0.41994038224220276,-0.47198426723480225
1773049165909418000,7.38841796875,10.077372550964355,0.5491527915000916,0.20757736265659332
1773049165919394600,7.39839453125,11.240882873535156,-0.2267199456691742,1.1700903177261353
1773049165929372200,7.4083720703125,8.96650505065918,-0.19322042167186737,0.2793620526790619
1773049165939348700,7.4183486328125,10.622936248779297,0.10827522724866867,0.09272187948226929
1773049165949326000,7.428326171875,10.110872268676758,-0.24586252868175507,0.5383850932121277
1773049165959303000,7.438302978515625,9.559925079345703,0.10827522724866867,1.428515076637268
1773049165969280300,7.4482802734375,9.531210899353027,0.01734796352684498,1.5098711252212524
1773049165979257000,7.458257080078125,10.517651557922363,0.1417747437953949,0.5479564070701599
1773049165989234400,7.468234375,10.000802040100098,-0.0975075215101242,2.8414769172668457
1773049165999211300,7.478211181640625,9.814162254333496,0.5539384484291077,1.1270195245742798
1773049166009188600,7.488188720703125,10.077372550964355,0.20877377688884735,0.9786644577980042
1773049166019068700,7.498068603515625,9.804591178894043,-0.5665007829666138,2.779263496398926
1773049166028930000,7.507929931640625,8.037490844726562,0.12263216078281403,-0.0364905446767807
1773049166039119600,7.51811962890625,10.182656288146973,0.2955136001110077,-0.4145565330982208
1773049166049101000,7.52810107421875,11.528020858764648,-0.9978070259094238,1.9986051321029663
1773049166059073800,7.53807373046875,8.875576972961426,-0.25064817070961,1.3040883541107178
1773049166069054500,7.548054443359375,9.6466646194458,0.711864709854126,-0.3475574851036072
1773049166079028000,7.558028076171875,11.854043006896973,-0.4995017349720001,1.831107497215271
1773049166089007900,7.5680078125,8.712865829467773,0.026919255033135414,3.1334011554718018
1773049166098982400,7.577982421875,7.755138397216797,0.33379876613616943,0.605384111404419
1773049166108961500,7.58796142578125,10.38365364074707,0.3290131092071533,0.9882357716560364
1773049166118841600,7.597841552734375,9.306285858154297,-0.05922235921025276,2.6213371753692627
1773049166128702700,7.60770263671875,9.632308006286621,-0.5856433510780334,1.5337992906570435
1773049166138890500,7.617890380859375,9.593423843383789,0.41515472531318665,-0.251844584941864
1773049166148873200,7.627873291015625,11.734402656555176,0.0029910283628851175,0.638883650302887
1773049166158753300,7.637753173828125,11.23609733581543,-0.7722834944725037,1.0839486122131348
1773049166178822100,7.657822265625,11.652447700500488,0.3433700501918793,0.7250252366065979
1773049166188775400,7.667775390625,10.182656288146973,-0.7483552694320679,0.12143574655056
1773049166198771700,7.677771728515625,7.194619655609131,0.49651068449020386,2.9563324451446533
1773049166208651800,7.68765185546875,10.441082000732422,0.8745766878128052,2.0991036891937256
1773049166218509300,7.69750927734375,10.661819458007812,-0.4181457459926605,0.16450655460357666
1773049166228684000,7.70768408203125,8.429914474487305,-0.13100704550743103,1.2562319040298462
1773049166238677800,7.717677734375,8.492127418518066,0.6831508874893188,1.9124635457992554
1773049166248638500,7.727638427734375,12.155538558959961,-0.4612165689468384,0.7010970115661621
1773049166258628900,7.73762890625,9.69930648803711,-0.19800607860088348,-0.03170489892363548
1773049166268592600,7.747592529296875,9.569496154785156,-0.4372883439064026,-0.251844584941864
1773049166278580500,7.75758056640625,10.848459243774414,-0.3367897868156433,0.6293123364448547
1773049166288547000,7.767547119140625,11.054242134094238,-0.3128615617752075,0.5431707501411438
1773049166298532600,7.77753271484375,8.214560508728027,0.17527425289154053,0.8255237936973572
1773049166308412700,7.78741259765625,8.617152214050293,0.17527425289154053,1.2993026971817017
1773049166318272300,7.797272216796875,9.780662536621094,-0.08315058797597885,0.882951557636261
1773049166328455400,7.807455322265625,8.70807933807373,-0.16929219663143158,2.3336002826690674
1773049166338442000,7.81744189453125,9.20578670501709,0.6687939167022705,0.389431893825531
1773049166348409600,7.82740966796875,11.054242134094238,-0.8350951075553894,1.275374412536621
1773049166358394400,7.837394287109375,8.947361946105957,-0.19322042167186737,0.03529413416981697
1773049166368364000,7.847364013671875,9.77109146118164,0.6496513485908508,1.1748759746551514
1773049166378347300,7.85734716796875,11.193026542663574,-0.7627122402191162,0.5862415432929993
1773049166388318200,7.867318115234375,8.233702659606934,-0.4707878530025482,-0.7070791125297546
1773049166398300200,7.877300048828125,9.766305923461914,0.6161518096923828,0.15972091257572174
1773049166408272400,7.8872724609375,11.193026542663574,-0.5042873620986938,3.181257724761963
1773049166418253600,7.897253662109375,9.756733894348145,0.3002992272377014,0.5042873620986938
1773049166428226800,7.907226806640625,7.779066562652588,0.3529413342475891,-0.37148571014404297
1773049166438207000,7.91720703125,9.301499366760254,0.4103690981864929,1.399801254272461
1773049166448181000,7.927180908203125,10.64686393737793,0.10348957777023315,3.0903303623199463
1773049166458160600,7.93716064453125,9.038289070129395,-0.18843477964401245,-0.1657029688358307
1773049166468135200,7.94713525390625,8.985647201538086,0.11306086927652359,-0.711864709854126
1773049166478114300,7.9571142578125,11.417951583862305,-0.4660021960735321,0.8015955686569214
1773049166488089600,7.967089599609375,10.642078399658203,-0.40378883481025696,1.677966833114624
1773049166498068200,7.977068115234375,9.382855415344238,0.33858439326286316,-0.357128769159317
1773049166508043800,7.987043701171875,10.488938331604004,0.13698910176753998,-0.2183450609445572
1773049166518022100,7.997022216796875,8.631509780883789,-0.973878800868988,2.92283296585083
1773049166527998000,8.006998046875,7.8077802658081055,0.7310073375701904,1.74496591091156
1773049166537976000,8.01697607421875,10.575079917907715,0.2566302418708801,-0.14656038582324982
1773049166547952000,8.0269521484375,9.905089378356934,-0.5569294691085815,2.606980323791504
1773049166557930000,8.036929931640625,7.707281589508057,-0.3415754437446594,1.5966109037399292
1773049166567906300,8.04690625,10.110872268676758,-0.0975075215101242,0.35114672780036926
1773049166577884200,8.05688427734375,12.06939697265625,-0.14057832956314087,0.7154539823532104
1773049166587860700,8.06686083984375,10.101301193237305,-0.8590233325958252,-0.4911268353462219
1773049166597838300,8.07683837890625,8.73200798034668,-0.0975075215101242,1.222732424736023
1773049166607718400,8.086718505859375,11.178668975830078,0.1178465187549591,1.6205391883850098
1773049166617579500,8.09657958984375,10.441082000732422,-0.5760720372200012,-0.18484555184841156
1773049166627768800,8.106768798828124,8.69372272491455,0.23270200192928314,1.098305583000183
1773049166637750500,8.11675048828125,9.296713829040527,0.4773681163787842,3.348755359649658
1773049166647723000,8.126722900390625,10.536794662475586,-0.29371899366378784,0.8781659007072449
1773049166657704000,8.136703857421875,9.459425926208496,0.2763710021972656,0.08793623000383377
1773049166667677200,8.14667724609375,9.114859580993652,0.2907279431819916,1.835893154144287
1773049166677657300,8.1566572265625,11.145169258117676,-0.23629122972488403,0.34636107087135315
1773049166687631600,8.166631591796875,10.082158088684082,-0.3367897868156433,0.4995017349720001
1773049166697611000,8.176611083984374,9.483354568481445,0.14656038582324982,-0.10827522724866867
1773049166707585800,8.186585693359374,10.89153003692627,0.022133609279990196,-0.1417747437953949
1773049166717564700,8.196564697265625,10.38365364074707,-0.04486542567610741,2.3814568519592285
1773049166727540000,8.2065400390625,8.372486114501953,0.3290131092071533,0.9451649188995361
1773049166737518600,8.2165185546875,10.465009689331055,-0.13100704550743103,-0.47198426723480225
1773049166747494400,8.226494384765624,9.05264663696289,-0.025722842663526535,2.486740827560425
1773049166757472500,8.236472412109375,9.023932456970215,0.39122650027275085,2.5250260829925537
1773049166767448600,8.246448486328125,10.378868103027344,-0.4995017349720001,-0.9320043921470642
1773049166777426700,8.2564267578125,8.257631301879883,-0.2315055876970291,0.2027917206287384
1773049166787402800,8.26640283203125,11.054242134094238,0.2470589429140091,2.352742910385132
1773049166797380600,8.276380615234375,10.316655158996582,-0.5952146053314209,-0.251844584941864
1773049166807357000,8.28635693359375,10.086943626403809,-0.5760720372200012,-0.7310073375701904
1773049166817334800,8.296334716796874,9.071788787841797,-0.13100704550743103,1.246660590171814
1773049166827311000,8.30631103515625,10.287940979003906,0.13220344483852386,1.9268203973770142
1773049166837288700,8.316288818359375,10.240084648132324,-0.25064817070961,0.4085744619369507
1773049166847265500,8.326265625,8.15234661102295,-0.24586252868175507,1.3232308626174927
1773049166857243000,8.336242919921874,8.453842163085938,0.534795880317688,1.9411773681640625
1773049166867413800,8.346413818359375,10.719246864318848,0.18005990982055664,1.9076778888702393
1773049166877411000,8.3564111328125,9.751948356628418,-0.6143572330474854,-0.28534409403800964
1773049166887368200,8.3663681640625,8.061419486999512,0.13698910176753998,0.9260223507881165
1773049166897361400,8.376361328125,11.039885520935059,0.5682953596115112,1.3519448041915894
1773049166907241500,8.386241455078125,10.700104713439941,-0.7872386574745178,-0.37148571014404297
1773049166917099000,8.39609912109375,8.60758113861084,0.18963119387626648,0.34636107087135315
1773049166927276500,8.406276611328124,8.516056060791016,0.41994038224220276,1.5290136337280273
1773049166937268200,8.416268310546876,11.417951583862305,0.2566302418708801,1.6444673538208008
1773049166947231000,8.42623095703125,10.474580764770508,-0.054436713457107544,1.7928223609924316
1773049166957219600,8.436219482421874,7.798209190368652,0.2763710021972656,0.16450655460357666
1773049166967185200,8.44618505859375,10.067801475524902,0.6496513485908508,2.2235305309295654
1773049166977171700,8.456171630859375,10.63250732421875,-0.35114672780036926,1.3423734903335571
1773049166987139600,8.4661396484375,8.109275817871094,0.13698910176753998,-0.6448656916618347
1773049166997124000,8.4761240234375,10.043872833251953,-0.12143574655056,0.5670989751815796
1773049167007093800,8.48609375,10.63250732421875,-0.3415754437446594,0.6819544434547424
1773049167017077000,8.496076904296874,9.866804122924805,-0.11186445504426956,1.3280165195465088
1773049167027048200,8.506048095703125,9.919445991516113,-0.1453639715909958,0.5186443328857422
1773049167037030000,8.51602978515625,9.574281692504883,-0.001794616924598813,1.222732424736023
1773049167047002400,8.52600244140625,10.512866020202637,-0.31764721870422363,2.0608184337615967
1773049167056983300,8.5359833984375,8.688937187194824,-0.26500511169433594,1.4524433612823486
1773049167066956500,8.54595654296875,8.846863746643066,0.10827522724866867,0.7537391185760498
1773049167076936700,8.555936767578125,10.25922679901123,-0.3032902777194977,1.7736797332763672
1773049167086910700,8.56591064453125,9.41635513305664,-0.542572557926178,0.5138586759567261
1773049167096890400,8.575890380859375,9.593423843383789,0.15134602785110474,1.1318050622940063
1773049167106865200,8.585865234375,10.733604431152344,-0.19800607860088348,0.34636107087135315
1773049167116844000,8.595843994140624,10.642078399658203,-0.13579268753528595,-0.06041877344250679
1773049167126819300,8.6058193359375,9.593423843383789,-0.07357929646968842,2.4819552898406982
1773049167136798000,8.6157978515625,9.09093189239502,0.23748764395713806,0.8973084688186646
1773049167146773500,8.6257734375,10.110872268676758,0.3768695592880249,0.5527420043945312
1773049167156752000,8.635751953125,9.670592308044434,-0.18843477964401245,2.884547710418701
1773049167166727700,8.645727783203125,9.038289070129395,0.5300102233886719,0.5335994362831116
1773049167176705800,8.655705810546875,10.7766752243042,-0.2027917206287384,1.4811571836471558
1773049167186681900,8.665681884765625,10.115657806396484,0.2470589429140091,0.973878800868988
1773049167196660000,8.675659912109374,9.82373332977295,-0.11665010452270508,0.10229317098855972
1773049167206539800,8.685539794921874,10.575079917907715,-0.07357929646968842,0.3080759048461914
1773049167216400600,8.695400634765624,10.287940979003906,-0.06400800496339798,1.2801600694656372
1773049167226590200,8.705590087890625,10.690533638000488,0.2763710021972656,1.00259268283844
1773049167236572200,8.715572265625,8.875576972961426,0.0077766734175384045,0.9403793215751648
1773049167246544400,8.72554443359375,9.78544807434082,-0.054436713457107544,1.8789639472961426
1773049167256525300,8.735525390625,9.268000602722168,-0.28893333673477173,1.7018951177597046
1773049167266498800,8.745498779296875,9.31585693359375,0.13220344483852386,1.184447169303894
1773049167276479000,8.75547900390625,10.043872833251953,-0.3320041298866272,0.8446664214134216
1773049167286453000,8.765452880859375,8.961718559265137,-0.3655036687850952,1.428515076637268
1773049167296432400,8.775432373046876,9.828518867492676,-0.07836493849754333,1.332802176475525
1773049167306312400,8.7853125,9.665806770324707,-0.5377869009971619,-0.6065805554389954
1773049167316173000,8.795173095703126,9.862018585205078,0.09870393574237823,1.4524433612823486
1773049167326361300,8.805361328125,9.656235694885254,-0.50907301902771,1.6683956384658813
1773049167336344000,8.815343994140624,9.282357215881348,-0.01615155301988125,1.4333007335662842
1773049167346224000,8.82522412109375,10.086943626403809,-0.1501496136188507,0.638883650302887
1773049167356084000,8.835083984375,9.862018585205078,-0.3128615617752075,0.9882357716560364
1773049167366269700,8.845269775390625,8.741579055786133,0.6640082597732544,2.83669114112854
1773049167376254700,8.855254638671875,9.967302322387695,-0.45164528489112854,0.3415754437446594
1773049167386223900,8.865223876953126,9.086145401000977,-0.21236300468444824,-0.15613168478012085
1773049167396207400,8.875207275390625,10.13479995727539,0.39601215720176697,1.74496591091156
1773049167406178000,8.885177978515625,10.791031837463379,-0.07836493849754333,0.4612165689468384
1773049167416160300,8.89516015625,10.086943626403809,0.3577269911766052,0.5431707501411438
1773049167426132200,8.90513232421875,9.45464038848877,-0.10707881301641464,1.275374412536621
1773049167436113700,8.91511376953125,9.378069877624512,0.3481557071208954,1.6205391883850098
1773049167446086700,8.925086669921875,10.192228317260742,0.28115665912628174,1.2323036193847656
1773049167456066800,8.93506689453125,9.598209381103516,-0.28893333673477173,1.5290136337280273
1773049167466040800,8.945040771484376,8.846863746643066,0.6735795736312866,0.1788634955883026
1773049167476020500,8.9550205078125,9.574281692504883,-0.4181457459926605,1.1748759746551514
1773049167485995000,8.9649951171875,9.833304405212402,-0.355932354927063,0.6340979933738708
1773049167495974100,8.97497412109375,9.627521514892578,-0.06400800496339798,0.2027917206287384
1773049167505949200,8.98494921875,10.858031272888184,-0.8303094506263733,0.06400800496339798
1773049167515928000,8.994927978515625,9.866804122924805,0.3194418251514435,1.80717933177948
1773049167525903400,9.0049033203125,9.675378799438477,-0.1453639715909958,1.9507486820220947
1773049167535882000,9.014882080078126,9.20578670501709,-0.47557350993156433,-0.5395814776420593
1773049167545761800,9.02476171875,9.373284339904785,-0.5904290080070496,2.640479803085327
1773049167555622700,9.03462255859375,9.588638305664062,-0.25064817070961,1.8550357818603516
1773049167565811700,9.044811767578125,9.7998046875,-0.2554338276386261,0.1740778535604477
1773049167575794000,9.0547939453125,9.876375198364258,-0.9690931439399719,2.017747640609741
1773049167585766000,9.064765869140626,8.913862228393555,-0.4707878530025482,0.22193430364131927
1773049167595747000,9.0747470703125,9.694520950317383,-0.32243284583091736,1.1413763761520386
1773049167605720300,9.08472021484375,11.073385238647461,-0.7627122402191162,0.9068797826766968
1773049167615700500,9.094700439453124,9.095717430114746,-0.2602194547653198,0.6580262184143066
1773049167625674500,9.104674560546876,8.827720642089844,-0.355932354927063,2.084746837615967
1773049167635654100,9.114654052734375,10.881958961486816,-0.9355936646461487,0.2793620526790619
1773049167645628700,9.124628662109375,9.239286422729492,-0.8446664214134216,1.8263218402862549
1773049167655607800,9.13460791015625,8.544769287109375,0.18963119387626648,1.222732424736023
1773049167665582800,9.144582763671876,10.613365173339844,-1.3710874319076538,1.3232308626174927
1773049167675561700,9.154561767578125,9.473783493041992,-1.0552347898483276,1.6923238039016724
1773049167685537000,9.164537109375,7.735995769500732,0.03170489892363548,-0.1417747437953949
1773049167695515600,9.174515625,11.355737686157227,-0.7387840151786804,1.6683956384658813
1773049167705395500,9.1843955078125,10.359725952148438,-0.6191428303718567,1.654038667678833
1773049167715256300,9.19425634765625,7.994420528411865,-0.5473581552505493,-0.050847481936216354
1773049167725445400,9.2044453125,10.14437198638916,-0.666999340057373,1.4620146751403809
1773049167735427600,9.214427490234375,9.852447509765625,-0.5712863802909851,1.0552347898483276
1773049167745307600,9.2243076171875,9.718449592590332,-0.6478567123413086,1.587039589881897
1773049167755167500,9.23416748046875,8.947361946105957,0.16091732680797577,0.11186445504426956
1773049167765353700,9.244353759765625,9.914660453796387,-0.8063812255859375,1.6348960399627686
1773049167775338200,9.254338134765625,10.7766752243042,-0.8590233325958252,1.9076778888702393
1773049167785308000,9.264307861328126,8.008777618408203,0.625723123550415,0.4899304509162903
1773049167795291100,9.274291015625,11.61416244506836,-0.37028929591178894,0.6005984544754028
1773049167805171000,9.2841708984375,10.01037311553955,-0.494716078042984,1.8454644680023193
1773049167815030800,9.29403076171875,8.166703224182129,-0.006580262444913387,1.4859428405761719
1773049167825216300,9.30421630859375,10.690533638000488,0.026919255033135414,0.16450655460357666
1773049167835201500,9.314201416015624,10.479366302490234,-0.6382854580879211,1.7258232831954956
1773049167845170400,9.32417041015625,9.5264253616333,-0.8685946464538574,1.0121639966964722
1773049167855154200,9.334154296875,9.033503532409668,-0.16929219663143158,0.8685946464538574
1773049167865124900,9.344124755859376,10.709675788879395,-0.4372883439064026,0.9834501147270203
1773049167875107000,9.354107177734376,10.450653076171875,-1.581655740737915,0.973878800868988
1773049167885079000,9.3640791015625,7.500900745391846,-0.3798605799674988,0.8733802437782288
1773049167895060200,9.374060302734375,9.153144836425781,-0.5521438121795654,0.638883650302887
1773049167904940300,9.383940185546875,11.72004508972168,-0.7387840151786804,2.3814568519592285
1773049167914800400,9.39380029296875,8.918647766113281,-0.8015955686569214,0.7776673436164856
1773049167924987100,9.403987060546875,8.267202377319336,-0.3798605799674988,1.0648061037063599
1773049167934971100,9.41397119140625,11.47537899017334,-0.9355936646461487,2.486740827560425
1773049167944941600,9.423941650390624,9.766305923461914,-0.4899304509162903,0.054436713457107544
1773049167954924300,9.43392431640625,8.784649848937988,-0.48514479398727417,1.007378339767456
1773049167964895700,9.443895751953125,10.781460762023926,-1.4141582250595093,2.228316068649292
1773049167974877200,9.453877197265625,9.153144836425781,-0.3320041298866272,0.5288137793540955
1773049167984850000,9.463849853515624,9.358927726745605,-0.40378883481025696,0.22193430364131927
1773049167994830600,9.47383056640625,10.29751205444336,-0.8733802437782288,2.5872395038604736
1773049168004804000,9.48380419921875,8.50169849395752,-0.8398807644844055,0.7680960893630981
1773049168014784000,9.493783935546874,8.81814956665039,-1.31365966796875,0.6101697683334351
1773049168024758300,9.50375830078125,10.005587577819824,-1.7874385118484497,2.3718855381011963
1773049168034737700,9.513737548828125,9.124430656433105,-1.3184453248977661,0.0687936544418335
1773049168044712700,9.523712646484375,9.449854850769043,-0.9595218896865845,1.3471591472625732
1773049168054691600,9.533691650390624,10.331011772155762,-1.7012969255447388,1.2370892763137817
1773049168064667000,9.5436669921875,8.94257640838623,-1.7252250909805298,0.5240281820297241
1773049168074645200,9.553645263671875,8.544769287109375,-0.8781659007072449,1.716252088546753
1773049168084621000,9.56362109375,11.207383155822754,-1.1940184831619263,1.3663017749786377
1773049168094599200,9.57359912109375,9.632308006286621,-1.557727575302124,0.18843477964401245
1773049168104575200,9.5835751953125,8.094919204711914,-0.916451096534729,2.8701908588409424
1773049168114553300,9.59355322265625,10.043872833251953,-0.5760720372200012,0.35114672780036926
1773049168124529400,9.603529296875,10.110872268676758,-1.2993026971817017,1.1509476900100708
1773049168134507300,9.61350732421875,9.382855415344238,-0.4995017349720001,1.5822539329528809
1773049168144483600,9.623483642578124,9.363713264465332,-0.7244270443916321,0.09272187948226929
1773049168154461200,9.633461181640625,11.413166046142578,-0.8877372145652771,1.3471591472625732
1773049168164437800,9.643437744140625,9.019146919250488,-0.7968099117279053,1.1700903177261353
1773049168174415400,9.653415283203126,9.41635513305664,-0.8303094506263733,0.11186445504426956
1773049168184392000,9.663391845703124,10.364511489868164,-0.6047859191894531,1.7641085386276245
1773049168194369500,9.67336962890625,9.847661972045898,-0.8398807644844055,1.1653046607971191
1773049168204346000,9.68334619140625,8.899505615234375,-0.6909275650978088,0.605384111404419
1773049168214323700,9.69332373046875,9.531210899353027,-0.5042873620986938,2.448455810546875
1773049168224300300,9.70330029296875,11.025528907775879,-0.6239284873008728,0.6484549641609192
1773049168234277600,9.713277587890625,9.502496719360352,-0.9212366938591003,1.0360921621322632
1773049168244254500,9.72325439453125,8.69372272491455,-0.21714866161346436,2.1373889446258545
1773049168254231800,9.733231689453126,10.177870750427246,-0.6430711150169373,-0.39541393518447876
1773049168264208600,9.743208740234374,10.311869621276855,-1.31365966796875,1.423729419708252
1773049168274186000,9.75318603515625,8.59322452545166,-0.6191428303718567,1.5822539329528809
1773049168284162800,9.763162841796875,9.320642471313477,-0.21236300468444824,-0.7310073375701904
1773049168294140200,9.77314013671875,10.910673141479492,-0.9978070259094238,2.946761131286621
1773049168304117200,9.7831171875,9.08135986328125,-0.7004988193511963,1.031306505203247
1773049168314094300,9.79309423828125,8.075776100158691,-0.5042873620986938,-0.07956135272979736
1773049168324071200,9.8030712890625,10.292726516723633,-0.3798605799674988,2.9898319244384766
1773049168334048500,9.813048583984376,10.24487018585205,-0.7770691514015198,0.882951557636261
1773049168344025600,9.823025634765624,8.391629219055176,-0.8015955686569214,0.3320041298866272
1773049168354002700,9.833002685546875,9.713663101196289,-0.8063812255859375,1.2658032178878784
1773049168363979500,9.8429794921875,11.542378425598145,-0.8255237936973572,1.0360921621322632
1773049168373956900,9.852956787109376,9.593423843383789,-0.29850462079048157,0.8111668825149536
1773049168383933700,9.86293359375,9.263215065002441,-0.6717849373817444,0.9403793215751648
1773049168393911000,9.8729111328125,9.637093544006348,-0.8781659007072449,0.3655036687850952
1773049168403888000,9.88288818359375,8.899505615234375,-0.6813562512397766,2.3048863410949707
1773049168413865200,9.892865234375,9.54078197479248,-0.37507495284080505,-0.0891326442360878
1773049168423842300,9.90284228515625,9.656235694885254,-0.8973084688186646,0.48035913705825806
1773049168433819400,9.9128193359375,10.551151275634766,-0.5234299302101135,2.7361927032470703
1773049168443796500,9.92279638671875,9.196215629577637,-0.07357929646968842,0.5240281820297241
1773049168453773600,9.932773681640626,10.7766752243042,-0.2027917206287384,0.39900317788124084
1773049168463750400,9.94275048828125,9.905089378356934,-0.542572557926178,1.4859428405761719
1773049168473727500,9.9527275390625,9.033503532409668,-0.12143574655056,0.8350951075553894
1773049168483704800,9.962704833984375,10.29751205444336,-0.5282155871391296,0.9786644577980042
1773049168493682000,9.972681884765626,9.862018585205078,-0.26500511169433594,0.5670989751815796
1773049168503659000,9.982658935546874,9.45464038848877,-0.1501496136188507,1.7306089401245117
1773049168513636000,9.992635986328125,10.445867538452148,-0.3367897868156433,1.7258232831954956
1773049168523613200,10.00261328125,9.919445991516113,-0.39421752095222473,0.4707878530025482
1773049168533590300,10.01259033203125,9.06700325012207,-0.6143572330474854,1.9459630250930786
1773049168543567400,10.0225673828125,10.077372550964355,-0.25064817070961,0.9690931439399719
1773049168553544400,10.03254443359375,10.671390533447266,-0.9930213689804077,0.8111668825149536
1773049168563521500,10.042521484375,9.138788223266602,-0.8159525394439697,1.00259268283844
1773049168573498400,10.052498291015626,9.05264663696289,-0.4660021960735321,0.4325026869773865
1773049168583475700,10.062475830078125,10.867602348327637,-0.916451096534729,1.8550357818603516
1773049168593452800,10.072452880859375,9.368498802185059,-0.4468596279621124,0.7441678643226624
1773049168603429600,10.0824296875,8.74636459350586,-0.9212366938591003,0.8973084688186646
1773049168613406700,10.09240673828125,9.535996437072754,-0.389431893825531,1.721037745475769
1773049168623384000,10.102384033203125,9.334999084472656,-0.6478567123413086,1.155733346939087
1773049168633361200,10.112361083984375,9.80937671661377,-0.9786644577980042,1.1174482107162476
1773049168643338200,10.122338134765625,8.176275253295898,-0.3607180118560791,1.0600204467773438
1773049168653315300,10.1323154296875,10.613365173339844,-0.7824530005455017,0.7585247755050659
1773049168663292400,10.14229248046875,10.488938331604004,-0.9308080077171326,1.246660590171814
1773049168673269500,10.15226953125,8.641080856323242,-0.23629122972488403,1.0552347898483276
1773049168683246300,10.162246337890625,10.455438613891602,-0.7435696125030518,1.0456634759902954
1773049168693223400,10.172223388671876,9.818947792053223,-0.4899304509162903,1.0217353105545044
1773049168703200500,10.182200439453124,9.08135986328125,-0.34636107087135315,1.7736797332763672
1773049168713177600,10.192177490234375,9.651450157165527,-0.4133601188659668,0.8063812255859375
1773049168723154700,10.20215478515625,9.89551830291748,-0.19800607860088348,1.3567304611206055
1773049168733131800,10.2121318359375,9.914660453796387,-0.355932354927063,1.0648061037063599
1773049168743108900,10.22210888671875,8.808578491210938,0.3529413342475891,1.222732424736023
1773049168753086000,10.2320859375,10.503294944763184,-0.3846462368965149,0.29850462079048157
1773049168763063000,10.24206298828125,10.082158088684082,-0.28893333673477173,0.45164528489112854
1773049168773040000,10.2520400390625,9.833304405212402,0.4486542344093323,1.7114664316177368
1773049168783017200,10.262017333984375,10.441082000732422,-0.39421752095222473,0.8542376756668091
1773049168792994300,10.271994384765625,9.421140670776367,0.10348957777023315,0.39421752095222473
1773049168802971400,10.281971435546875,9.19143009185791,-0.1740778535604477,2.103889226913452
1773049168812948500,10.291948486328126,9.890732765197754,0.0891326442360878,0.9212366938591003
1773049168822925600,10.301925537109375,9.991230964660645,-0.6382854580879211,1.2083754539489746
1773049168832902700,10.311902587890625,9.000003814697266,-0.5521438121795654,-0.026919255033135414
1773049168842879700,10.321879638671875,8.47298526763916,0.050847481936216354,1.563111424446106
1773049168852856800,10.33185693359375,11.049456596374512,-0.8063812255859375,0.882951557636261
1773049168862834000,10.341833984375,9.110074043273926,-0.7052844762802124,-0.3044866919517517
1773049168872811000,10.35181103515625,9.06700325012207,-0.16929219663143158,0.9451649188995361
1773049168882788000,10.3617880859375,10.201799392700195,-0.6622136831283569,1.7306089401245117
1773049168892765200,10.37176513671875,9.689735412597656,-0.37507495284080505,0.729810893535614
1773049168902742300,10.3817421875,9.306285858154297,-0.7004988193511963,1.2658032178878784
1773049168912719400,10.39171923828125,9.406784057617188,-0.15972091257572174,1.5242279767990112
1773049168922696400,10.401696533203125,10.546365737915039,-0.6574280261993408,1.8646070957183838
1773049168932673500,10.411673583984374,9.723235130310059,-1.0360921621322632,1.069591760635376
1773049168942650600,10.421650634765625,8.636295318603516,0.03170489892363548,-0.5778666734695435
1773049168952627700,10.431627685546875,10.929815292358398,-0.7579265832901001,1.6348960399627686
1773049168962604800,10.441604736328125,9.766305923461914,-0.5569294691085815,1.3902299404144287
1773049168972582000,10.451581787109374,8.157132148742676,-0.2793620526790619,-0.534795880317688
1773049168982559000,10.46155908203125,10.15872859954834,-0.7483552694320679,1.0839486122131348
1773049168992536000,10.4715361328125,10.915458679199219,0.01734796352684498,2.1469600200653076
1773049169002513200,10.48151318359375,10.192228317260742,-0.6478567123413086,0.25064817070961
1773049169012490200,10.491490234375,9.382855415344238,-0.2267199456691742,1.6683956384658813
1773049169022467300,10.50146728515625,9.82373332977295,-0.006580262444913387,0.763310432434082
1773049169032444400,10.5114443359375,10.517651557922363,-1.0121639966964722,2.0368902683258057
1773049169042421500,10.52142138671875,9.19143009185791,0.03170489892363548,0.9451649188995361
1773049169052398600,10.531398681640624,9.09093189239502,-0.4372883439064026,-0.9224331378936768
1773049169062375700,10.541375732421875,10.359725952148438,-0.6861419081687927,2.3048863410949707
1773049169072352800,10.551352783203125,9.33021354675293,-0.25064817070961,2.0895323753356934
1773049169082329900,10.561329833984376,9.143573760986328,-0.06400800496339798,-1.0133603811264038
1773049169092307000,10.571306884765624,10.264012336730957,-0.40378883481025696,1.5726827383041382
1773049169102284000,10.581283935546875,10.479366302490234,-0.48514479398727417,3.229114055633545
1773049169112261000,10.59126123046875,8.918647766113281,0.13220344483852386,0.3032902777194977
1773049169122238000,10.601238037109376,10.948958396911621,-0.4995017349720001,0.7106683254241943
1773049169132215000,10.611215087890624,10.254441261291504,-0.5952146053314209,2.3670997619628906
1773049169142153500,10.621153564453126,8.123632431030273,0.15134602785110474,0.4707878530025482
1773049169152126700,10.631126708984375,9.780662536621094,-0.7052844762802124,0.8781659007072449
1773049169162107600,10.641107666015625,9.334999084472656,-0.10229317098855972,0.5623133182525635
1773049169172081400,10.651081298828124,8.243273735046387,-0.39900317788124084,1.5002998113632202
1773049169182061800,10.661061767578126,9.80937671661377,-0.1788634955883026,1.8789639472961426
1773049169192036400,10.671036376953126,9.976874351501465,-0.35114672780036926,0.15972091257572174
1773049169202015700,10.681015625,9.737591743469238,-0.19322042167186737,2.0273189544677734
1773049169211990800,10.69099072265625,9.608379364013672,0.07477571070194244,1.8598214387893677
1773049169221970000,10.700969970703126,10.187442779541016,-0.8877372145652771,-0.6735795736312866
1773049169231945500,10.710945556640626,9.78544807434082,-0.7052844762802124,2.213959217071533
1773049169241963000,10.720962890625,9.708877563476562,0.26201409101486206,0.11665010452270508
1773049169251942700,10.730942626953125,10.589436531066895,-1.3758729696273804,0.576670229434967
1773049169261878300,10.740878173828126,9.401998519897461,0.06041877344250679,0.7250252366065979
1773049169271853600,10.750853515625,8.358129501342773,-0.3128615617752075,0.26979073882102966
1773049169281832400,10.76083251953125,11.207383155822754,-0.4707878530025482,2.1373889446258545
1773049169291808000,10.77080810546875,9.05264663696289,-0.08315058797597885,0.6628118753433228
1773049169301786600,10.78078662109375,9.996016502380371,-0.05922235921025276,0.5288137793540955
1773049169311762400,10.790762451171876,10.65224838256836,-0.4468596279621124,2.132603168487549
1773049169321663200,10.800663330078125,10.024730682373047,-0.882951557636261,0.6005984544754028
1773049169331631600,10.810631591796875,9.406784057617188,0.046061836183071136,-0.07477571070194244
1773049169341578500,10.82057861328125,10.939387321472168,-0.6287141442298889,1.490728497505188
1773049169351544600,10.830544677734375,10.029516220092773,-0.8303094506263733,0.7010970115661621
1773049169361532400,10.840532470703126,8.123632431030273,0.1178465187549591,0.39421752095222473
1773049169371500800,10.850500732421875,10.584650993347168,-0.5138586759567261,0.5431707501411438
1773049169381409000,10.860408935546875,10.187442779541016,-0.20757736265659332,2.2618155479431152
1773049169391371500,10.87037158203125,8.588438987731934,-0.15493527054786682,0.8733802437782288
1773049169401324300,10.88032421875,9.44028377532959,-0.11186445504426956,0.5383850932121277
1773049169411285800,10.89028564453125,10.939387321472168,-0.28893333673477173,1.9938194751739502
1773049169421239800,10.90023974609375,9.306285858154297,-0.6717849373817444,0.9690931439399719
1773049169431200300,10.9102001953125,9.301499366760254,-0.15972091257572174,0.01615155301988125
1773049169441155000,10.920155029296875,10.211370468139648,-0.6813562512397766,1.1078768968582153
1773049169451115000,10.930114990234374,9.976874351501465,-0.2027917206287384,1.2418749332427979
1773049169461031700,10.94003173828125,9.239286422729492,-0.3655036687850952,0.9547362327575684
1773049169470987300,10.9499873046875,9.55513858795166,-0.2267199456691742,0.29850462079048157
1773049169480947000,10.959947021484375,9.559925079345703,0.09391828626394272,2.5393829345703125
1773049169490903000,10.969903076171875,9.047860145568848,-0.2267199456691742,1.1461620330810547
1773049169500862000,10.979862060546875,9.239286422729492,-0.12143574655056,1.2370892763137817
1773049169510818600,10.989818603515625,10.05823040008545,-0.48035913705825806,1.3806586265563965
1773049169520777200,10.999777099609375,10.441082000732422,-0.5712863802909851,0.5958128571510315
1773049169530733800,11.00973388671875,9.162715911865234,0.10827522724866867,1.466800332069397
1773049169540654000,11.019654052734374,10.75274658203125,-0.7483552694320679,0.605384111404419
1773049169550606800,11.02960693359375,9.795019149780273,-0.1501496136188507,0.9882357716560364
1773049169560607700,11.039607666015625,8.765507698059082,-0.11186445504426956,1.3519448041915894
1773049169570565400,11.0495654296875,10.364511489868164,-0.1740778535604477,1.3567304611206055
1773049169580484400,11.059484375,9.583852767944336,-0.11186445504426956,1.0456634759902954
1773049169590438400,11.0694384765625,9.210572242736816,-0.13579268753528595,1.6923238039016724
1773049169600438000,11.07943798828125,9.492925643920898,0.251844584941864,0.5240281820297241
1773049169610396700,11.089396728515625,10.101301193237305,-0.973878800868988,1.9938194751739502
1773049169620576500,11.099576416015625,9.704092025756836,-0.09272187948226929,0.24107688665390015
1773049169630756600,11.109756591796875,9.502496719360352,-0.3846462368965149,-0.5682953596115112
1773049169640936700,11.119936767578125,11.892328262329102,-0.6047859191894531,1.9363917112350464
1773049169651043300,11.130043212890625,8.952147483825684,-0.24586252868175507,0.763310432434082
1773049169660999700,11.139999755859375,9.425926208496094,0.0029910283628851175,0.3655036687850952
1773049169670993400,11.149993408203125,10.110872268676758,-0.04007977992296219,1.7258232831954956
1773049169680953900,11.159953857421876,10.216156005859375,-0.4133601188659668,1.222732424736023
1773049169690944300,11.1699443359375,8.827720642089844,0.022133609279990196,1.423729419708252
1773049169700908000,11.179907958984375,9.421140670776367,0.10348957777023315,0.6819544434547424
1773049169710895900,11.189895751953125,10.637292861938477,-1.1365907192230225,0.8446664214134216
1773049169720862200,11.1998623046875,9.095717430114746,-0.13579268753528595,1.3519448041915894
1773049169730848000,11.209847900390624,9.948160171508789,-0.5186443328857422,0.16450655460357666
1773049169740816600,11.219816650390625,10.972886085510254,-0.2554338276386261,1.0839486122131348
1773049169750800400,11.22980029296875,9.263215065002441,-0.45643091201782227,1.3519448041915894
1773049169760770600,11.2397705078125,9.41635513305664,-0.23629122972488403,1.557727575302124
1773049169770753300,11.249753173828125,10.216156005859375,0.050847481936216354,0.5623133182525635
1773049169780724700,11.259724853515625,10.024730682373047,-0.6765705943107605,1.654038667678833
1773049169790706400,11.26970654296875,8.827720642089844,0.2470589429140091,1.7688941955566406
1773049169800679200,11.27967919921875,9.972088813781738,-0.9355936646461487,0.4660021960735321
1773049169810659600,11.28965966796875,11.030314445495605,-0.6957131624221802,0.3415754437446594
1773049169820633000,11.299633056640625,8.74636459350586,0.06999006122350693,1.6348960399627686
1773049169830613000,11.309613037109376,10.36929702758789,-0.4372883439064026,0.32721850275993347
1773049169840587300,11.319587158203126,10.676176071166992,-0.542572557926178,0.2602194547653198
1773049169850566700,11.329566650390625,9.680164337158203,-0.19800607860088348,1.9316060543060303
1773049169860580400,11.339580322265626,9.751948356628418,0.49651068449020386,1.4524433612823486
1773049169870563000,11.34956298828125,10.599007606506348,-0.6287141442298889,0.40378883481025696
1773049169880495600,11.35949560546875,9.382855415344238,-0.42293140292167664,1.80717933177948
1773049169890473500,11.369473388671874,8.736793518066406,0.2566302418708801,0.42293140292167664
1773049169900353300,11.379353271484375,10.04865837097168,-0.7004988193511963,1.2801600694656372
1773049169910214100,11.389214111328124,9.617950439453125,-0.3655036687850952,1.1461620330810547
1773049169920210000,11.3992099609375,8.047062873840332,-0.40378883481025696,-0.2183450609445572
1773049169930172000,11.409171875,10.64686393737793,-0.50907301902771,1.7688941955566406
1773049169940163800,11.419163818359374,10.61815071105957,-0.0687936544418335,1.9746768474578857
1773049169950129000,11.42912890625,9.464211463928223,-0.2315055876970291,0.1740778535604477
1773049169960117800,11.43911767578125,9.862018585205078,-0.1453639715909958,2.4771697521209717
1773049169970085400,11.44908544921875,8.770293235778809,-0.2793620526790619,1.093519926071167
1773049169980072000,11.459072021484374,9.325428009033203,0.06041877344250679,1.0217353105545044
1773049169990041300,11.469041259765625,9.531210899353027,-0.666999340057373,0.8542376756668091
1773049170000025900,11.47902587890625,8.62193775177002,-0.5521438121795654,0.37028929591178894
1773049170009996800,11.488996826171874,9.617950439453125,-0.34636107087135315,0.9403793215751648
1773049170019980000,11.49897998046875,9.847661972045898,-0.0975075215101242,1.222732424736023
1773049170029952300,11.5089521484375,9.795019149780273,-0.006580262444913387,-0.16091732680797577
1773049170039934200,11.518934326171875,9.69930648803711,-0.6957131624221802,2.1708884239196777
1773049170049907200,11.5289072265625,9.689735412597656,0.04127619042992592,1.5822539329528809
1773049170059888000,11.53888818359375,9.938589096069336,-0.0975075215101242,0.2793620526790619
1773049170069862100,11.548862060546876,10.24487018585205,-0.07357929646968842,2.0656042098999023
1773049170079842300,11.55884228515625,8.85643482208252,-0.6095715761184692,1.1988041400909424
1773049170089816800,11.56881689453125,9.210572242736816,-0.6813562512397766,-0.5826523303985596
1773049170099796500,11.57879638671875,9.694520950317383,-0.48514479398727417,1.3854442834854126
1773049170109771500,11.588771484375,9.914660453796387,-0.3080759048461914,1.007378339767456
1773049170119750400,11.59875048828125,9.881160736083984,-0.7244270443916321,0.7680960893630981
1773049170129726000,11.608725830078125,9.244071960449219,-0.11665010452270508,-0.0364905446767807
1773049170139704600,11.61870458984375,9.780662536621094,-0.14057832956314087,2.616551637649536
1773049170149680400,11.628680419921874,10.522438049316406,0.11306086927652359,0.13100704550743103
1773049170159658800,11.63865869140625,9.588638305664062,-0.9116654396057129,0.50907301902771
1773049170169634800,11.648634765625,9.41635513305664,0.1178465187549591,1.2705888748168945
1773049170179613000,11.658613037109374,9.957731246948242,-0.5665007829666138,0.9068797826766968
1773049170189589000,11.668589111328124,10.771889686584473,-0.3080759048461914,-0.4289134442806244
1773049170199567000,11.678567138671875,9.464211463928223,-0.9978070259094238,1.1413763761520386
1773049170209543400,11.68854345703125,9.521639823913574,0.06999006122350693,-0.36670008301734924
1773049170219521000,11.69852099609375,9.704092025756836,-0.7052844762802124,1.7306089401245117
1773049170229497600,11.70849755859375,11.030314445495605,-0.19322042167186737,0.576670229434967
1773049170239475200,11.71847509765625,7.802994728088379,0.2667997181415558,0.049651071429252625
1773049170249451800,11.72845166015625,12.150753021240234,-0.6717849373817444,2.290529489517212
1773049170259429400,11.738429443359376,8.343772888183594,-0.4085744619369507,1.1365907192230225
1773049170269406000,11.748406005859374,9.095717430114746,0.5108676552772522,-0.6975077986717224
1773049170279383600,11.758383544921875,10.005587577819824,-0.6095715761184692,1.1653046607971191
1773049170289360400,11.7683603515625,10.608579635620117,-0.7387840151786804,1.6301103830337524
1773049170299337700,11.778337646484376,7.6498541831970215,-0.03529413416981697,-0.8937192559242249
1773049170309314600,11.788314453125,10.905887603759766,-0.14057832956314087,0.8015955686569214
1773049170319291600,11.798291748046875,10.709675788879395,-0.849452018737793,3.363112211227417
1773049170329268500,11.8082685546875,6.883552551269531,0.3002992272377014,0.020937198773026466
1773049170339245800,11.818245849609376,9.862018585205078,0.1178465187549591,0.16450655460357666
1773049170349222700,11.82822265625,11.609376907348633,-0.7435696125030518,3.2865419387817383
1773049170359200000,11.838199951171875,8.880363464355469,0.28115665912628174,0.9212366938591003
1773049170369176800,11.8481767578125,9.157930374145508,-0.5617151260375977,-1.085145115852356
1773049170379154200,11.858154296875,10.61815071105957,-1.0217353105545044,1.428515076637268
1773049170389131000,11.868131103515625,8.92821979522705,-0.049651071429252625,1.7928223609924316
1773049170399108400,11.8781083984375,9.732806205749512,-0.12622138857841492,0.006580262444913387
1773049170409085200,11.888085205078125,10.714461326599121,-0.7872386574745178,0.7154539823532104
1773049170419062300,11.898062255859376,8.660223007202148,-0.03529413416981697,2.4532413482666016
1773049170429039400,11.908039306640624,9.478569030761719,0.15134602785110474,0.973878800868988
1773049170439016400,11.918016357421875,10.848459243774414,-0.32721850275993347,0.638883650302887
1773049170448993500,11.92799365234375,8.70807933807373,-0.2554338276386261,1.7641085386276245
1773049170458970600,11.937970703125,9.421140670776367,-0.7483552694320679,0.8781659007072449
1773049170468947700,11.94794775390625,9.905089378356934,-0.3320041298866272,0.605384111404419
1773049170478924800,11.9579248046875,9.881160736083984,0.2667997181415558,1.1078768968582153
1773049170488901600,11.967901611328125,11.039885520935059,-1.6390835046768188,-0.19920247793197632
1773049170498878700,11.977878662109376,8.070990562438965,0.13220344483852386,0.4995017349720001
1773049170508855800,11.987855712890624,10.17308521270752,0.1657029688358307,3.5066816806793213
1773049170518833000,11.9978330078125,11.618948936462402,-0.0975075215101242,0.10229317098855972
1773049170538787000,12.017787109375,10.637292861938477,-0.389431893825531,1.984248161315918
1773049170548764000,12.027763916015624,9.478569030761719,0.4582255482673645,0.8685946464538574
1773049170558741200,12.0377412109375,10.905887603759766,-1.1413763761520386,0.5575276613235474
1773049170568718000,12.047718017578125,8.74636459350586,-0.6382854580879211,0.7728816866874695
1773049170578695400,12.0576953125,8.976076126098633,0.5300102233886719,0.10229317098855972
1773049170588672300,12.06767236328125,11.47537899017334,-0.6143572330474854,1.563111424446106
1773049170598649300,12.0776494140625,8.889934539794922,-0.45164528489112854,1.7784653902053833
1773049170608626400,12.08762646484375,7.261618614196777,0.36729827523231506,-0.5635097622871399
1773049170618603500,12.097603515625,11.595020294189453,-0.01615155301988125,2.0656042098999023
1773049170628580600,12.10758056640625,11.149955749511719,-0.8015955686569214,2.616551637649536
1773049170638557700,12.1175576171875,8.319844245910645,0.022133609279990196,-0.8171489238739014
1773049170648534800,12.12753466796875,9.172286987304688,-0.16929219663143158,-0.2997010350227356
1773049170658512000,12.137511962890626,11.686545372009277,-1.1222338676452637,3.2721848487854004
1773049170668488700,12.14748876953125,8.23848819732666,-0.22193430364131927,-0.18005990982055664
1773049170678465800,12.1574658203125,8.37727165222168,0.11306086927652359,-0.36191442608833313
1773049170688443000,12.16744287109375,11.83011531829834,-0.28893333673477173,1.835893154144287
1773049170698420000,12.177419921875,9.258428573608398,-0.973878800868988,2.400599241256714
1773049170708397000,12.18739697265625,7.975277900695801,0.4007977843284607,0.07836493849754333
1773049170718277000,12.197277099609375,10.522438049316406,-0.20757736265659332,-0.33798620104789734
1773049170728138200,12.20713818359375,12.375679016113281,-0.6382854580879211,2.347957134246826
1773049170738328000,12.217328125,8.042277336120605,-0.4325026869773865,1.1126625537872314
1773049170748309200,12.227309326171875,9.68494987487793,-0.13100704550743103,-0.7166503667831421
1773049170758282200,12.2372822265625,11.417951583862305,-1.1174482107162476,0.9547362327575684
1773049170768262700,12.2472626953125,9.7998046875,-0.5186443328857422,1.3567304611206055
1773049170778236400,12.257236328125,9.06700325012207,0.625723123550415,0.4372883439064026
1773049170788216000,12.267216064453125,10.992029190063477,-0.4325026869773865,1.2323036193847656
1773049170798190300,12.2771904296875,9.000003814697266,-0.45643091201782227,1.2562319040298462
1773049170808169700,12.287169677734376,7.970492362976074,0.24227328598499298,1.2083754539489746
1773049170818144500,12.29714453125,10.36929702758789,-0.21236300468444824,1.0887342691421509
1773049170828123400,12.307123291015625,11.298310279846191,-0.5665007829666138,0.31764721870422363
1773049170838098700,12.3170986328125,9.167501449584961,-0.15493527054786682,0.5383850932121277
1773049170848077000,12.3270771484375,9.287142753601074,-0.4085744619369507,1.2610175609588623
1773049170857898000,12.33689794921875,11.240882873535156,-1.1270195245742798,2.18045973777771
1773049170867860700,12.34686083984375,8.569295883178711,-0.01136590726673603,-0.7357929348945618
1773049170878006800,12.3570068359375,8.559126853942871,0.7166503667831421,1.6157535314559937
1773049170887988000,12.366988037109374,12.366106986999512,-0.48035913705825806,4.17726993560791
1773049170897961000,12.3769609375,5.422734260559082,-0.10229317098855972,-0.6113662123680115
1773049170907941400,12.38694140625,9.54078197479248,0.6400800347328186,0.08315058797597885
1773049170917915100,12.3969150390625,12.543176651000977,-0.26979073882102966,1.1748759746551514
1773049170927894800,12.406894775390626,7.798209190368652,-1.5625132322311401,2.2857437133789062
1773049170937869000,12.416869140625,8.59322452545166,-0.01136590726673603,-0.06041877344250679
1773049170947848400,12.426848388671875,10.733604431152344,0.3577269911766052,-0.44327038526535034
1773049170957823200,12.4368232421875,12.035898208618164,-1.1988041400909424,0.7393822073936462
1773049170967802000,12.446802001953126,7.376473903656006,0.2955136001110077,1.1653046607971191
1773049170977777400,12.45677734375,10.498509407043457,-0.10229317098855972,0.8015955686569214
1773049170987755800,12.466755859375,11.489736557006836,-0.049651071429252625,2.1134605407714844
1773049170997731600,12.476731689453125,7.779066562652588,-0.25064817070961,1.179661512374878
1773049171007709700,12.486709716796875,8.583653450012207,-0.24586252868175507,-0.5874379873275757
1773049171017685800,12.496685791015626,9.82373332977295,-0.6047859191894531,0.638883650302887
1773049171027663600,12.50666357421875,10.431509971618652,-0.355932354927063,0.5910272002220154
1773049171037639700,12.5166396484375,10.287940979003906,-0.3032902777194977,1.5774682760238647
1773049171047617500,12.526617431640625,10.005587577819824,-0.18364913761615753,0.19800607860088348
1773049171057593900,12.53659375,11.178668975830078,-0.48035913705825806,0.9690931439399719
1773049171067571500,12.546571533203124,9.804591178894043,-0.1501496136188507,2.92283296585083
1773049171077548000,12.556548095703125,9.92423152923584,0.2231307178735733,0.14057832956314087
1773049171087525600,12.566525634765625,8.741579055786133,-0.6622136831283569,-0.6209374666213989
1773049171097502200,12.576502197265626,8.631509780883789,0.022133609279990196,3.5928232669830322
1773049171107479600,12.5864794921875,8.47298526763916,-0.26979073882102966,-0.41934216022491455
1773049171117456100,12.5964560546875,9.54078197479248,-0.7339983582496643,0.04007977992296219
1773049171127433500,12.60643359375,8.612366676330566,0.09870393574237823,0.6580262184143066
1773049171137410300,12.616410400390626,10.622936248779297,-0.5330012440681458,0.8350951075553894
1773049171147387600,12.6263876953125,10.072587013244629,0.1657029688358307,1.7497515678405762
1773049171157364500,12.636364501953125,9.248857498168945,-0.20757736265659332,1.275374412536621
1773049171167341600,12.646341552734375,11.044671058654785,-0.26500511169433594,0.29850462079048157
1773049171177318700,12.656318603515626,9.071788787841797,-0.10707881301641464,1.6636099815368652
1773049171187295700,12.666295654296874,10.316655158996582,-0.25064817070961,0.1740778535604477
1773049171197272600,12.6762724609375,8.880363464355469,-0.7148557901382446,0.47557350993156433
1773049171207249700,12.686249755859375,7.970492362976074,-0.15493527054786682,0.2027917206287384
1773049171217226800,12.696226806640626,9.287142753601074,-0.04486542567610741,1.332802176475525
1773049171227203800,12.706203857421874,10.38365364074707,-0.4660021960735321,0.2267199456691742
1773049171237181000,12.716180908203125,9.876375198364258,-0.049651071429252625,1.1126625537872314
1773049171247158000,12.726157958984375,9.766305923461914,0.39122650027275085,2.0273189544677734
1773049171257135000,12.736135009765626,11.22652530670166,-0.19322042167186737,0.9068797826766968
1773049171267112200,12.7461123046875,10.168299674987793,-0.8063812255859375,-0.2470589429140091
1773049171277089000,12.756089111328125,8.353343963623047,-0.5330012440681458,2.4915266036987305
1773049171287066000,12.766066162109375,10.65224838256836,0.0891326442360878,0.3607180118560791
1773049171297043200,12.776043212890626,9.847661972045898,-0.8063812255859375,-1.1186445951461792
1773049171307020300,12.786020263671874,9.363713264465332,-0.5952146053314209,1.8837496042251587
1773049171316997400,12.795997314453125,7.755138397216797,0.0364905446767807,0.26500511169433594
1773049171326974500,12.805974365234375,10.901102066040039,-0.24107688665390015,1.5481562614440918
1773049171336951300,12.815951416015626,9.54078197479248,-0.37507495284080505,1.811964988708496
1773049171346928400,12.825928466796874,9.521639823913574,-0.11665010452270508,0.39421752095222473
1773049171356905500,12.835905517578125,10.560722351074219,0.05563312768936157,1.3280165195465088
1773049171366882600,12.845882568359375,11.135598182678223,-0.8111668825149536,1.25144624710083
1773049171376859600,12.855859619140626,10.14437198638916,-0.6095715761184692,0.2315055876970291
1773049171386836700,12.865836669921874,8.037490844726562,-0.1740778535604477,0.5718846321105957
1773049171396813800,12.875813720703125,11.384451866149902,-0.2745763957500458,1.721037745475769
1773049171406790700,12.885790771484375,9.1052885055542,-0.5617151260375977,0.4612165689468384
1773049171416767700,12.895767822265626,8.200202941894531,-0.1740778535604477,0.973878800868988
1773049171426744800,12.905744873046874,10.096514701843262,0.04127619042992592,2.252244234085083
1773049171436722000,12.915721923828125,10.622936248779297,0.4295116662979126,0.8685946464538574
1773049171446699000,12.925698974609375,10.63250732421875,-0.6574280261993408,0.50907301902771
1773049171456676000,12.935676025390626,9.095717430114746,-0.39421752095222473,0.6580262184143066
1773049171466653000,12.94565283203125,9.459425926208496,-0.14057832956314087,1.0265209674835205
1773049171476630000,12.955630126953125,12.064611434936523,-0.7483552694320679,0.8685946464538574
1773049171486607000,12.965607177734375,9.268000602722168,-0.22193430364131927,0.34636107087135315
1773049171496584200,12.975584228515626,8.008777618408203,0.0364905446767807,0.07836493849754333
