time,seconds_elapsed,z,y,x
1771682506706246000,0.151245849609375,10.12881851196289,0.33499518036842346,0.2967100143432617
1771682506716604200,0.161604248046875,9.66221809387207,0.6460621356964111,0.37088751792907715
1771682506726962400,0.17196240234375,9.626325607299805,0.4737788736820221,0.24885354936122894
1771682506737320700,0.18232080078125,10.202995300292969,0.4953143000602722,0.02871387079358101
1771682506758037500,0.20303759765625,9.142974853515625,0.33499518036842346,-0.22492532432079315
1771682506768395800,0.213395751953125,10.365707397460938,0.31345975399017334,0.10289137065410614
1771682506789112300,0.2341123046875,9.927821159362793,0.48574298620224,0.14117653667926788
1771682506799470600,0.244470703125,9.889535903930664,0.30149564146995544,0.4163511395454407
1771682506809828900,0.254828857421875,9.920642852783203,0.672383189201355,-0.02153540402650833
1771682506820187100,0.265187255859375,9.822537422180176,0.6699903607368469,-0.1579262912273407
1771682506830545400,0.27554541015625,9.578469276428223,0.19381862878799438,-0.31824541091918945
1771682506840903700,0.285903564453125,10.475777626037598,0.7848458290100098,-0.15314064919948578
1771682506851262000,0.296261962890625,8.535198211669922,0.24646073579788208,0.22013968229293823
1771682506861620200,0.3066201171875,11.648261070251465,0.3397808074951172,0.4953143000602722
1771682506871978500,0.316978515625,8.614161491394043,0.6293123364448547,0.5144568681716919
1771682506882336800,0.327336669921875,11.164910316467285,0.7824530005455017,-0.6173482537269592
1771682506892695000,0.337695068359375,8.207381248474121,0.19381862878799438,-0.15314064919948578
1771682506903053300,0.34805322265625,11.545369148254395,0.6149554252624512,-0.32303106784820557
1771682506913411600,0.35841162109375,8.243273735046387,0.5048855543136597,0.2273181527853012
1771682506923769900,0.368769775390625,11.172088623046875,0.37806597352027893,0.2679961323738098
1771682506934128000,0.379128173828125,9.030512809753418,0.5431707501411438,0.3038884699344635
1771682506944486400,0.389486328125,10.401599884033203,0.641276478767395,0.038285162299871445
1771682506954844700,0.3998447265625,9.126225471496582,0.21296121180057526,0.062213387340307236
1771682506965203000,0.410202880859375,11.093125343322754,0.6867401003837585,-0.275174617767334
1771682506975561200,0.420561279296875,8.537590980529785,0.6460621356964111,-0.3086741268634796
1771682506985919500,0.43091943359375,10.40638542175293,0.1746760457754135,-0.19381862878799438
1771682506996277800,0.44127783203125,9.396614074707031,0.4737788736820221,0.638883650302887
1771682507006636000,0.451635986328125,10.52363395690918,0.6245267391204834,0.18424734473228455
1771682507016994300,0.461994384765625,9.41336441040039,0.3684946894645691,0.36610186100006104
1771682507027352600,0.4723525390625,10.348958015441895,0.6149554252624512,-0.4307080805301666
1771682507037711000,0.482711181640625,9.229117393493652,0.7034898400306702,-0.3086741268634796
1771682507048069400,0.4930693359375,10.030712127685547,0.11964113265275955,-0.14835500717163086
1771682507058427600,0.503427734375,10.097711563110352,0.5718846321105957,0.34217363595962524
1771682507068786000,0.513785888671875,9.712467193603516,0.729810893535614,0.11006984114646912
1771682507079144200,0.524144287109375,9.702896118164062,0.32542386651039124,0.22013968229293823
1771682507089502500,0.53450244140625,9.994820594787598,0.4833501875400543,0.25363919138908386
1771682507099860700,0.54486083984375,9.851250648498535,0.672383189201355,-0.13639089465141296
1771682507110219000,0.555218994140625,9.729216575622559,0.4378865361213684,-0.32542386651039124
1771682507120577300,0.565577392578125,9.7938232421875,0.44027936458587646,-0.20578274130821228
1771682507130935600,0.575935546875,9.789037704467773,0.605384111404419,-0.02871387079358101
1771682507141293800,0.5862939453125,9.69093132019043,0.20099709928035736,0.4331009089946747
1771682507151652000,0.596652099609375,10.403992652893066,0.4833501875400543,0.46420758962631226
1771682507162010400,0.60701025390625,9.726823806762695,0.7465606927871704,0.06699903309345245
1771682507172368600,0.61736865234375,9.67657470703125,0.4713860750198364,-0.4570291340351105
1771682507182727000,0.627726806640625,9.868000984191895,0.32542386651039124,-0.1579262912273407
1771682507193085200,0.638085205078125,10.066604614257812,0.5790630578994751,-0.15074782073497772
1771682507203443500,0.648443359375,9.908679008483887,0.4426721930503845,0.19381862878799438
1771682507213801700,0.6588017578125,10.131211280822754,0.3086741268634796,0.4378865361213684
1771682507224160000,0.669159912109375,9.724431037902832,0.6269195079803467,0.014356935396790504
1771682507234518300,0.679518310546875,9.702896118164062,0.35413774847984314,0.01196411345154047
1771682507244876500,0.68987646484375,10.222138404846191,0.2560320198535919,0.059820566326379776
1771682507255234800,0.70023486328125,9.944570541381836,0.8470591902732849,-0.20338992774486542
1771682507265593000,0.710593017578125,9.798608779907227,0.3684946894645691,-0.4498506486415863
1771682507275951400,0.720951416015625,9.547362327575684,0.2273181527853012,0.18903298676013947
1771682507286309600,0.7313095703125,10.736595153808594,0.672383189201355,0.4139583110809326
1771682507296668000,0.74166796875,9.128618240356445,0.4163511395454407,0.22013968229293823
1771682507307026200,0.752026123046875,10.784451484680176,0.49292147159576416,0.23688943684101105
1771682507317384400,0.762384521484375,8.944371223449707,0.5790630578994751,-0.397208571434021
1771682507327742700,0.77274267578125,10.700702667236328,0.5886343717575073,-0.5168496966362
1771682507338101000,0.78310107421875,8.398807525634766,0.20338992774486542,0.25363919138908386
1771682507348459300,0.793459228515625,11.657832145690918,0.7561319470405579,0.10767702013254166
1771682507358817500,0.803817626953125,8.420342445373535,0.46899324655532837,0.3756731450557709
1771682507369175800,0.81417578125,10.77248764038086,0.3158525824546814,0.1579262912273407
1771682507379534000,0.8245341796875,9.238688468933105,0.5718846321105957,0.24646073579788208
1771682507389892600,0.834892578125,10.26042366027832,0.7154539823532104,-0.4091726839542389
1771682507400250600,0.845250732421875,9.324830055236816,0.3445664644241333,-0.11485548317432404
1771682507410609000,0.85560888671875,10.305887222290039,0.4331009089946747,-0.17228323221206665
1771682507420967200,0.86596728515625,9.504291534423828,0.6364908218383789,0.20817556977272034
1771682507431325400,0.876325439453125,9.89432144165039,0.15553347766399384,0.42352959513664246
1771682507441684000,0.88668408203125,10.246066093444824,0.8111668825149536,0.44745782017707825
1771682507452042200,0.897042236328125,9.638289451599121,0.5479564070701599,-0.3565305769443512
1771682507462400500,0.907400390625,9.753145217895508,0.5048855543136597,-0.1339980661869049
1771682507472758800,0.9177587890625,9.81535816192627,0.2632105052471161,-0.1746760457754135
1771682507483117000,0.928116943359375,9.872786521911621,0.8590233325958252,0.08374879509210587
1771682507493475300,0.938475341796875,9.308079719543457,0.14835500717163086,0.32542386651039124
1771682507503833600,0.94883349609375,10.808380126953125,0.5431707501411438,0.31106695532798767
1771682507514192000,0.95919189453125,9.123832702636719,0.6149554252624512,0.0023928226437419653
1771682507524550100,0.969550048828125,10.262816429138184,0.39960137009620667,0.038285162299871445
1771682507534908400,0.979908447265625,9.698110580444336,0.5407779216766357,-0.11485548317432404
1771682507545266700,0.9902666015625,10.133604049682617,0.672383189201355,-0.3326023519039154
1771682507555625000,1.000625,9.233902931213379,0.20578274130821228,0.014356935396790504
1771682507565983200,1.010983154296875,10.212567329406738,0.33499518036842346,0.4331009089946747
1771682507576341500,1.021341552734375,10.013962745666504,0.6675975322723389,0.27756741642951965
1771682507586699800,1.03169970703125,9.710074424743652,0.380458801984787,0.12681959569454193
1771682507597058000,1.04205810546875,10.236495018005371,0.43549370765686035,-0.349352091550827
1771682507607416300,1.052416259765625,9.489934921264648,0.7968099117279053,-0.44027936458587646
1771682507617774600,1.062774658203125,9.707681655883789,0.26560330390930176,-0.15074782073497772
1771682507628132900,1.0731328125,10.12881851196289,0.4043870270252228,0.38763725757598877
1771682507638491100,1.0834912109375,9.805787086486816,0.6795616149902344,0.19381862878799438
1771682507648849400,1.093849365234375,9.810572624206543,0.4259224236011505,0.0526420995593071
1771682507659207700,1.104207763671875,9.798608779907227,0.3278166949748993,0.16510476171970367
1771682507669566000,1.11456591796875,10.04985523223877,0.7561319470405579,-0.20338992774486542
1771682507679924200,1.12492431640625,9.482755661010742,0.48574298620224,-0.27756741642951965
1771682507690282500,1.135282470703125,10.351350784301758,0.29431718587875366,-0.13878370821475983
1771682507700640800,1.145640869140625,9.942177772521973,0.5718846321105957,0.20817556977272034
1771682507710999000,1.1559990234375,9.614361763000488,0.36610186100006104,0.34217363595962524
1771682507721357300,1.166357421875,10.030712127685547,0.4331009089946747,0.30149564146995544
1771682507731715600,1.176715576171875,10.229316711425781,0.7728816866874695,-0.04546362906694412
1771682507742073900,1.187073974609375,8.944371223449707,0.5670989751815796,-0.4713860750198364
1771682507752432000,1.19743212890625,10.41356372833252,0.2632105052471161,-0.05024927482008934
1771682507762790400,1.207790283203125,9.387042999267578,0.4977070987224579,0.11964113265275955
1771682507773148700,1.218148681640625,10.39202880859375,0.6747759580612183,0.20817556977272034
1771682507783507000,1.2285068359375,9.200403213500977,0.12203395366668701,0.33499518036842346
1771682507793865200,1.238865234375,10.784451484680176,0.7058826684951782,0.06939185410737991
1771682507804223500,1.249223388671875,8.61176872253418,0.5120640397071838,0.20338992774486542
1771682507814581800,1.259581787109375,10.961520195007324,0.3326023519039154,-0.275174617767334
1771682507824940000,1.26993994140625,9.365508079528809,0.7345965504646301,0.11006984114646912
1771682507835298300,1.28029833984375,9.69093132019043,0.44027936458587646,-0.4307080805301666
1771682507845656600,1.290656494140625,9.908679008483887,0.2512463629245758,0.47617170214653015
1771682507856014800,1.301014892578125,9.791430473327637,0.45942193269729614,0.5407779216766357
1771682507866373000,1.311373046875,10.344172477722168,0.8638089895248413,0.16271193325519562
1771682507876731400,1.3217314453125,8.889336585998535,0.1986042857170105,-0.035892341285943985
1771682507887089700,1.332089599609375,11.155339241027832,0.7848458290100098,-0.39481574296951294
1771682507897448000,1.342447998046875,8.396414756774902,0.397208571434021,-0.14117653667926788
1771682507907806200,1.35280615234375,11.062019348144531,0.3732803463935852,0.15553347766399384
1771682507918164500,1.36316455078125,9.028120040893555,0.31345975399017334,0.39481574296951294
1771682507928522800,1.373522705078125,10.930414199829102,0.8255237936973572,0.10289137065410614
1771682507938881000,1.383881103515625,8.449056625366211,0.08853443711996078,0.1339980661869049
1771682507949239300,1.3942392578125,11.490334510803223,0.641276478767395,0.01196411345154047
1771682507959597800,1.404597900390625,8.482556343078613,0.6340979933738708,-0.34695929288864136
1771682507969956000,1.4149560546875,10.832307815551758,0.3445664644241333,-0.27038896083831787
1771682507980314400,1.425314453125,8.877371788024902,0.31106695532798767,0.1052841991186142
1771682507990672400,1.43567236328125,11.054841041564941,0.6675975322723389,0.2273181527853012
1771682508001030700,1.44603076171875,8.74337387084961,0.24885354936122894,0.38285163044929504
1771682508011389000,1.456388916015625,11.25344467163086,0.6293123364448547,0.11006984114646912
1771682508021747500,1.46674755859375,8.848658561706543,0.6580262184143066,-0.380458801984787
1771682508032105700,1.477105712890625,10.258030891418457,0.42352959513664246,-0.4546363055706024
1771682508042464000,1.487464111328125,9.391828536987305,0.24406790733337402,0.15314064919948578
1771682508052822300,1.497822265625,10.463813781738281,0.8135597109794617,0.040677983313798904
1771682508063180500,1.5081806640625,9.068798065185547,0.3038884699344635,0.31106695532798767
1771682508073538800,1.518538818359375,10.325029373168945,0.4426721930503845,0.1579262912273407
1771682508083897000,1.52889697265625,9.688538551330566,0.6891329288482666,0.04546362906694412
1771682508094255400,1.53925537109375,9.745966911315918,0.3900300860404968,-0.22492532432079315
1771682508104613600,1.549613525390625,10.04985523223877,0.48095735907554626,-0.08135596662759781
1771682508114972000,1.559971923828125,9.76989459991455,0.5575276613235474,-0.28953152894973755
1771682508125330200,1.570330078125,9.571290969848633,0.3038884699344635,0.13160525262355804
1771682508135688400,1.5806884765625,10.195816993713379,0.2727817893028259,0.5647061467170715
1771682508146046700,1.591046630859375,10.028319358825684,0.8015955686569214,0.2871387302875519
1771682508156405000,1.601405029296875,9.717252731323242,0.4666004180908203,-0.17946170270442963
1771682508166763300,1.61176318359375,9.671789169311523,0.4546363055706024,-0.23210379481315613
1771682508177121500,1.62212158203125,9.714859962463379,0.5982056856155396,-0.30628129839897156
1771682508187479800,1.632479736328125,9.592825889587402,0.42831525206565857,0.019142581149935722
1771682508197838000,1.642838134765625,10.3681001663208,0.380458801984787,0.605384111404419
1771682508208196400,1.6531962890625,9.868000984191895,0.6125625967979431,0.21296121180057526
1771682508218554600,1.6635546875,9.760323524475098,0.5527420043945312,0.059820566326379776
1771682508228913000,1.673912841796875,9.430113792419434,0.20099709928035736,0.11724831163883209
1771682508239271200,1.684271240234375,10.700702667236328,0.8015955686569214,-0.07657032459974289
1771682508249629400,1.69462939453125,8.992227554321289,0.45942193269729614,-0.28235307335853577
1771682508259987700,1.70498779296875,10.29870891571045,0.2632105052471161,-0.09810572862625122
1771682508270346000,1.715345947265625,9.66221809387207,0.5599204897880554,0.4666004180908203
1771682508280704300,1.725704345703125,9.915857315063477,0.46899324655532837,0.09092725813388824
1771682508291062500,1.7360625,10.100104331970215,0.4785645306110382,0.5168496966362
1771682508301420800,1.7464208984375,9.547362327575684,0.5168496966362,-0.22492532432079315
1771682508311779000,1.756779052734375,10.743773460388184,0.8350951075553894,-0.4331009089946747
1771682508322137300,1.767137451171875,8.286344528198242,0,-0.01196411345154047
1771682508332495600,1.77749560546875,11.648261070251465,0.7202396392822266,0.04307080805301666
1771682508342854000,1.78785400390625,8.23130989074707,0.4905286431312561,0.33499518036842346
1771682508353212200,1.798212158203125,11.609975814819336,0.4426721930503845,0.04307080805301666
1771682508363570400,1.8085703125,8.248059272766113,0.3924229145050049,0.3756731450557709
1771682508373928700,1.8189287109375,11.203195571899414,0.7489534616470337,-0.2799602448940277
1771682508384287000,1.829286865234375,8.657232284545898,0.2679961323738098,-0.11006984114646912
1771682508394645200,1.839645263671875,11.023734092712402,0.6125625967979431,-0.21774685382843018
1771682508405003500,1.85000341796875,8.516056060791016,0.5000999569892883,-0.16510476171970367
1771682508415361800,1.86036181640625,11.045269012451172,0.22013968229293823,0.3038884699344635
1771682508425720000,1.870719970703125,8.93240737915039,0.4905286431312561,0.6269195079803467
1771682508436078300,1.881078369140625,10.791629791259766,0.7489534616470337,-0.05024927482008934
1771682508446436600,1.8914365234375,8.949156761169434,0.42831525206565857,-0.23449662327766418
1771682508456795000,1.901794921875,10.801201820373535,0.37088751792907715,-0.3038884699344635
1771682508467153200,1.912153076171875,8.906085968017578,0.5742774605751038,-0.064606212079525
1771682508477511400,1.922511474609375,10.265209197998047,0.40677985548973083,-0.007178467698395252
1771682508487869700,1.93286962890625,9.571290969848633,0.380458801984787,0.576670229434967
1771682508498228000,1.94322802734375,10.490134239196777,0.7154539823532104,-0.004785645287483931
1771682508508586200,1.953586181640625,8.810373306274414,0.33020952343940735,0.13639089465141296
1771682508518944500,1.963944580078125,10.729416847229004,0.4019941985607147,-0.04785645380616188
1771682508529302800,1.974302734375,9.712467193603516,0.794417142868042,-0.16510476171970367
1771682508539661000,1.9846611328125,9.616754531860352,0.3445664644241333,-0.41156548261642456
1771682508550019300,1.995019287109375,9.738788604736328,0.29431718587875366,0.1698904037475586
1771682508560377600,2.005377685546875,10.246066093444824,0.5742774605751038,0.3206382393836975
1771682508570735900,2.01573583984375,9.678967475891113,0.45942193269729614,0.4498506486415863
1771682508581094100,2.02609423828125,10.052248001098633,0.3756731450557709,0.1339980661869049
1771682508591452400,2.036452392578125,9.523433685302734,0.8374879360198975,-0.37806597352027893
1771682508601810700,2.046810791015625,9.877572059631348,0.38285163044929504,-0.363709032535553
1771682508612169000,2.0571689453125,9.827322959899902,0.1986042857170105,0.11485548317432404
1771682508622527200,2.06752734375,9.963713645935059,0.7872386574745178,0.21774685382843018
1771682508632885500,2.077885498046875,9.611968994140625,0.45942193269729614,0.23688943684101105
1771682508643243800,2.088243896484375,10.334601402282715,0.31824541091918945,0.3158525824546814
1771682508653602000,2.09860205078125,9.729216575622559,0.5575276613235474,0.1339980661869049
1771682508663960300,2.108960205078125,9.609575271606445,0.6197410821914673,-0.33499518036842346
1771682508674318600,2.119318603515625,9.91107177734375,0.4331009089946747,-0.13639089465141296
1771682508684676900,2.1296767578125,9.942177772521973,0.5814558863639832,-0.2632105052471161
1771682508695035100,2.14003515625,9.437292098999023,0.42352959513664246,0.16271193325519562
1771682508705393400,2.150393310546875,10.332208633422852,0.2105683982372284,0.5216353535652161
1771682508715751700,2.160751708984375,10.286744117736816,0.727418065071106,0.2799602448940277
1771682508726110000,2.17110986328125,9.42054271697998,0.7130611538887024,-0.13878370821475983
1771682508736468200,2.18146826171875,10.15035343170166,0.4091726839542389,-0.3517449200153351
1771682508746826500,2.191826416015625,9.30329418182373,0.2991028428077698,-0.2799602448940277
1771682508757184800,2.202184814453125,10.365707397460938,0.885344386100769,0.07657032459974289
1771682508767543000,2.21254296875,8.937192916870117,0.07896314561367035,0.275174617767334
1771682508777901300,2.2229013671875,11.46401309967041,0.5575276613235474,0.15314064919948578
1771682508788259600,2.233259521484375,8.025527000427246,0.7130611538887024,0.2584248483181
1771682508798617900,2.243617919921875,11.25344467163086,0.17228323221206665,-0.20099709928035736
1771682508808976100,2.25397607421875,8.757730484008789,0.5024927258491516,0.07417750358581543
1771682508819334400,2.26433447265625,11.155339241027832,1.00259268283844,-0.5862415432929993
1771682508829693000,2.27469287109375,8.018348693847656,0.12442677468061447,0.11246266216039658
1771682508840051200,2.28505126953125,11.880364418029785,0.2871387302875519,0.0526420995593071
1771682508850409500,2.295409423828125,8.094919204711914,0.8614161610603333,0.5120640397071838
1771682508860767700,2.305767822265625,11.265409469604492,0.32542386651039124,0.23449662327766418
1771682508871125800,2.316125732421875,9.128618240356445,0.4977070987224579,-0.0023928226437419653
1771682508881484000,2.326484130859375,10.231709480285645,0.8350951075553894,-0.6149554252624512
1771682508891842600,2.336842529296875,8.7505521774292,0.2679961323738098,-0.05024927482008934
1771682508902200800,2.347200927734375,11.002198219299316,0.22971096634864807,0.0526420995593071
1771682508912559000,2.35755908203125,9.221938133239746,0.9690931439399719,0.47617170214653015
1771682508922917400,2.36791748046875,10.15035343170166,0.17946170270442963,0.0933200865983963
1771682508933275600,2.378275634765625,9.812965393066406,0.46899324655532837,0.40677985548973083
1771682508943634000,2.388634033203125,9.757930755615234,0.5551348328590393,-0.20817556977272034
1771682508953992200,2.3989921875,9.851250648498535,0.5862415432929993,-0.06699903309345245
1771682508964350500,2.4093505859375,9.982855796813965,0.2679961323738098,-0.2632105052471161
1771682508974708700,2.419708740234375,9.757930755615234,0.7704889178276062,-0.10767702013254166
1771682508985067000,2.43006689453125,9.506684303283691,0.20099709928035736,0.1866401731967926
1771682508995425300,2.44042529296875,10.475777626037598,0.41874396800994873,0.607776939868927
1771682509005783600,2.450783447265625,9.729216575622559,0.7776673436164856,0.13878370821475983
1771682509016141800,2.461141845703125,9.767501831054688,0.49292147159576416,-0.31345975399017334
1771682509026500000,2.4715,9.913464546203613,0.3684946894645691,-0.30149564146995544
1771682509036858400,2.4818583984375,9.796216011047363,0.605384111404419,-0.1052841991186142
1771682509047216600,2.492216552734375,9.640682220458984,0.3732803463935852,0.019142581149935722
1771682509057575000,2.502574951171875,9.975677490234375,0.363709032535553,0.5407779216766357
1771682509067933200,2.51293310546875,10.207781791687012,0.6795616149902344,0.11246266216039658
1771682509078291500,2.52329150390625,9.516255378723145,0.39481574296951294,0.11724831163883209
1771682509088649700,2.533649658203125,9.839286804199219,0.3326023519039154,0.05742774158716202
1771682509099008000,2.544008056640625,10.023533821105957,0.7992027401924133,-0.25363919138908386
1771682509109366300,2.5543662109375,9.621540069580078,0.4570291340351105,-0.4378865361213684
1771682509119724500,2.564724609375,9.80100154876709,0.2727817893028259,0.13160525262355804
1771682509130082800,2.575082763671875,9.9469633102417,0.5120640397071838,0.31824541091918945
1771682509140441000,2.585441162109375,10.15035343170166,0.5455635786056519,0.2679961323738098
1771682509150799400,2.59579931640625,10.073782920837402,0.34217363595962524,0.40677985548973083
1771682509161157600,2.60615771484375,9.729216575622559,0.6460621356964111,-0.4139583110809326
1771682509171516000,2.616515869140625,9.616754531860352,0.5240281820297241,-0.6460621356964111
1771682509181874200,2.626874267578125,9.556933403015137,0.19142581522464752,0.01196411345154047
1771682509192232400,2.637232421875,10.408778190612793,0.6269195079803467,0.2560320198535919
1771682509202590700,2.6475908203125,9.836894035339355,0.5670989751815796,0.23688943684101105
1771682509212949000,2.657948974609375,9.549755096435547,0.2919243574142456,0.14356936514377594
1771682509223307300,2.668307373046875,10.456634521484375,0.6364908218383789,0.2225325107574463
1771682509233665500,2.67866552734375,9.142974853515625,0.5000999569892883,-0.32542386651039124
1771682509244023800,2.68902392578125,10.614561080932617,0.46899324655532837,-0.13639089465141296
1771682509254382000,2.699382080078125,8.930013656616211,0.44027936458587646,-0.08135596662759781
1771682509264740400,2.709740234375,10.875378608703613,0.5479564070701599,-0.1986042857170105
1771682509275098600,2.7200986328125,8.46341323852539,0.20099709928035736,0.7513462901115417
1771682509285457000,2.730456787109375,11.528619766235352,0.519242525100708,0.18903298676013947
1771682509295815200,2.740815185546875,9.097511291503906,0.7872386574745178,0.16031911969184875
1771682509306173400,2.75117333984375,9.899106979370117,0.31345975399017334,-0.47617170214653015
1771682509316531700,2.76153173828125,9.91825008392334,0.4953143000602722,-0.1579262912273407
1771682509326890000,2.771889892578125,9.501898765563965,0.4905286431312561,-0.064606212079525
1771682509337248300,2.782248291015625,10.418350219726562,0.42352959513664246,0.23449662327766418
1771682509347606500,2.7926064453125,9.384650230407715,0.3038884699344635,0.4498506486415863
1771682509357964800,2.80296484375,10.796415328979492,0.8303094506263733,0.016749758273363113
1771682509368323000,2.813322998046875,8.676374435424805,0.07417750358581543,0.08614161610603333
1771682509378681300,2.823681396484375,11.36351490020752,0.7322037220001221,-0.04546362906694412
1771682509389039600,2.83403955078125,8.535198211669922,0.5431707501411438,-0.3613162338733673
1771682509399398000,2.84439794921875,10.53081226348877,0.41156548261642456,-0.22971096634864807
1771682509409756200,2.854756103515625,9.243474006652832,0.08614161610603333,0.41156548261642456
1771682509420114400,2.865114501953125,10.581061363220215,0.8231309652328491,0.36610186100006104
1771682509430472700,2.87547265625,9.284152030944824,0.380458801984787,0.25363919138908386
1771682509440831000,2.8858310546875,10.2747802734375,0.49292147159576416,-0.009571290574967861
1771682509451189200,2.896189208984375,9.65503978729248,0.8279166221618652,-0.5814558863639832
1771682509461547500,2.906547607421875,9.324830055236816,0.2991028428077698,-0.16271193325519562
1771682509471905800,2.91690576171875,10.415956497192383,0.3613162338733673,0.1818545162677765
1771682509482264000,2.92726416015625,9.564111709594727,0.7106683254241943,0.28953152894973755
1771682509492622300,2.937622314453125,10.03310489654541,0.4331009089946747,0.1052841991186142
1771682509502980600,2.947980712890625,9.382257461547852,0.2991028428077698,0.28953152894973755
1771682509513339000,2.9583388671875,10.494919776916504,0.7322037220001221,-0.06939185410737991
1771682509523697200,2.968697265625,8.992227554321289,0.5575276613235474,-0.3086741268634796
1771682509534055400,2.979055419921875,10.423135757446289,0.35413774847984314,-0.14835500717163086
1771682509544413700,2.98941357421875,9.205188751220703,0.6364908218383789,-0.059820566326379776
1771682509554772000,2.99977197265625,10.229316711425781,0.41156548261642456,0.24167509377002716
1771682509565130200,3.010130126953125,9.4061861038208,0.3086741268634796,0.5694918036460876
1771682509575488500,3.020488525390625,10.863414764404297,0.8685946464538574,0.1459621787071228
1771682509585846800,3.0308466796875,8.863015174865723,0.5599204897880554,-0.3326023519039154
1771682509596205000,3.041205078125,10.451848983764648,0.363709032535553,-0.23449662327766418
1771682509606563300,3.051563232421875,9.322437286376953,0.5479564070701599,-0.02392822690308094
1771682509616921600,3.061921630859375,10.444670677185059,0.672383189201355,0.062213387340307236
1771682509627280000,3.07227978515625,9.121439933776855,0.17946170270442963,0.5790630578994751
1771682509637638100,3.08263818359375,10.801201820373535,0.7082754969596863,0.17946170270442963
1771682509647996700,3.09299658203125,9.020941734313965,0.5455635786056519,0.2560320198535919
1771682509658355000,3.10335498046875,10.171889305114746,0.30628129839897156,-0.062213387340307236
1771682509668713200,3.113713134765625,9.863214492797852,0.8350951075553894,-0.13160525262355804
1771682509679071500,3.124071533203125,8.994620323181152,0.4905286431312561,-0.4378865361213684
1771682509689429500,3.134429443359375,10.214960098266602,0.17946170270442963,0.27756741642951965
1771682509699788000,3.1447880859375,9.712467193603516,0.3732803463935852,0.5072783827781677
1771682509710146300,3.155146240234375,10.320243835449219,0.8135597109794617,0.3038884699344635
1771682509720504600,3.165504638671875,9.312865257263184,0.24406790733337402,0.12921242415905
1771682509730862800,3.17586279296875,10.715060234069824,0.6675975322723389,-0.4666004180908203
1771682509741221000,3.18622119140625,8.817551612854004,0.6269195079803467,-0.064606212079525
1771682509751579400,3.196579345703125,10.325029373168945,0.1052841991186142,-0.1459621787071228
1771682509761937700,3.206937744140625,10.195816993713379,0.6652047038078308,0.5479564070701599
1771682509772296000,3.2172958984375,9.174081802368164,0.4666004180908203,0.040677983313798904
1771682509782654200,3.227654296875,10.51645565032959,0.38763725757598877,0.11485548317432404
1771682509793012500,3.238012451171875,9.279366493225098,0.3756731450557709,0.2560320198535919
1771682509803370800,3.248370849609375,11.040483474731445,0.9547362327575684,-0.4905286431312561
1771682509813729000,3.25872900390625,8.240880966186523,0.19381862878799438,0.0526420995593071
1771682509824087300,3.26908740234375,11.542976379394531,0.47617170214653015,-0.2560320198535919
1771682509834445600,3.279445556640625,8.176275253295898,0.4618147611618042,0.34695929288864136
1771682509844803800,3.289803955078125,11.191231727600098,0.3565305769443512,0.23210379481315613
1771682509855162000,3.300162109375,8.958727836608887,0.4618147611618042,0.4307080805301666
1771682509865520400,3.310520263671875,10.980663299560547,0.8638089895248413,-0.42831525206565857
1771682509875878700,3.320878662109375,8.3629150390625,0.32542386651039124,-0.33020952343940735
1771682509886237000,3.33123681640625,10.849058151245117,0.34695929288864136,-0.04546362906694412
1771682509896595200,3.34159521484375,9.193224906921387,0.7369893789291382,0.16031911969184875
1771682509906953500,3.351953369140625,10.047462463378906,0.35892340540885925,0.21774685382843018
1771682509917311700,3.362311767578125,9.889535903930664,0.3397808074951172,0.20099709928035736
1771682509927670000,3.372669921875,9.753145217895508,0.8374879360198975,-0.007178467698395252
1771682509938028300,3.3830283203125,9.638289451599121,0.40677985548973083,-0.14117653667926788
1771682509948386600,3.393386474609375,10.068997383117676,0.4043870270252228,0.007178467698395252
1771682509958744800,3.403744873046875,9.973284721374512,0.6843472719192505,-0.18424734473228455
1771682509969103000,3.41410302734375,9.279366493225098,0.28235307335853577,0.05742774158716202
1771682509979461400,3.42446142578125,10.542776107788086,0.20338992774486542,0.4259224236011505
1771682509989819600,3.434819580078125,9.686145782470703,0.7992027401924133,0.2679961323738098
1771682510000178000,3.445177978515625,10.12881851196289,0.46899324655532837,-0.2991028428077698
1771682510010536200,3.4555361328125,9.614361763000488,0.4163511395454407,-0.2153540402650833
1771682510020894500,3.46589453125,10.279565811157227,0.7106683254241943,-0.1986042857170105
1771682510031252700,3.476252685546875,9.501898765563965,0.4019941985607147,0.035892341285943985
1771682510041611000,3.486611083984375,10.313065528869629,0.2512463629245758,0.4043870270252228
1771682510051969300,3.49696923828125,9.982855796813965,0.638883650302887,0.27038896083831787
1771682510062327600,3.50732763671875,9.454042434692383,0.3756731450557709,-0.05742774158716202
1771682510072685800,3.517685791015625,10.052248001098633,0.3517449200153351,-0.0023928226437419653
1771682510083044000,3.528044189453125,10.269994735717773,0.794417142868042,-0.3565305769443512
1771682510093402400,3.53840234375,9.425328254699707,0.5455635786056519,-0.19142581522464752
1771682510103760600,3.5487607421875,9.999606132507324,0.11485548317432404,0.02871387079358101
1771682510114119000,3.559118896484375,9.585647583007812,0.6532405614852905,0.39481574296951294
1771682510124477200,3.569477294921875,9.875179290771484,0.5240281820297241,0.13160525262355804
1771682510134835500,3.57983544921875,10.028319358825684,0.46899324655532837,0.2560320198535919
1771682510145193700,3.59019384765625,9.903892517089844,0.6364908218383789,-0.2799602448940277
1771682510155552000,3.600552001953125,9.812965393066406,0.576670229434967,-0.41156548261642456
1771682510165910300,3.61091015625,9.44447135925293,0.2727817893028259,0.035892341285943985
1771682510176268500,3.6212685546875,10.478170394897461,0.6197410821914673,0.3158525824546814
1771682510186626800,3.631626708984375,9.499505996704102,0.5048855543136597,0.22492532432079315
1771682510196985000,3.641985107421875,9.92542839050293,0.2991028428077698,0.17946170270442963
1771682510207343400,3.65234326171875,10.236495018005371,0.7010970115661621,0.20578274130821228
1771682510217701600,3.66270166015625,9.391828536987305,0.6891329288482666,-0.5000999569892883
1771682510228060000,3.673059814453125,10.219745635986328,0.48574298620224,-0.17228323221206665
1771682510238418200,3.683418212890625,9.020941734313965,0.19621145725250244,0.08374879509210587
1771682510248776400,3.6937763671875,11.12901782989502,0.6843472719192505,0.19621145725250244
1771682510259134700,3.704134765625,8.46580696105957,0.11246266216039658,0.5168496966362
1771682510269493000,3.714492919921875,11.641081809997559,0.763310432434082,-0.04785645380616188
1771682510279851500,3.7248515625,8.188239097595215,0.6795616149902344,-0.20099709928035736
1771682510290209500,3.73520947265625,11.196017265319824,0.5000999569892883,-0.45942193269729614
1771682510300567800,3.74556787109375,8.666803359985352,0.2967100143432617,0.30628129839897156
1771682510310926000,3.755926025390625,11.148160934448242,0.7800601720809937,-0.014356935396790504
1771682510321284400,3.766284423828125,8.312665939331055,0.14835500717163086,0.29431718587875366
1771682510331642600,3.776642578125,11.085947036743164,0.363709032535553,0.20099709928035736
1771682510342001200,3.787001220703125,8.949156761169434,0.7537391185760498,-0.04546362906694412
1771682510352359400,3.797359375,10.805987358093262,0.4905286431312561,-0.3445664644241333
1771682510362717700,3.8077177734375,8.903693199157715,0.4833501875400543,0.01196411345154047
1771682510373076000,3.818075927734375,10.571490287780762,0.5312066078186035,-0.2584248483181
1771682510383434000,3.82843408203125,8.788837432861328,0.30149564146995544,0.5216353535652161
1771682510393792500,3.83879248046875,11.093125343322754,0.2679961323738098,0.3086741268634796
1771682510404150800,3.84915087890625,9.21715259552002,0.8039883971214294,0.1866401731967926
1771682510414509000,3.859509033203125,9.791430473327637,0.4905286431312561,-0.6125625967979431
1771682510424867300,3.869867431640625,9.322437286376953,0.4043870270252228,-0.04307080805301666
1771682510435225600,3.8802255859375,10.559526443481445,0.5886343717575073,-0.1052841991186142
1771682510445584000,3.890583984375,9.346364974975586,0.41874396800994873,0.3086741268634796
1771682510455942100,3.900942138671875,10.001998901367188,0.2799602448940277,0.30628129839897156
1771682510466300400,3.911300537109375,9.836894035339355,0.6221339106559753,0.10767702013254166
1771682510476658700,3.92165869140625,9.784252166748047,0.5000999569892883,-0.12681959569454193
1771682510487017000,3.932016845703125,10.078569412231445,0.5144568681716919,-0.09092725813388824
1771682510497375200,3.942375244140625,9.846465110778809,0.7489534616470337,-0.28953152894973755
1771682510507733500,3.9527333984375,9.53061294555664,0.363709032535553,-0.05503492057323456
1771682510518091800,3.963091796875,10.068997383117676,0.19142581522464752,0.48095735907554626
1771682510528450000,3.973449951171875,9.994820594787598,0.5575276613235474,0.4378865361213684
1771682510538808300,3.983808349609375,9.729216575622559,0.5551348328590393,-0.038285162299871445
1771682510549166600,3.99416650390625,9.78664493560791,0.4833501875400543,-0.19381862878799438
1771682510559524900,4.00452490234375,9.743574142456055,0.6604190468788147,-0.24406790733337402
1771682510569883100,4.014883056640625,9.748359680175781,0.5048855543136597,-0.08853443711996078
1771682510580241400,4.025241455078125,9.951749801635742,0.31824541091918945,0.28235307335853577
1771682510590599700,4.035599609375,10.234102249145508,0.5383850932121277,0.3852444589138031
1771682510600958000,4.0459580078125,9.600004196166992,0.4546363055706024,0.05742774158716202
1771682510611316200,4.056316162109375,9.626325607299805,0.3278166949748993,-0.059820566326379776
1771682510621674500,4.066674560546875,10.28195858001709,0.7010970115661621,-0.20099709928035736
1771682510632032800,4.07703271484375,9.597611427307129,0.6460621356964111,-0.24646073579788208
1771682510642391000,4.08739111328125,9.92542839050293,0.19621145725250244,0.007178467698395252
1771682510652749300,4.097749267578125,10.241280555725098,0.4259224236011505,0.37088751792907715
1771682510663107600,4.108107666015625,9.504291534423828,0.5096712112426758,0.16510476171970367
1771682510673465900,4.1184658203125,10.552348136901855,0.49292147159576416,0.20099709928035736
1771682510683824000,4.12882421875,9.198010444641113,0.4307080805301666,-0.1698904037475586
1771682510694182400,4.139182373046875,10.755738258361816,0.7872386574745178,-0.40677985548973083
1771682510704540700,4.149540771484375,8.477770805358887,0.2560320198535919,-0.02871387079358101
1771682510714899000,4.15989892578125,11.44965648651123,0.4570291340351105,0.014356935396790504
1771682510725257200,4.17025732421875,8.102097511291504,0.5072783827781677,0.6005984544754028
1771682510735615500,4.180615478515625,11.413763999938965,0.4905286431312561,-0.27038896083831787
1771682510745973800,4.190973876953125,8.49452018737793,0.2967100143432617,0.4450650215148926
1771682510756332000,4.20133203125,11.143375396728516,0.6628118753433228,-0.3684946894645691
1771682510766690300,4.211690185546875,8.60459041595459,0.6269195079803467,-0.20578274130821228
1771682510777048600,4.222048583984375,10.595418930053711,0.3684946894645691,-0.23449662327766418
1771682510787406800,4.23240673828125,9.243474006652832,0.4307080805301666,0.2584248483181
1771682510797765000,4.24276513671875,10.169496536254883,0.36610186100006104,0.37088751792907715
1771682510808123400,4.253123291015625,9.966106414794922,0.5527420043945312,0.30149564146995544
1771682510818481700,4.263481689453125,9.741181373596191,0.4498506486415863,0.031106693670153618
1771682510828840000,4.27383984375,9.915857315063477,0.7728816866874695,-0.41156548261642456
1771682510839198200,4.2841982421875,9.540184020996094,0.2991028428077698,-0.31345975399017334
1771682510849556500,4.294556396484375,10.164710998535156,0.5527420043945312,0.19142581522464752
1771682510859914800,4.304914794921875,9.556933403015137,0.363709032535553,0.1986042857170105
1771682510870273000,4.31527294921875,10.052248001098633,0.6891329288482666,0.2679961323738098
1771682510880631300,4.32563134765625,9.56889820098877,0.29431718587875366,0.1579262912273407
1771682510890989600,4.335989501953125,10.262816429138184,0.6125625967979431,0.10049854964017868
1771682510901347800,4.346347900390625,9.580862045288086,0.519242525100708,-0.38285163044929504
1771682510911706000,4.3567060546875,9.949356079101562,0.607776939868927,-0.15074782073497772
1771682510922064400,4.367064453125,9.425328254699707,0.2560320198535919,-0.038285162299871445
1771682510932422700,4.377422607421875,10.348958015441895,0.4977070987224579,0.33020952343940735
1771682510942781000,4.387781005859375,9.607182502746582,0.363709032535553,0.3613162338733673
1771682510953139200,4.39813916015625,10.284351348876953,0.605384111404419,0.1746760457754135
1771682510963497500,4.40849755859375,9.705288887023926,0.5216353535652161,-0.15314064919948578
1771682510973856000,4.41885595703125,10.023533821105957,0.5288137793540955,-0.3326023519039154
1771682510984214000,4.429214111328125,9.590433120727539,0.33738797903060913,-0.12442677468061447
1771682510994572300,4.439572265625,10.016355514526367,0.4737788736820221,0.11964113265275955
1771682511004930600,4.4499306640625,9.805787086486816,0.5144568681716919,0.33499518036842346
1771682511015288800,4.460288818359375,9.961320877075195,0.4546363055706024,0.22013968229293823
1771682511025647000,4.470647216796875,9.69093132019043,0.4570291340351105,0.13639089465141296
1771682511036005600,4.481005615234375,10.006784439086914,0.5814558863639832,-0.18903298676013947
1771682511046364000,4.491364013671875,9.67657470703125,0.6340979933738708,-0.22971096634864807
1771682511056722200,4.50172216796875,9.623932838439941,0.3086741268634796,-0.17228323221206665
1771682511067080400,4.51208056640625,9.987641334533691,0.38763725757598877,0.18424734473228455
1771682511077438700,4.522438720703125,10.088140487670898,0.4905286431312561,0.40677985548973083
1771682511087796700,4.532796630859375,10.205389022827148,0.44745782017707825,0.38285163044929504
1771682511098155300,4.5431552734375,9.686145782470703,0.5024927258491516,0.10767702013254166
1771682511108513500,4.553513427734375,9.91107177734375,0.5694918036460876,-0.4546363055706024
1771682511118871800,4.563871826171875,9.736394882202148,0.5000999569892883,-0.2105683982372284
1771682511129230000,4.57422998046875,9.415757179260254,0.33499518036842346,0.040677983313798904
1771682511139588400,4.58458837890625,10.578668594360352,0.5647061467170715,0.28953152894973755
1771682511149946600,4.594946533203125,9.061619758605957,0.397208571434021,0.31345975399017334
1771682511160305000,4.605304931640625,10.710273742675781,0.5886343717575073,0.08853443711996078
1771682511170663200,4.6156630859375,8.915657043457031,0.32303106784820557,0.07657032459974289
1771682511181021400,4.626021484375,10.925628662109375,0.7154539823532104,-0.34695929288864136
1771682511191379700,4.636379638671875,8.554341316223145,0.5048855543136597,0.059820566326379776
1771682511201738000,4.646738037109375,10.892128944396973,0.2799602448940277,-0.2991028428077698
1771682511212096300,4.65709619140625,8.915657043457031,0.4043870270252228,0.5718846321105957
1771682511222454500,4.66745458984375,10.279565811157227,0.4426721930503845,0.11724831163883209
1771682511232812800,4.677812744140625,9.968499183654785,0.6867401003837585,0.2871387302875519
1771682511243171000,4.688171142578125,9.561718940734863,0.3684946894645691,-0.1698904037475586
1771682511253529300,4.698529296875,10.327422142028809,0.6867401003837585,-0.3517449200153351
1771682511263887600,4.7088876953125,8.93958568572998,0.30149564146995544,-0.062213387340307236
1771682511274246000,4.719245849609375,10.932806968688965,0.5742774605751038,0.05024927482008934
1771682511284604200,4.729604248046875,8.731410026550293,0.2512463629245758,0.5120640397071838
1771682511294962400,4.73996240234375,11.308480262756348,0.7154539823532104,0.15553347766399384
1771682511305320700,4.75032080078125,8.542376518249512,0.33499518036842346,0.07178468257188797
1771682511315679000,4.760678955078125,10.861021995544434,0.7154539823532104,-0.14356936514377594
1771682511326037200,4.771037353515625,8.676374435424805,0.32303106784820557,-0.22013968229293823
1771682511336395500,4.7813955078125,10.96869945526123,0.6556333899497986,-0.1698904037475586
1771682511346753800,4.79175390625,8.6907320022583,0.23210379481315613,0.14835500717163086
1771682511357112000,4.802112060546875,10.784451484680176,0.4785645306110382,0.31345975399017334
1771682511367470300,4.81247021484375,9.08554744720459,0.4570291340351105,0.27756741642951965
1771682511377828600,4.82282861328125,10.796415328979492,0.7226324677467346,0.02392822690308094
1771682511388187000,4.833186767578125,9.291330337524414,0.4378865361213684,-0.2871387302875519
1771682511398545200,4.843545166015625,10.2747802734375,0.5383850932121277,-0.33499518036842346
1771682511408903400,4.8539033203125,9.33440113067627,0.41156548261642456,-0.004785645287483931
1771682511419261700,4.86426171875,10.497312545776367,0.5216353535652161,0.20099709928035736
1771682511429620000,4.874619873046875,9.487542152404785,0.33020952343940735,0.4378865361213684
1771682511439978200,4.884978271484375,10.29153060913086,0.5431707501411438,0.07896314561367035
1771682511450336500,4.89533642578125,9.286544799804688,0.5527420043945312,0.01196411345154047
1771682511460694800,4.90569482421875,10.2747802734375,0.5479564070701599,-0.2560320198535919
1771682511471053000,4.916052978515625,9.463613510131836,0.49292147159576416,-0.1052841991186142
1771682511481411300,4.926411376953125,10.040284156799316,0.4426721930503845,-0.20817556977272034
1771682511491769600,4.93676953125,9.667003631591797,0.4905286431312561,0.21774685382843018
1771682511502127900,4.9471279296875,9.942177772521973,0.363709032535553,0.35892340540885925
1771682511512486100,4.957486083984375,9.987641334533691,0.5264210104942322,0.37088751792907715
1771682511522844400,4.967844482421875,10.013962745666504,0.5359922647476196,-0.08374879509210587
1771682511533202700,4.97820263671875,9.827322959899902,0.5814558863639832,-0.38763725757598877
1771682511543561000,4.98856103515625,9.652647018432617,0.3756731450557709,-0.19381862878799438
1771682511553919200,4.998919189453125,9.753145217895508,0.43549370765686035,0.10767702013254166
1771682511564277500,5.009277587890625,9.734002113342285,0.5240281820297241,0.28235307335853577
1771682511574635800,5.0196357421875,10.00439167022705,0.5718846321105957,0.16510476171970367
1771682511584994000,5.029994140625,9.934999465942383,0.5359922647476196,0.26081767678260803
1771682511595352300,5.040352294921875,9.501898765563965,0.5072783827781677,-0.038285162299871445
1771682511605710600,5.050710693359375,10.176674842834473,0.6173482537269592,-0.2991028428077698
1771682511616068900,5.06106884765625,9.145368576049805,0.42831525206565857,-0.18424734473228455
1771682511626427100,5.07142724609375,10.198209762573242,0.3732803463935852,0.004785645287483931
1771682511636785400,5.081785400390625,9.65503978729248,0.3397808074951172,0.5216353535652161
1771682511647143700,5.092143798828125,10.15035343170166,0.5670989751815796,0.2584248483181
1771682511657502000,5.102501953125,9.915857315063477,0.5982056856155396,0.2584248483181
1771682511667860200,5.112860107421875,9.767501831054688,0.4331009089946747,-0.5168496966362
1771682511678218500,5.123218505859375,10.090533256530762,0.6891329288482666,-0.14117653667926788
1771682511688576800,5.13357666015625,9.181260108947754,0.22492532432079315,-0.14356936514377594
1771682511698935000,5.14393505859375,11.059626579284668,0.6269195079803467,0.18903298676013947
1771682511709293300,5.154293212890625,8.46580696105957,0.2512463629245758,0.4905286431312561
1771682511719651600,5.164651611328125,11.492727279663086,0.7178468108177185,0.01196411345154047
1771682511730010000,5.175010009765625,8.267202377319336,0.2632105052471161,0.18424734473228455
1771682511740368400,5.185368408203125,11.569297790527344,0.7872386574745178,-0.40677985548973083
1771682511750726700,5.1957265625,8.288737297058105,0.33020952343940735,-0.10049854964017868
1771682511761084700,5.206084716796875,11.394621849060059,0.6532405614852905,-0.2799602448940277
1771682511771443000,5.21644287109375,8.63330364227295,0.20817556977272034,0.23210379481315613
1771682511792159700,5.23715966796875,8.973084449768066,0.39481574296951294,0.35413774847984314
1771682511802518000,5.24751806640625,11.002198219299316,0.6628118753433228,-0.038285162299871445
1771682511812876300,5.257876220703125,8.94676399230957,0.4498506486415863,-0.33020952343940735
1771682511823234600,5.268234619140625,10.49252700805664,0.5048855543136597,-0.34217363595962524
1771682511833592800,5.2785927734375,9.332008361816406,0.3924229145050049,0.13878370821475983
1771682511843951000,5.288951171875,10.38485050201416,0.4378865361213684,0.22013968229293823
1771682511854309400,5.299309326171875,9.738788604736328,0.5551348328590393,0.34217363595962524
1771682511864667600,5.309667724609375,9.884750366210938,0.38285163044929504,0.038285162299871445
1771682511875026000,5.32002587890625,9.767501831054688,0.5575276613235474,0.1052841991186142
1771682511885384200,5.33038427734375,9.8871431350708,0.38763725757598877,-0.2991028428077698
1771682511895742500,5.340742431640625,9.681360244750977,0.6221339106559753,-0.13878370821475983
1771682511906100700,5.351100830078125,9.961320877075195,0.3158525824546814,-0.27038896083831787
1771682511916459000,5.361458984375,9.611968994140625,0.5216353535652161,0.31824541091918945
1771682511926817300,5.3718173828125,10.068997383117676,0.30149564146995544,0.31345975399017334
1771682511937175600,5.382175537109375,9.91107177734375,0.6843472719192505,0.31106695532798767
1771682511947533800,5.392533935546875,9.990034103393555,0.5144568681716919,-0.14356936514377594
1771682511957892000,5.40289208984375,9.559326171875,0.5718846321105957,-0.3445664644241333
1771682511968250400,5.41325048828125,9.961320877075195,0.41156548261642456,-0.22971096634864807
1771682511978608600,5.423608642578125,9.518648147583008,0.44027936458587646,0.09092725813388824
1771682511988967000,5.433966796875,10.415956497192383,0.5120640397071838,0.3517449200153351
1771682511999325200,5.4443251953125,9.382257461547852,0.4498506486415863,0.28953152894973755
1771682512009683500,5.454683349609375,10.334601402282715,0.5886343717575073,0.15553347766399384
1771682512020041700,5.465041748046875,9.1716890335083,0.3924229145050049,0.05024927482008934
1771682512030400000,5.47539990234375,10.408778190612793,0.6604190468788147,-0.28953152894973755
1771682512040758300,5.48575830078125,8.951549530029297,0.39960137009620667,-0.17706887423992157
1771682512051116500,5.496116455078125,10.332208633422852,0.5431707501411438,-0.15553347766399384
1771682512061474800,5.506474853515625,9.09990406036377,0.39960137009620667,0.24167509377002716
1771682512071833000,5.5168330078125,10.418350219726562,0.4546363055706024,0.3206382393836975
1771682512082191400,5.52719140625,9.609575271606445,0.4905286431312561,0.3732803463935852
1771682512092549600,5.537549560546875,10.430314064025879,0.5216353535652161,-0.20817556977272034
1771682512102908000,5.547907958984375,9.56650447845459,0.5144568681716919,-0.35892340540885925
1771682512113266200,5.55826611328125,9.609575271606445,0.49292147159576416,-0.31106695532798767
1771682512123624400,5.56862451171875,10.191031455993652,0.4666004180908203,0.1579262912273407
1771682512133982700,5.578982666015625,9.600004196166992,0.39960137009620667,0.33738797903060913
1771682512144341000,5.589341064453125,10.573883056640625,0.6484549641609192,0.3852444589138031
1771682512154699300,5.59969921875,8.827122688293457,0.3613162338733673,0.09571290761232376
1771682512165057500,5.6100576171875,11.12901782989502,0.6795616149902344,-0.20578274130821228
1771682512175415800,5.620415771484375,8.286344528198242,0.3924229145050049,-0.14117653667926788
1771682512185774000,5.630774169921875,11.3180513381958,0.6317051649093628,-0.4833501875400543
1771682512196132400,5.64113232421875,8.271987915039062,0.30628129839897156,0.22013968229293823
1771682512206490600,5.65149072265625,11.461620330810547,0.4953143000602722,0.1579262912273407
1771682512216849000,5.661848876953125,8.506484031677246,0.43549370765686035,0.576670229434967
1771682512227207200,5.672207275390625,11.20080280303955,0.6149554252624512,-0.019142581149935722
1771682512237565400,5.6825654296875,8.666803359985352,0.5431707501411438,-0.17946170270442963
1771682512247923700,5.692923828125,10.62413215637207,0.5216353535652161,-0.3613162338733673
1771682512258282000,5.703281982421875,9.10229778289795,0.3565305769443512,-0.10049854964017868
1771682512268640300,5.71364013671875,10.363314628601074,0.39481574296951294,0.2273181527853012
1771682512278998500,5.72399853515625,9.45164966583252,0.5383850932121277,0.4713860750198364
1771682512289356800,5.734356689453125,10.29153060913086,0.3445664644241333,0.031106693670153618
1771682512299715000,5.744715087890625,9.396614074707031,0.7226324677467346,0.3445664644241333
1771682512310073300,5.7550732421875,10.01156997680664,0.2919243574142456,-0.3038884699344635
1771682512320431600,5.765431640625,9.89432144165039,0.7202396392822266,-0.064606212079525
1771682512330790000,5.775789794921875,9.382257461547852,0.2560320198535919,-0.34695929288864136
1771682512341148200,5.786148193359375,10.308279991149902,0.6293123364448547,0.1818545162677765
1771682512351506400,5.79650634765625,9.542576789855957,0.27038896083831787,0.3206382393836975
1771682512361864700,5.80686474609375,10.255638122558594,0.6173482537269592,0.3852444589138031
1771682512372223000,5.817222900390625,9.688538551330566,0.45224347710609436,0.08135596662759781
1771682512382581200,5.827581298828125,10.159924507141113,0.6245267391204834,-0.30149564146995544
1771682512392939500,5.837939453125,9.34157943725586,0.4546363055706024,-0.3756731450557709
1771682512403297800,5.8482978515625,9.93978500366211,0.39960137009620667,-0.0933200865983963
1771682512413656000,5.858656005859375,9.868000984191895,0.5000999569892883,0.275174617767334
1771682512424014300,5.869014404296875,10.092926025390625,0.576670229434967,0.4378865361213684
1771682512434372600,5.87937255859375,9.580862045288086,0.39960137009620667,0.10767702013254166
1771682512444731000,5.88973095703125,10.104889869689941,0.6269195079803467,-0.01196411345154047
1771682512455089200,5.900089111328125,9.4660062789917,0.4737788736820221,-0.09092725813388824
1771682512465447400,5.910447509765625,10.442277908325195,0.4618147611618042,-0.349352091550827
1771682512475805700,5.9208056640625,9.183652877807617,0.576670229434967,-0.14356936514377594
1771682512486164000,5.9311640625,10.243673324584961,0.35892340540885925,0.05742774158716202
1771682512496522200,5.941522216796875,9.748359680175781,0.46420758962631226,0.4833501875400543
1771682512506880500,5.951880615234375,9.994820594787598,0.5335994362831116,0.33020952343940735
1771682512517238800,5.96223876953125,9.92542839050293,0.4905286431312561,0.059820566326379776
1771682512527597000,5.97259716796875,10.164710998535156,0.5814558863639832,-0.37806597352027893
1771682512537955300,5.982955322265625,9.717252731323242,0.39481574296951294,-0.16510476171970367
1771682512548313600,5.993313720703125,9.753145217895508,0.3565305769443512,-0.12921242415905
1771682512558672000,6.003671875,10.071390151977539,0.5096712112426758,0.1866401731967926
1771682512569030100,6.014030029296875,9.90149974822998,0.4737788736820221,0.39481574296951294
1771682512579388400,6.024388427734375,9.678967475891113,0.5240281820297241,0.22492532432079315
1771682512589746700,6.03474658203125,10.432706832885742,0.4426721930503845,0.064606212079525
1771682512600105000,6.04510498046875,9.126225471496582,0.48813581466674805,-0.1986042857170105
1771682512610463200,6.055463134765625,10.552348136901855,0.6101697683334351,-0.21774685382843018
1771682512620821500,6.065821533203125,8.879764556884766,0.2679961323738098,-0.27038896083831787
1771682512631179800,6.0761796875,11.10748291015625,0.5934200286865234,0.12681959569454193
1771682512641538000,6.0865380859375,8.322237014770508,0.25363919138908386,0.6963114142417908
1771682512651896300,6.096896240234375,11.571690559387207,0.6364908218383789,0.02632104977965355
1771682512662254600,6.107254638671875,8.291130065917969,0.5216353535652161,0.2847459018230438
1771682512672612900,6.11761279296875,10.97587776184082,0.5144568681716919,-0.7130611538887024
1771682512682971100,6.12797119140625,8.803194046020508,0.5216353535652161,-0.08614161610603333
1771682512693329400,6.138329345703125,10.1814603805542,0.2967100143432617,-0.17946170270442963
1771682512703687700,6.148687744140625,9.762716293334961,0.638883650302887,0.4450650215148926
1771682512714046200,6.159046142578125,9.745966911315918,0.32303106784820557,0.3900300860404968
1771682512724404200,6.169404296875,10.427921295166016,0.6628118753433228,0.1339980661869049
1771682512734762500,6.179762451171875,8.889336585998535,0.3086741268634796,0.03349951654672623
1771682512745120800,6.190120849609375,10.887343406677246,0.7106683254241943,-0.2225325107574463
1771682512755479000,6.20047900390625,8.834300994873047,0.2799602448940277,-0.30149564146995544
1771682512765837300,6.21083740234375,10.738987922668457,0.6771687865257263,-0.12681959569454193
1771682512776195800,6.22119580078125,9.011369705200195,0.22971096634864807,0.12203395366668701
1771682512786553900,6.231553955078125,11.081161499023438,0.5718846321105957,0.4905286431312561
1771682512796912000,6.241912109375,8.676374435424805,0.3900300860404968,0.24885354936122894
1771682512807270400,6.2522705078125,11.164910316467285,0.6795616149902344,-0.04546362906694412
1771682512817628700,6.262628662109375,8.920442581176758,0.3756731450557709,-0.40677985548973083
1771682512827987000,6.272987060546875,10.569097518920898,0.6029912829399109,-0.28235307335853577
1771682512838345500,6.283345458984375,9.147761344909668,0.2799602448940277,-0.01196411345154047
1771682512848703700,6.293703857421875,10.784451484680176,0.6245267391204834,0.3158525824546814
1771682512859061800,6.304061767578125,9.41336441040039,0.37806597352027893,0.38763725757598877
1771682512869420000,6.314419921875,10.420742988586426,0.576670229434967,0.1579262912273407
1771682512879778300,6.3247783203125,9.265008926391602,0.3900300860404968,0.06699903309345245
1771682512890136800,6.33513671875,10.518848419189453,0.6005984544754028,-0.23449662327766418
1771682512900495000,6.3454951171875,9.166903495788574,0.46899324655532837,-0.1698904037475586
1771682512910853400,6.355853271484375,9.985248565673828,0.4546363055706024,-0.18903298676013947
1771682512921211400,6.36621142578125,9.678967475891113,0.3756731450557709,0.3038884699344635
1771682512931569700,6.376569580078125,10.387243270874023,0.46420758962631226,0.4019941985607147
1771682512941928000,6.386927978515625,9.595218658447266,0.6005984544754028,0.33738797903060913
1771682512952286500,6.397286376953125,9.987641334533691,0.4833501875400543,-0.22013968229293823
1771682512962644700,6.407644775390625,9.915857315063477,0.5383850932121277,-0.33499518036842346
1771682512973003000,6.4180029296875,9.604789733886719,0.39481574296951294,-0.23688943684101105
1771682512983361300,6.428361328125,9.870393753051758,0.40677985548973083,0.014356935396790504
1771682512993719300,6.43871923828125,9.8871431350708,0.5383850932121277,0.33020952343940735
1771682513004077800,6.449077880859375,9.987641334533691,0.48574298620224,0.31824541091918945
1771682513014436000,6.45943603515625,9.76989459991455,0.5312066078186035,0.14835500717163086
1771682513024794400,6.46979443359375,9.92542839050293,0.4833501875400543,0.03349951654672623
1771682513035152600,6.480152587890625,9.915857315063477,0.5359922647476196,-0.12681959569454193
1771682513045511000,6.490510986328125,9.640682220458984,0.42831525206565857,-0.27038896083831787
1771682513055869200,6.500869140625,10.047462463378906,0.5670989751815796,-0.07657032459974289
1771682513066227500,6.5112275390625,8.891729354858398,0.37088751792907715,0.3517449200153351
1771682513076585700,6.521585693359375,10.96869945526123,0.4426721930503845,0.42352959513664246
1771682513086944000,6.531944091796875,9.140582084655762,0.5000999569892883,0.38285163044929504
1771682513097302300,6.54230224609375,10.506884574890137,0.6580262184143066,-0.20338992774486542
1771682513107660500,6.55266064453125,9.131011009216309,0.4211367964744568,-0.3278166949748993
1771682513118018600,6.5630185546875,10.250852584838867,0.4139583110809326,-0.41874396800994873
1771682513128377000,6.573377197265625,9.528220176696777,0.5024927258491516,0.32542386651039124
1771682513138735400,6.5837353515625,10.131211280822754,0.39481574296951294,0.2799602448940277
1771682513149093600,6.59409375,10.286744117736816,0.5934200286865234,0.34695929288864136
1771682513159452000,6.604451904296875,9.080761909484863,0.41156548261642456,0.20578274130821228
1771682513169810200,6.61481005859375,10.829915046691895,0.5479564070701599,-0.08614161610603333
1771682513180168400,6.62516845703125,8.922835350036621,0.4019941985607147,-0.14835500717163086
1771682513190526700,6.635526611328125,10.791629791259766,0.605384111404419,-0.3206382393836975
1771682513200885000,6.645885009765625,8.786444664001465,0.33738797903060913,0.07417750358581543
1771682513211243300,6.6562431640625,11.076375961303711,0.5479564070701599,0.2273181527853012
1771682513221601500,6.6666015625,8.726624488830566,0.3517449200153351,0.5551348328590393
1771682513231959800,6.676959716796875,11.13619613647461,0.6843472719192505,0.24885354936122894
1771682513242318000,6.687318115234375,8.717052459716797,0.42831525206565857,-0.1579262912273407
1771682513252676400,6.69767626953125,10.710273742675781,0.5982056856155396,-0.5000999569892883
1771682513263034600,6.70803466796875,8.551948547363281,0.41156548261642456,-0.16271193325519562
1771682513273393000,6.718392822265625,10.822736740112305,0.5288137793540955,-0.01196411345154047
1771682513283751200,6.728751220703125,9.119047164916992,0.4977070987224579,0.44027936458587646
1771682513294109400,6.739109375,10.554740905761719,0.5527420043945312,0.21774685382843018
1771682513304467700,6.7494677734375,9.482755661010742,0.49292147159576416,0.21296121180057526
1771682513314826000,6.759825927734375,9.958928108215332,0.4977070987224579,-0.16271193325519562
1771682513325184300,6.770184326171875,9.896714210510254,0.5694918036460876,-0.21296121180057526
1771682513335542500,6.78054248046875,9.580862045288086,0.4259224236011505,-0.34217363595962524
1771682513345900800,6.79090087890625,10.124032974243164,0.48095735907554626,-0.004785645287483931
1771682513356259000,6.801259033203125,9.674181938171387,0.363709032535553,0.30149564146995544
1771682513366617300,6.811617431640625,10.329814910888672,0.4905286431312561,0.43549370765686035
1771682513376975600,6.8219755859375,9.748359680175781,0.5407779216766357,0.19381862878799438
1771682513387334000,6.832333984375,10.00439167022705,0.5288137793540955,-0.3278166949748993
1771682513397692200,6.842692138671875,9.647860527038574,0.4307080805301666,-0.4307080805301666
1771682513408050400,6.853050537109375,9.990034103393555,0.380458801984787,-0.20099709928035736
1771682513418408700,6.86340869140625,9.719645500183105,0.46420758962631226,0.17228323221206665
1771682513428767000,6.87376708984375,10.169496536254883,0.363709032535553,0.3397808074951172
1771682513439125200,6.884125244140625,9.954142570495605,0.5599204897880554,0.23688943684101105
1771682513449483500,6.8944833984375,9.954142570495605,0.40677985548973083,0.05742774158716202
1771682513459841800,6.904841796875,9.750752449035645,0.5599204897880554,-0.08614161610603333
1771682513470200000,6.915199951171875,10.016355514526367,0.4737788736820221,-0.4331009089946747
1771682513480558300,6.925558349609375,9.650253295898438,0.48813581466674805,-0.1818545162677765
1771682513490916600,6.93591650390625,9.774680137634277,0.41874396800994873,-0.038285162299871445
1771682513501275000,6.94627490234375,9.57607650756836,0.43549370765686035,0.39481574296951294
1771682513511633200,6.956633056640625,10.131211280822754,0.5742774605751038,0.24167509377002716
1771682513521991400,6.966991455078125,9.973284721374512,0.6245267391204834,0.1986042857170105
1771682513532349700,6.977349609375,9.67657470703125,0.4785645306110382,-0.3397808074951172
1771682513542708000,6.9877080078125,10.140782356262207,0.5048855543136597,-0.31824541091918945
1771682513553066200,6.998066162109375,9.34875774383545,0.3756731450557709,-0.14117653667926788
1771682513563424500,7.008424560546875,10.193424224853516,0.5886343717575073,0.2632105052471161
1771682513573782800,7.01878271484375,9.719645500183105,0.397208571434021,0.44745782017707825
1771682513584141000,7.02914111328125,10.133604049682617,0.5575276613235474,0.10289137065410614
1771682513594499300,7.039499267578125,9.611968994140625,0.5886343717575073,0.275174617767334
1771682513604857600,7.049857666015625,9.724431037902832,0.4043870270252228,-0.37088751792907715
1771682513615215900,7.0602158203125,10.320243835449219,0.7106683254241943,-0.20817556977272034
1771682513625574100,7.07057421875,8.748159408569336,0.2847459018230438,-0.22492532432079315
1771682513635932400,7.080932373046875,11.157732009887695,0.5814558863639832,0.05503492057323456
1771682513646290700,7.091290771484375,8.329415321350098,0.3158525824546814,0.7226324677467346
1771682513656649000,7.10164892578125,11.519047737121582,0.6891329288482666,0.05742774158716202
1771682513667007200,7.11200732421875,8.420342445373535,0.4666004180908203,0.2919243574142456
1771682513677365500,7.122365478515625,11.033305168151855,0.6867401003837585,-0.6843472719192505
1771682513687723800,7.132723876953125,8.389236450195312,0.44745782017707825,-0.14117653667926788
1771682513698082000,7.14308203125,10.815558433532715,0.41874396800994873,-0.14117653667926788
1771682513708440300,7.1534404296875,9.241081237792969,0.5838487148284912,0.39481574296951294
1771682513718798600,7.163798583984375,10.301101684570312,0.37088751792907715,0.3517449200153351
1771682513729156900,7.174156982421875,9.674181938171387,0.6580262184143066,0.15314064919948578
1771682513739515100,7.18451513671875,9.961320877075195,0.3397808074951172,0.02871387079358101
1771682513749873400,7.194873291015625,9.738788604736328,0.6245267391204834,-0.0933200865983963
1771682513760231700,7.205231689453125,10.028319358825684,0.38285163044929504,-0.3278166949748993
1771682513770590000,7.21558984375,9.626325607299805,0.5048855543136597,-0.1459621787071228
1771682513780948200,7.2259482421875,10.037891387939453,0.31345975399017334,0.14356936514377594
1771682513791306500,7.236306396484375,9.949356079101562,0.39960137009620667,0.4498506486415863
1771682513801664800,7.246664794921875,10.15753173828125,0.5479564070701599,0.20338992774486542
1771682513812023000,7.25702294921875,9.980463027954102,0.5264210104942322,0.02153540402650833
1771682513822381300,7.26738134765625,9.853643417358398,0.5168496966362,-0.4666004180908203
1771682513832739600,7.277739501953125,9.650253295898438,0.4331009089946747,-0.2153540402650833
1771682513843097900,7.288097900390625,10.03549861907959,0.44027936458587646,-0.035892341285943985
1771682513853456100,7.2984560546875,9.879964828491211,0.4163511395454407,0.3445664644241333
1771682513863814400,7.308814453125,10.078569412231445,0.5264210104942322,0.3206382393836975
1771682513874172700,7.319172607421875,9.707681655883789,0.4139583110809326,0.16749759018421173
1771682513884531000,7.329531005859375,10.119247436523438,0.5359922647476196,0.05742774158716202
1771682513894889200,7.33988916015625,9.57607650756836,0.42831525206565857,-0.24406790733337402
1771682513905247500,7.35024755859375,10.116853713989258,0.6293123364448547,-0.22492532432079315
1771682513915605800,7.360605712890625,9.497113227844238,0.2871387302875519,-0.08853443711996078
1771682513925964000,7.370964111328125,10.370492935180664,0.550349235534668,0.3278166949748993
1771682513936322000,7.381322021484375,9.475577354431152,0.24885354936122894,0.42831525206565857
1771682513946680600,7.3916806640625,10.597811698913574,0.7226324677467346,0.3086741268634796
1771682513957038800,7.402038818359375,9.269794464111328,0.3684946894645691,-0.10289137065410614
1771682513967397000,7.412397216796875,10.224531173706055,0.6245267391204834,-0.4043870270252228
1771682513977755400,7.42275537109375,9.255437850952148,0.30149564146995544,-0.11964113265275955
1771682513988113400,7.433113525390625,10.569097518920898,0.5144568681716919,0.016749758273363113
1771682513998472000,7.443471923828125,9.19561767578125,0.39481574296951294,0.3397808074951172
1771682514008830200,7.453830322265625,10.437492370605469,0.41874396800994873,0.13639089465141296
1771682514019188500,7.4641884765625,9.492327690124512,0.5024927258491516,0.26560330390930176
1771682514029546800,7.474546630859375,10.341779708862305,0.4139583110809326,-0.009571290574967861
1771682514039904800,7.48490478515625,10.107282638549805,0.5407779216766357,-0.27756741642951965
1771682514050263000,7.495262939453125,9.248259544372559,0.4666004180908203,-0.28235307335853577
1771682514060621600,7.50562158203125,10.408778190612793,0.44027936458587646,-0.07178468257188797
1771682514070979800,7.515979736328125,9.169296264648438,0.2679961323738098,0.31345975399017334
1771682514081338000,7.526338134765625,10.992627143859863,0.5886343717575073,0.4019941985607147
1771682514091696000,7.536696044921875,8.752944946289062,0.45224347710609436,0.34695929288864136
1771682514102054400,7.547054443359375,11.284551620483398,0.6819544434547424,-0.5575276613235474
1771682514112413000,7.557412841796875,8.011170387268066,0.4139583110809326,-0.0933200865983963
1771682514122771200,7.567771240234375,11.289337158203125,0.4426721930503845,-0.4833501875400543
1771682514133129500,7.57812939453125,8.391629219055176,0.3732803463935852,0.4905286431312561
1771682514143487500,7.588487548828125,11.23908805847168,0.5024927258491516,0.14356936514377594
1771682514153845800,7.598845703125,8.549555778503418,0.4833501875400543,0.3565305769443512
1771682514164204000,7.6092041015625,10.810772895812988,0.5168496966362,0.0023928226437419653
1771682514174562600,7.6195625,9.047262191772461,0.5527420043945312,0.02153540402650833
1771682514184920800,7.6299208984375,10.38485050201416,0.49292147159576416,-0.2679961323738098
1771682514195278800,7.64027880859375,9.418149948120117,0.5431707501411438,-0.11006984114646912
1771682514205637000,7.65063720703125,9.908679008483887,0.37088751792907715,-0.04307080805301666
1771682514215995400,7.660995361328125,9.667003631591797,0.5838487148284912,0.4785645306110382
1771682514226353700,7.671353759765625,10.092926025390625,0.3158525824546814,0.2512463629245758
1771682514236712200,7.681712158203125,10.176674842834473,0.8087740540504456,0.2991028428077698
1771682514247070200,7.6920703125,9.415757179260254,0.33738797903060913,-0.4426721930503845
1771682514257428500,7.702428466796875,10.00439167022705,0.7082754969596863,-0.26081767678260803
1771682514267786800,7.712786865234375,9.291330337524414,0.2584248483181,-0.13878370821475983
1771682514278145000,7.72314501953125,10.695917129516602,0.6460621356964111,0.3158525824546814
1771682514288503300,7.73350341796875,9.300901412963867,0.3517449200153351,0.275174617767334
1771682514298861600,7.743861572265625,10.487741470336914,0.6652047038078308,0.1746760457754135
1771682514309219800,7.7542197265625,9.276973724365234,0.38285163044929504,0.09092725813388824
1771682514319578000,7.764578125,10.470992088317871,0.5144568681716919,-0.1052841991186142
1771682514329936400,7.774936279296875,9.501898765563965,0.44745782017707825,-0.24406790733337402
1771682514340294700,7.785294677734375,9.872786521911621,0.48813581466674805,-0.2847459018230438
1771682514350653000,7.79565283203125,9.7938232421875,0.40677985548973083,0.1459621787071228
1771682514361011200,7.80601123046875,9.899106979370117,0.4307080805301666,0.4378865361213684
1771682514371369500,7.816369384765625,10.243673324584961,0.4785645306110382,0.28953152894973755
1771682514381727700,7.826727783203125,9.626325607299805,0.5694918036460876,0.035892341285943985
1771682514392086000,7.8370859375,9.908679008483887,0.5431707501411438,-0.42831525206565857
1771682514402444300,7.8474443359375,9.68375301361084,0.4426721930503845,-0.1579262912273407
1771682514412802600,7.857802490234375,9.949356079101562,0.3900300860404968,0.014356935396790504
1771682514423160800,7.868160888671875,10.028319358825684,0.5742774605751038,0.17946170270442963
1771682514433519000,7.87851904296875,9.614361763000488,0.46899324655532837,0.2847459018230438
1771682514443877400,7.88887744140625,10.131211280822754,0.4977070987224579,0.13639089465141296
1771682514454235600,7.899235595703125,9.707681655883789,0.4426721930503845,0.1339980661869049
1771682514464594000,7.909593994140625,10.329814910888672,0.5407779216766357,-0.12921242415905
1771682514474952200,7.9199521484375,9.810572624206543,0.48813581466674805,-0.12442677468061447
1771682514485310500,7.930310546875,9.76989459991455,0.39960137009620667,-0.15074782073497772
1771682514495668700,7.940668701171875,9.705288887023926,0.42831525206565857,0.1339980661869049
1771682514506027000,7.951027099609375,9.958928108215332,0.4666004180908203,0.380458801984787
1771682514516385300,7.96138525390625,9.717252731323242,0.5240281820297241,0.2679961323738098
1771682514526743600,7.97174365234375,10.310672760009766,0.5982056856155396,0.02153540402650833
1771682514537101800,7.982101806640625,9.20279598236084,0.4450650215148926,-0.3397808074951172
1771682514547460000,7.992460205078125,10.396814346313477,0.5814558863639832,-0.24167509377002716
1771682514557818400,8.002818359375,9.133403778076172,0.2991028428077698,0.1052841991186142
1771682514568176600,8.0131767578125,10.8969144821167,0.6245267391204834,0.13160525262355804
1771682514578535000,8.023534912109374,8.7505521774292,0.4378865361213684,0.5862415432929993
1771682514588893200,8.03389306640625,11.073983192443848,0.4211367964744568,-0.09092725813388824
1771682514599251500,8.04425146484375,8.824729919433594,0.5096712112426758,0.2153540402650833
1771682514609609700,8.054609619140624,10.26760196685791,0.5072783827781677,-0.5551348328590393
1771682514619968000,8.064968017578124,9.535398483276367,0.5862415432929993,-0.11724831163883209
1771682514630326300,8.075326171875,9.832108497619629,0.2679961323738098,-0.064606212079525
1771682514640684500,8.0856845703125,10.183853149414062,0.5934200286865234,0.3326023519039154
1771682514651042800,8.096042724609376,9.214759826660156,0.28953152894973755,0.5312066078186035
1771682514661401000,8.106401123046876,11.174481391906738,0.763310432434082,0.11006984114646912
1771682514671759400,8.11675927734375,8.511270523071289,0.3732803463935852,-0.02871387079358101
1771682514682117600,8.12711767578125,11.198410034179688,0.7034898400306702,-0.4833501875400543
1771682514692476000,8.137475830078126,8.453842163085938,0.2153540402650833,-0.08374879509210587
1771682514702834200,8.147834228515626,11.176874160766602,0.6915257573127747,0.02632104977965355
1771682514713192400,8.1581923828125,8.578269004821777,0.26560330390930176,0.37088751792907715
1771682514723550700,8.16855078125,11.33240795135498,0.6532405614852905,0.1986042857170105
1771682514733909000,8.178908935546875,8.719446182250977,0.3326023519039154,0.15074782073497772
1771682514744267300,8.189267333984375,10.892128944396973,0.6197410821914673,-0.0933200865983963
1771682514754625500,8.19962548828125,8.927620887756348,0.4450650215148926,-0.27756741642951965
1771682514764983800,8.20998388671875,10.459028244018555,0.5575276613235474,-0.22013968229293823
1771682514775342000,8.220342041015625,9.384650230407715,0.31106695532798767,0.1052841991186142
1771682514785700400,8.230700439453125,10.39202880859375,0.46420758962631226,0.23449662327766418
1771682514796058600,8.24105859375,9.470791816711426,0.4785645306110382,0.3924229145050049
1771682514806417000,8.2514169921875,10.478170394897461,0.5599204897880554,0.1052841991186142
1771682514816775200,8.261775146484375,9.588040351867676,0.45942193269729614,-0.1698904037475586
1771682514827133400,8.272133544921875,10.164710998535156,0.5000999569892883,-0.4378865361213684
1771682514837491700,8.28249169921875,9.324830055236816,0.41156548261642456,-0.05742774158716202
1771682514847850000,8.29285009765625,10.40638542175293,0.4785645306110382,0.14835500717163086
1771682514858208300,8.303208251953125,9.501898765563965,0.4426721930503845,0.4713860750198364
1771682514868566500,8.31356640625,10.289137840270996,0.48095735907554626,0.08853443711996078
1771682514878924800,8.3239248046875,9.410971641540527,0.5455635786056519,0.10289137065410614
1771682514889283000,8.334282958984375,10.145567893981934,0.48095735907554626,-0.13160525262355804
1771682514899641300,8.344641357421875,9.68375301361084,0.5670989751815796,-0.16749759018421173
1771682514909999600,8.35499951171875,9.877572059631348,0.4307080805301666,-0.20578274130821228
1771682514920358000,8.36535791015625,9.844072341918945,0.5000999569892883,0.12442677468061447
1771682514930716200,8.375716064453124,9.726823806762695,0.3613162338733673,0.4043870270252228
1771682514941074400,8.386074462890624,10.045069694519043,0.5455635786056519,0.3326023519039154
1771682514951432700,8.3964326171875,9.475577354431152,0.5312066078186035,0.0933200865983963
1771682514961791000,8.406791015625,10.006784439086914,0.6149554252624512,-0.37088751792907715
1771682514972149200,8.417149169921874,9.858428955078125,0.5407779216766357,-0.1986042857170105
1771682514982507500,8.427507568359376,9.468399047851562,0.4570291340351105,0.02632104977965355
1771682514992865800,8.43786572265625,10.334601402282715,0.5383850932121277,0.15553347766399384
1771682515003224000,8.44822412109375,9.075976371765137,0.48095735907554626,0.4546363055706024
1771682515013582300,8.458582275390626,10.74138069152832,0.5144568681716919,0.14117653667926788
1771682515023940600,8.468940673828126,9.049654960632324,0.38763725757598877,0.20338992774486542
1771682515034298600,8.479298583984376,10.375279426574707,0.5647061467170715,-0.24406790733337402
1771682515044657000,8.489656982421875,9.396614074707031,0.5623133182525635,-0.11485548317432404
1771682515055015400,8.500015380859375,9.80817985534668,0.35892340540885925,-0.44745782017707825
1771682515065373400,8.51037353515625,10.076175689697266,0.6125625967979431,0.2871387302875519
1771682515075731700,8.520731689453125,9.241081237792969,0.23210379481315613,0.4426721930503845
1771682515086090000,8.531090087890625,11.401800155639648,0.638883650302887,0.3684946894645691
1771682515096448300,8.5414482421875,8.307880401611328,0.4331009089946747,0.15074782073497772
1771682515106806500,8.551806640625,11.258230209350586,0.7154539823532104,-0.6484549641609192
1771682515117164800,8.562164794921875,8.202595710754395,0.2799602448940277,-0.07657032459974289
1771682515127523000,8.572523193359375,11.617154121398926,0.6340979933738708,-0.1818545162677765
1771682515137881300,8.58288134765625,8.427521705627441,0.2967100143432617,0.5599204897880554
1771682515148239600,8.593239501953125,11.375478744506836,0.638883650302887,0.1579262912273407
1771682515158598000,8.603597900390625,8.647661209106445,0.34695929288864136,0.22013968229293823
1771682515168956200,8.6139560546875,10.8969144821167,0.5934200286865234,-0.007178467698395252
1771682515179314400,8.624314453125,8.941978454589844,0.4139583110809326,-0.1746760457754135
1771682515189672700,8.634672607421875,10.923234939575195,0.6125625967979431,-0.31345975399017334
1771682515200031000,8.645031005859375,8.523234367370605,0.38285163044929504,-0.0526420995593071
1771682515210389200,8.65538916015625,10.999805450439453,0.4378865361213684,0.10049854964017868
1771682515220747500,8.66574755859375,8.762516975402832,0.44745782017707825,0.5838487148284912
1771682515231105800,8.676105712890624,11.169695854187012,0.4953143000602722,0.14835500717163086
1771682515241464000,8.686464111328124,8.752944946289062,0.5814558863639832,0.01196411345154047
1771682515251822300,8.696822265625,10.389636039733887,0.5407779216766357,-0.605384111404419
1771682515262180600,8.7071806640625,9.090332984924316,0.41156548261642456,-0.019142581149935722
1771682515272539000,8.717538818359374,10.423135757446289,0.40677985548973083,-0.03349951654672623
1771682515282897200,8.727897216796874,9.56650447845459,0.519242525100708,0.40677985548973083
1771682515293255400,8.73825537109375,10.03310489654541,0.5383850932121277,0.12681959569454193
1771682515303613700,8.74861376953125,9.695717811584473,0.47617170214653015,0.19621145725250244
1771682515313972000,8.758971923828126,10.066604614257812,0.48813581466674805,-0.031106693670153618
1771682515324330200,8.769330322265626,9.7005033493042,0.5647061467170715,-0.26081767678260803
1771682515334688500,8.7796884765625,9.767501831054688,0.48574298620224,-0.2967100143432617
1771682515345046800,8.790046875,9.791430473327637,0.38763725757598877,0.08374879509210587
1771682515355405000,8.800405029296876,9.990034103393555,0.3613162338733673,0.349352091550827
1771682515365763300,8.810763427734376,9.92542839050293,0.4570291340351105,0.380458801984787
1771682515376121600,8.82112158203125,9.999606132507324,0.6340979933738708,0.10049854964017868
1771682515386479900,8.83147998046875,9.65503978729248,0.5790630578994751,-0.15314064919948578
1771682515396838100,8.841838134765625,9.879964828491211,0.4570291340351105,-0.3900300860404968
1771682515407196400,8.852196533203125,9.753145217895508,0.4211367964744568,-0.11724831163883209
1771682515417554700,8.8625546875,9.978070259094238,0.5431707501411438,0.1339980661869049
1771682515427913000,8.872912841796875,9.724431037902832,0.4331009089946747,0.4139583110809326
1771682515438271200,8.883271240234375,9.980463027954102,0.5359922647476196,0.15553347766399384
1771682515448629500,8.89362939453125,9.585647583007812,0.4713860750198364,0.007178467698395252
1771682515458987800,8.90398779296875,10.155138969421387,0.47617170214653015,-0.040677983313798904
1771682515469346000,8.914345947265625,9.76989459991455,0.5240281820297241,-0.1579262912273407
1771682515479704300,8.924704345703125,10.107282638549805,0.4139583110809326,-0.22492532432079315
1771682515490062600,8.9350625,9.954142570495605,0.47617170214653015,0
1771682515500420900,8.9454208984375,9.643074989318848,0.42831525206565857,0.26081767678260803
1771682515510779100,8.955779052734375,10.528419494628906,0.5359922647476196,0.35413774847984314
1771682515521137400,8.966137451171875,9.33440113067627,0.4953143000602722,0.10289137065410614
1771682515531495700,8.97649560546875,10.612168312072754,0.6628118753433228,-0.1866401731967926
1771682515541854000,8.98685400390625,8.74337387084961,0.3278166949748993,-0.3565305769443512
1771682515552212200,8.997212158203125,10.971092224121094,0.5383850932121277,-0.21296121180057526
1771682515562570200,9.0075703125,8.451449394226074,0.4163511395454407,0.38285163044929504
1771682515572928500,9.017928466796874,11.514262199401855,0.5312066078186035,0.031106693670153618
1771682515583287000,9.028287109375,8.484949111938477,0.46420758962631226,0.44027936458587646
1771682515593645300,9.038645263671874,11.047661781311035,0.605384111404419,-0.1459621787071228
1771682515604003300,9.04900341796875,8.599804878234863,0.397208571434021,0.1339980661869049
1771682515614361600,9.059361572265624,11.148160934448242,0.5718846321105957,-0.4211367964744568
1771682515624720000,9.069719970703124,8.50169849395752,0.4163511395454407,-0.04307080805301666
1771682515635078100,9.080078125,10.796415328979492,0.4307080805301666,-0.01196411345154047
1771682515645436400,9.0904365234375,9.047262191772461,0.4426721930503845,0.4019941985607147
1771682515655794700,9.100794677734376,10.583454132080078,0.5048855543136597,0.2392822653055191
1771682515666153000,9.111153076171876,9.375079154968262,0.7010970115661621,0.1746760457754135
1771682515676511200,9.12151123046875,9.951749801635742,0.42352959513664246,-0.4833501875400543
1771682515686869500,9.131869384765626,9.42772102355957,0.6819544434547424,-0.15314064919948578
1771682515697227800,9.142227783203126,9.832108497619629,0.275174617767334,-0.13639089465141296
1771682515707586000,9.1525859375,9.91107177734375,0.6939185857772827,0.4211367964744568
1771682515717944300,9.1629443359375,9.757930755615234,0.3756731450557709,0.22492532432079315
1771682515728302600,9.173302490234375,10.047462463378906,0.6125625967979431,0.31345975399017334
1771682515738660900,9.183660888671875,9.734002113342285,0.30628129839897156,-0.03349951654672623
1771682515749019100,9.19401904296875,10.102497100830078,0.6293123364448547,-0.031106693670153618
1771682515759377400,9.20437744140625,9.681360244750977,0.43549370765686035,-0.36610186100006104
1771682515769735700,9.214735595703125,9.875179290771484,0.5670989751815796,-0.13878370821475983
1771682515780094000,9.225093994140625,9.784252166748047,0.38763725757598877,0.12921242415905
1771682515790452200,9.2354521484375,9.999606132507324,0.4977070987224579,0.41874396800994873
1771682515800810500,9.245810546875,9.923035621643066,0.42352959513664246,0.35413774847984314
1771682515811168800,9.256168701171875,10.107282638549805,0.5670989751815796,0.016749758273363113
1771682515821527000,9.266527099609375,9.547362327575684,0.4331009089946747,-0.35413774847984314
1771682515831885300,9.27688525390625,9.899106979370117,0.4546363055706024,-0.2991028428077698
1771682515842243600,9.28724365234375,9.729216575622559,0.43549370765686035,0.0023928226437419653
1771682515852601900,9.297601806640625,9.856036186218262,0.5048855543136597,0.33020952343940735
1771682515862960000,9.307960205078125,10.080962181091309,0.5383850932121277,0.2273181527853012
1771682515873318400,9.318318359375,9.623932838439941,0.4618147611618042,0.2153540402650833
1771682515883676700,9.3286767578125,10.13599681854248,0.48813581466674805,-0.040677983313798904
1771682515894035000,9.339034912109375,9.588040351867676,0.5096712112426758,-0.11246266216039658
1771682515904393200,9.349393310546875,10.006784439086914,0.5168496966362,-0.30149564146995544
1771682515914751500,9.35975146484375,9.937392234802246,0.4163511395454407,-0.11485548317432404
1771682515925109800,9.37010986328125,10.030712127685547,0.4259224236011505,0.4043870270252228
1771682515935468000,9.380468017578124,9.762716293334961,0.37088751792907715,0.3326023519039154
1771682515945826300,9.390826416015624,10.152746200561523,0.5455635786056519,0.1818545162677765
1771682515956184600,9.4011845703125,9.731609344482422,0.6245267391204834,-0.1339980661869049
1771682515966542800,9.41154296875,9.590433120727539,0.45942193269729614,-0.36610186100006104
1771682515976901000,9.421901123046876,10.186245918273926,0.4546363055706024,-0.17706887423992157
1771682515987259100,9.432259033203126,9.245866775512695,0.4139583110809326,0.05503492057323456
1771682515997617700,9.44261767578125,10.650453567504883,0.6005984544754028,0.33499518036842346
1771682516007976000,9.452975830078126,8.956335067749023,0.3517449200153351,0.2679961323738098
1771682516018334000,9.463333984375,11.10030460357666,0.6173482537269592,0.02632104977965355
1771682516028692200,9.473692138671876,8.305487632751465,0.4618147611618042,0.1866401731967926
1771682516039050500,9.484050537109376,11.430513381958008,0.6364908218383789,-0.5575276613235474
1771682516049408800,9.49440869140625,8.030312538146973,0.4426721930503845,0.09092725813388824
1771682516059767000,9.50476708984375,11.241480827331543,0.4307080805301666,-0.3732803463935852
1771682516070125300,9.515125244140625,8.714659690856934,0.4378865361213684,0.5886343717575073
1771682516080483600,9.525483642578125,10.652846336364746,0.4043870270252228,0.24646073579788208
1771682516090841900,9.535841796875,9.446864128112793,0.6293123364448547,0.32542386651039124
1771682516101200100,9.5462001953125,9.884750366210938,0.4259224236011505,-0.23210379481315613
1771682516111558400,9.556558349609375,10.01874828338623,0.5958128571510315,-0.4163511395454407
1771682516121916700,9.566916748046875,8.989834785461426,0.2584248483181,-0.06699903309345245
1771682516132275000,9.57727490234375,10.798809051513672,0.6221339106559753,0.11006984114646912
1771682516142633200,9.58763330078125,9.040083885192871,0.2847459018230438,0.39481574296951294
1771682516152991500,9.597991455078125,10.85145092010498,0.7657032608985901,0.2560320198535919
1771682516163349800,9.608349853515625,8.827122688293457,0.2273181527853012,-0.040677983313798904
1771682516173708000,9.6187080078125,10.88973617553711,0.729810893535614,0.014356935396790504
1771682516184066300,9.62906640625,8.652446746826172,0.21296121180057526,-0.3732803463935852
1771682516194424600,9.639424560546875,11.052447319030762,0.7034898400306702,-0.20578274130821228
1771682516204782800,9.649782958984375,9.016156196594238,0.24167509377002716,0.064606212079525
1771682516215141000,9.66014111328125,10.84427261352539,0.5623133182525635,0.3206382393836975
1771682516225499400,9.67049951171875,9.138189315795898,0.35413774847984314,0.3565305769443512
1771682516235857700,9.680857666015624,10.856236457824707,0.727418065071106,0.11724831163883209
1771682516246216000,9.6912158203125,9.147761344909668,0.41156548261642456,-0.18424734473228455
1771682516256574200,9.70157421875,10.351350784301758,0.5551348328590393,-0.40677985548973083
1771682516266932500,9.711932373046874,9.030512809753418,0.3517449200153351,-0.038285162299871445
1771682516277290800,9.722290771484374,10.755738258361816,0.5623133182525635,0.2153540402650833
1771682516287649000,9.73264892578125,9.308079719543457,0.4570291340351105,0.39960137009620667
1771682516298007300,9.74300732421875,10.188638687133789,0.5431707501411438,0.0933200865983963
1771682516308365600,9.753365478515626,9.540184020996094,0.4139583110809326,0.1459621787071228
1771682516318723800,9.763723876953126,10.41356372833252,0.519242525100708,-0.13878370821475983
1771682516329082000,9.77408203125,9.454042434692383,0.6436693072319031,-0.22013968229293823
1771682516339440400,9.7844404296875,9.856036186218262,0.4043870270252228,-0.37088751792907715
1771682516349798700,9.794798583984376,9.970891952514648,0.4977070987224579,0.11964113265275955
1771682516360157000,9.805156982421876,9.781859397888184,0.40677985548973083,0.49292147159576416
1771682516370515200,9.81551513671875,10.013962745666504,0.46420758962631226,0.35413774847984314
1771682516380873200,9.825873291015625,10.006784439086914,0.5958128571510315,0.04785645380616188
1771682516391231500,9.8362314453125,9.53779125213623,0.5335994362831116,-0.2727817893028259
1771682516401589800,9.84658984375,9.858428955078125,0.4498506486415863,-0.3613162338733673
1771682516411948000,9.856947998046875,9.741181373596191,0.4977070987224579,0
1771682516422306300,9.867306396484375,10.126425743103027,0.4977070987224579,0.3852444589138031
1771682516432664600,9.87766455078125,9.80817985534668,0.4426721930503845,0.2679961323738098
1771682516443022800,9.88802294921875,10.00439167022705,0.5670989751815796,0.1818545162677765
1771682516453381000,9.898381103515625,9.075976371765137,0.4833501875400543,0.04307080805301666
1771682516463739400,9.908739501953125,10.660024642944336,0.48095735907554626,-0.12921242415905
1771682516474097700,9.91909765625,9.025727272033691,0.46420758962631226,-0.17946170270442963
1771682516484456000,9.9294560546875,10.329814910888672,0.4713860750198364,-0.2105683982372284
1771682516494814200,9.939814208984375,9.135796546936035,0.32303106784820557,0.3732803463935852
1771682516505172500,9.95017236328125,10.794022560119629,0.46420758962631226,0.08853443711996078
1771682516515530800,9.96053076171875,9.384650230407715,0.6556333899497986,0.5048855543136597
1771682516525889000,9.970888916015625,10.305887222290039,0.4953143000602722,-0.4043870270252228
1771682516536247300,9.981247314453125,9.743574142456055,0.6101697683334351,-0.14117653667926788
1771682516546605600,9.99160546875,9.418149948120117,0.32303106784820557,-0.1986042857170105
1771682516556963800,10.0019638671875,10.478170394897461,0.5982056856155396,0.06939185410737991
1771682516567322000,10.012322021484374,9.169296264648438,0.28953152894973755,0.4331009089946747
1771682516577680400,10.022680419921874,11.071590423583984,0.6173482537269592,0.10289137065410614
1771682516588038700,10.03303857421875,8.276773452758789,0.32542386651039124,0.20817556977272034
1771682516598397000,10.04339697265625,11.564512252807617,0.7657032608985901,-0.24885354936122894
1771682516608755200,10.053755126953124,8.329415321350098,0.4498506486415863,-0.1866401731967926
1771682516619113500,10.064113525390624,11.248659133911133,0.7010970115661621,-0.15074782073497772
1771682516629471700,10.0744716796875,8.446663856506348,0.13639089465141296,0.08135596662759781
1771682516639830000,10.084830078125,11.375478744506836,0.6029912829399109,0.4211367964744568
1771682516650188300,10.095188232421876,8.453842163085938,0.3158525824546814,0.37806597352027893
1771682516660546600,10.105546630859376,11.447263717651367,0.7322037220001221,-0.05503492057323456
1771682516670904800,10.11590478515625,8.298309326171875,0.46420758962631226,-0.2847459018230438
1771682516681263000,10.12626318359375,11.145768165588379,0.4953143000602722,-0.2273181527853012
1771682516691621400,10.136621337890626,8.623732566833496,0.3565305769443512,0.16510476171970367
1771682516701979600,10.146979736328126,10.88016414642334,0.6508477330207825,0.1579262912273407
1771682516712338000,10.157337890625,9.135796546936035,0.35892340540885925,0.3613162338733673
1771682516722696200,10.1676962890625,10.65523910522461,0.42352959513664246,0.13878370821475983
1771682516733054200,10.17805419921875,8.987442016601562,0.4953143000602722,0.20578274130821228
1771682516743412500,10.18841259765625,10.777273178100586,0.6628118753433228,-0.3924229145050049
1771682516753770800,10.198770751953125,9.123832702636719,0.4426721930503845,-0.08614161610603333
1771682516764129000,10.20912890625,10.224531173706055,0.39960137009620667,-0.15074782073497772
1771682516774487300,10.2194873046875,9.31047248840332,0.31824541091918945,0.37806597352027893
1771682516784845600,10.229845458984375,10.715060234069824,0.5024927258491516,0.275174617767334
1771682516795203800,10.240203857421875,9.286544799804688,0.607776939868927,0.34695929288864136
1771682516805562000,10.25056201171875,10.332208633422852,0.5048855543136597,-0.49292147159576416
1771682516815920400,10.26092041015625,9.351150512695312,0.5383850932121277,-0.07178468257188797
1771682516826278700,10.271278564453125,10.200602531433105,0.41874396800994873,-0.064606212079525
1771682516836637000,10.281636962890625,9.90149974822998,0.5575276613235474,0.24167509377002716
1771682516846995200,10.2919951171875,9.66221809387207,0.4043870270252228,0.20817556977272034
1771682516857353500,10.302353515625,9.8871431350708,0.4331009089946747,0.15074782073497772
1771682516867711700,10.312711669921875,9.884750366210938,0.45224347710609436,0.12442677468061447
1771682516878070000,10.323070068359375,9.760323524475098,0.7034898400306702,-0.16031911969184875
1771682516888428300,10.33342822265625,9.516255378723145,0.6699903607368469,-0.2512463629245758
1771682516898786600,10.34378662109375,9.633503913879395,0.4139583110809326,-0.33020952343940735
1771682516909144800,10.354144775390624,10.045069694519043,0.3852444589138031,0.2991028428077698
1771682516919503000,10.364503173828124,9.65503978729248,0.380458801984787,0.5120640397071838
1771682516929861400,10.374861328125,10.607382774353027,0.5623133182525635,0.19142581522464752
1771682516940219600,10.3852197265625,9.200403213500977,0.5647061467170715,-0.13160525262355804
1771682516950578000,10.395577880859374,9.937392234802246,0.6029912829399109,-0.4091726839542389
1771682516960936200,10.405936279296874,9.640682220458984,0.43549370765686035,0.004785645287483931
1771682516971294500,10.41629443359375,9.956535339355469,0.5599204897880554,-0.016749758273363113
1771682516981652700,10.42665283203125,9.626325607299805,0.5742774605751038,0.5455635786056519
1771682516992011000,10.437010986328126,9.798608779907227,0.2847459018230438,-0.062213387340307236
1771682517002369300,10.447369384765626,10.037891387939453,0.6819544434547424,0.21774685382843018
1771682517012727600,10.4577275390625,9.044869422912598,0.4163511395454407,-0.08374879509210587
1771682517023085800,10.4680859375,11.277373313903809,0.7872386574745178,-0.380458801984787
1771682517033443800,10.47844384765625,8.090133666992188,0.3326023519039154,-0.009571290574967861
1771682517043802000,10.488802001953125,11.12183952331543,0.4019941985607147,-0.16271193325519562
1771682517054160400,10.499160400390625,8.434700012207031,0.33499518036842346,0.6795616149902344
1771682517064518700,10.5095185546875,11.315658569335938,0.638883650302887,0.07178468257188797
1771682517074877000,10.519876953125,8.592626571655273,0.5312066078186035,0.19381862878799438
1771682517085235200,10.530235107421875,10.590633392333984,0.5718846321105957,-0.49292147159576416
1771682517095593500,10.540593505859375,9.049654960632324,0.6005984544754028,-0.03349951654672623
1771682517105951700,10.55095166015625,10.327422142028809,0.4498506486415863,-0.016749758273363113
1771682517116310000,10.56131005859375,9.501898765563965,0.6029912829399109,0.38285163044929504
1771682517126668300,10.571668212890625,10.183853149414062,0.2727817893028259,0.1339980661869049
1771682517137026600,10.582026611328125,9.432506561279297,0.5814558863639832,0.27756741642951965
1771682517147384800,10.592384765625,10.269994735717773,0.3924229145050049,-0.12681959569454193
1771682517157743000,10.6027431640625,9.731609344482422,0.8279166221618652,-0.16031911969184875
1771682517168101400,10.613101318359375,9.68375301361084,0.4019941985607147,-0.28235307335853577
1771682517178459600,10.623459716796875,9.9469633102417,0.3445664644241333,0.04307080805301666
1771682517188818000,10.63381787109375,9.7938232421875,0.3684946894645691,0.41156548261642456
1771682517199176200,10.64417626953125,10.327422142028809,0.5312066078186035,0.3206382393836975
1771682517209534500,10.654534423828125,9.705288887023926,0.5551348328590393,0.06699903309345245
1771682517219892700,10.664892822265625,9.990034103393555,0.5575276613235474,-0.45942193269729614
1771682517230251000,10.6752509765625,9.68375301361084,0.5527420043945312,-0.13639089465141296
1771682517240609300,10.685609375,10.037891387939453,0.3613162338733673,-0.019142581149935722
1771682517250967600,10.695967529296874,9.975677490234375,0.5814558863639832,0.3397808074951172
1771682517261325800,10.706325927734374,9.714859962463379,0.31345975399017334,0.22013968229293823
1771682517271684000,10.71668408203125,10.03310489654541,0.4905286431312561,0.1746760457754135
1771682517282042400,10.72704248046875,9.652647018432617,0.3326023519039154,0.019142581149935722
1771682517292400600,10.737400634765624,10.439885139465332,0.7992027401924133,-0.24406790733337402
1771682517302759000,10.747759033203126,9.193224906921387,0.37088751792907715,-0.16510476171970367
1771682517313117200,10.7581171875,10.461421012878418,0.4307080805301666,-0.07896314561367035
1771682517323475500,10.768475341796876,9.145368576049805,0.24406790733337402,0.43549370765686035
1771682517333833500,10.77883349609375,10.72702407836914,0.5072783827781677,0.3038884699344635
1771682517344191700,10.789191650390626,9.250652313232422,0.4139583110809326,0.23688943684101105
1771682517354550300,10.79955029296875,10.272387504577637,0.6532405614852905,-0.349352091550827
1771682517364908300,10.809908203125,9.487542152404785,0.35413774847984314,-0.30149564146995544
1771682517375266600,10.8202666015625,10.372885704040527,0.48095735907554626,-0.05024927482008934
1771682517385624800,10.830624755859375,9.42054271697998,0.4331009089946747,0.09571290761232376
1771682517395983000,10.840983154296875,10.159924507141113,0.4211367964744568,0.24646073579788208
1771682517406341400,10.85134130859375,9.643074989318848,0.39481574296951294,0.2273181527853012
1771682517416699600,10.86169970703125,10.13599681854248,0.4450650215148926,0.12921242415905
1771682517427058000,10.872057861328125,10.17428207397461,0.6029912829399109,-0.17946170270442963
1771682517437416200,10.882416259765625,9.293723106384277,0.6915257573127747,-0.2560320198535919
1771682517447774500,10.8927744140625,10.226923942565918,0.363709032535553,-0.2679961323738098
1771682517458132700,10.9031328125,9.265008926391602,0.2225325107574463,0.2225325107574463
1771682517468491000,10.913490966796875,10.813165664672852,0.6029912829399109,0.4713860750198364
1771682517478849300,10.923849365234375,8.915657043457031,0.45224347710609436,0.33499518036842346
1771682517489207600,10.93420751953125,11.131410598754883,0.6532405614852905,-0.31824541091918945
1771682517499565800,10.94456591796875,8.307880401611328,0.5479564070701599,-0.20817556977272034
1771682517509924000,10.954924072265625,11.157732009887695,0.5168496966362,-0.35413774847984314
1771682517520282400,10.965282470703125,8.891729354858398,0.4618147611618042,0.2153540402650833
1771682517530640600,10.975640625,10.470992088317871,0.5096712112426758,0.1986042857170105
1771682517540999000,10.9859990234375,9.456435203552246,0.4259224236011505,0.17946170270442963
1771682517551357200,10.996357177734374,9.765109062194824,0.39960137009620667,0.15074782073497772
1771682517561715500,11.006715576171874,10.418350219726562,0.6628118753433228,-0.20338992774486542
1771682517572073700,11.01707373046875,9.231510162353516,0.5694918036460876,-0.15074782073497772
1771682517582432000,11.027431884765624,10.561919212341309,0.5455635786056519,-0.31345975399017334
1771682517592790300,11.037790283203124,8.944371223449707,0.1579262912273407,0.16271193325519562
1771682517603148500,11.0481484375,10.805987358093262,0.6221339106559753,0.42831525206565857
1771682517613506800,11.0585068359375,9.219545364379883,0.3517449200153351,0.1866401731967926
1771682517623864800,11.06886474609375,10.628918647766113,0.7130611538887024,0.06939185410737991
1771682517634223000,11.07922314453125,9.336793899536133,0.3206382393836975,-0.5072783827781677
1771682517644581400,11.089581298828126,10.109675407409668,0.672383189201355,0
1771682517654939600,11.099939697265626,9.664610862731934,0.33738797903060913,-0.05503492057323456
1771682517665298000,11.1102978515625,10.045069694519043,0.4953143000602722,0.4331009089946747
1771682517675656200,11.12065625,9.958928108215332,0.3756731450557709,0.15314064919948578
1771682517686014500,11.131014404296875,9.370293617248535,0.44745782017707825,0.275174617767334
1771682517696372700,11.141372802734375,10.293923377990723,0.5694918036460876,-0.04307080805301666
1771682517706731000,11.15173095703125,9.463613510131836,0.6460621356964111,-0.24646073579788208
1771682517717089300,11.16208935546875,9.966106414794922,0.48813581466674805,-0.13160525262355804
1771682517727447600,11.172447509765625,9.236295700073242,0.2991028428077698,0.02871387079358101
1771682517737805800,11.182805908203125,10.320243835449219,0.5096712112426758,0.4785645306110382
1771682517748164000,11.1931640625,9.394221305847168,0.3684946894645691,0.2919243574142456
1771682517758522400,11.2035224609375,10.41356372833252,0.6891329288482666,0.13160525262355804
1771682517768880600,11.213880615234375,8.997013092041016,0.40677985548973083,-0.380458801984787
1771682517779239000,11.224239013671875,10.49970531463623,0.6125625967979431,-0.14356936514377594
1771682517789597200,11.23459716796875,9.095118522644043,0.4713860750198364,0.019142581149935722
1771682517799955500,11.24495556640625,10.628918647766113,0.5982056856155396,0.30149564146995544
1771682517810313700,11.255313720703125,9.164510726928711,0.349352091550827,0.24885354936122894
1771682517820672000,11.265672119140625,10.380064964294434,0.638883650302887,0.1986042857170105
1771682517831030300,11.2760302734375,9.18843936920166,0.4307080805301666,0.05503492057323456
1771682517841388500,11.286388427734375,10.583454132080078,0.8374879360198975,-0.2727817893028259
1771682517851746800,11.296746826171875,9.056833267211914,0.48095735907554626,-0.07657032459974289
1771682517862105000,11.30710498046875,10.521241188049316,0.397208571434021,-0.11006984114646912
1771682517872463000,11.317463134765624,9.207581520080566,0.39481574296951294,0.4307080805301666
1771682517882821400,11.3278212890625,10.514062881469727,0.45942193269729614,0.22013968229293823
1771682517893180000,11.338179931640624,9.521040916442871,0.5575276613235474,0.2273181527853012
1771682517903538000,11.348537841796874,10.013962745666504,0.5886343717575073,-0.4163511395454407
1771682517913896200,11.358896240234374,9.628718376159668,0.550349235534668,-0.2225325107574463
1771682517924254500,11.36925439453125,9.899106979370117,0.39481574296951294,-0.10289137065410614
1771682517934612700,11.37961279296875,10.030712127685547,0.5479564070701599,0.3565305769443512
1771682517944971000,11.389970947265626,9.736394882202148,0.3732803463935852,0.19381862878799438
1771682517955329300,11.400329345703126,9.956535339355469,0.5096712112426758,0.12203395366668701
1771682517965687600,11.4106875,9.741181373596191,0.4139583110809326,0.09092725813388824
1771682517976045800,11.4210458984375,10.102497100830078,0.6508477330207825,-0.13639089465141296
1771682517986404000,11.431404052734376,9.686145782470703,0.5910272002220154,-0.18903298676013947
1771682517996762400,11.441762451171876,9.913464546203613,0.36610186100006104,-0.3038884699344635
1771682518007120600,11.45212060546875,9.616754531860352,0.37806597352027893,0.3206382393836975
1771682518017479000,11.46247900390625,10.109675407409668,0.380458801984787,0.42831525206565857
1771682518027837200,11.472837158203125,10.02592658996582,0.5742774605751038,0.32542386651039124
1771682518038195500,11.483195556640625,9.779465675354004,0.5312066078186035,-0.2512463629245758
1771682518048553700,11.4935537109375,9.65503978729248,0.5958128571510315,-0.4091726839542389
1771682518058912000,11.503912109375,9.652647018432617,0.4546363055706024,-0.04546362906694412
1771682518069270300,11.514270263671875,10.222138404846191,0.46899324655532837,0.1698904037475586
1771682518079628500,11.524628662109375,9.779465675354004,0.4713860750198364,0.33738797903060913
1771682518089986800,11.53498681640625,9.891928672790527,0.4043870270252228,0.08135596662759781
1771682518100345000,11.545344970703125,9.578469276428223,0.4737788736820221,0.11006984114646912
1771682518110703400,11.555703369140625,10.234102249145508,0.5790630578994751,-0.08614161610603333
1771682518121061600,11.5660615234375,9.66939640045166,0.6699903607368469,-0.17946170270442963
1771682518131420000,11.576419921875,9.923035621643066,0.3924229145050049,-0.3038884699344635
1771682518141778200,11.586778076171875,9.561718940734863,0.39481574296951294,0.059820566326379776
1771682518152136200,11.59713623046875,10.006784439086914,0.44745782017707825,0.4953143000602722
1771682518162494500,11.607494384765625,10.131211280822754,0.4426721930503845,0.2991028428077698
1771682518172852700,11.617852783203125,10.016355514526367,0.519242525100708,-0.040677983313798904
1771682518183211000,11.6282109375,9.592825889587402,0.607776939868927,-0.4450650215148926
1771682518193569300,11.6385693359375,9.621540069580078,0.5216353535652161,-0.16271193325519562
1771682518203927600,11.648927490234374,10.15753173828125,0.3684946894645691,-0.02871387079358101
1771682518214285800,11.659285888671874,9.844072341918945,0.5024927258491516,0.349352091550827
1771682518224644000,11.66964404296875,9.860821723937988,0.44745782017707825,0.15553347766399384
1771682518235002400,11.68000244140625,9.724431037902832,0.42352959513664246,0.24646073579788208
1771682518245360600,11.690360595703124,9.961320877075195,0.4905286431312561,0.02392822690308094
1771682518255719000,11.700718994140624,10.104889869689941,0.6364908218383789,-0.25363919138908386
1771682518266077200,11.7110771484375,9.535398483276367,0.519242525100708,-0.22013968229293823
1771682518276435500,11.721435546875,9.927821159362793,0.3756731450557709,-0.08614161610603333
1771682518286793700,11.731793701171876,9.621540069580078,0.33499518036842346,0.5264210104942322
1771682518297152000,11.742152099609376,10.437492370605469,0.41156548261642456,0.3732803463935852
1771682518307510300,11.75251025390625,9.664610862731934,0.6436693072319031,0.1986042857170105
1771682518317868500,11.76286865234375,9.927821159362793,0.5814558863639832,-0.4833501875400543
1771682518328226800,11.773226806640626,9.308079719543457,0.48574298620224,-0.20099709928035736
1771682518338585000,11.783585205078126,10.12881851196289,0.4139583110809326,-0.007178467698395252
1771682518348943400,11.793943359375,9.858428955078125,0.5934200286865234,0.2679961323738098
1771682518359301600,11.804301513671875,9.92542839050293,0.4019941985607147,0.23210379481315613
1771682518369660000,11.814659912109375,9.681360244750977,0.46420758962631226,0.20578274130821228
1771682518380018200,11.82501806640625,9.616754531860352,0.43549370765686035,0.1052841991186142
1771682518390376400,11.83537646484375,10.269994735717773,0.6915257573127747,-0.20817556977272034
1771682518400734500,11.845734375,9.53779125213623,0.5120640397071838,-0.20099709928035736
1771682518411092700,11.8560927734375,9.820143699645996,0.34217363595962524,-0.20817556977272034
1771682518421451000,11.866450927734375,9.635896682739258,0.40677985548973083,0.33499518036842346
1771682518431809300,11.876809326171875,10.360921859741211,0.39481574296951294,0.31106695532798767
1771682518442167600,11.88716748046875,9.774680137634277,0.5120640397071838,0.29431718587875366
1771682518452525800,11.89752587890625,9.7938232421875,0.5407779216766357,-0.11246266216039658
1771682518462884000,11.907884033203125,9.844072341918945,0.5551348328590393,-0.40677985548973083
1771682518473242400,11.918242431640625,9.736394882202148,0.4331009089946747,-0.11246266216039658
1771682518483600600,11.9286005859375,10.037891387939453,0.4426721930503845,0.1052841991186142
1771682518493959000,11.938958984375,9.564111709594727,0.48813581466674805,0.3684946894645691
1771682518504317200,11.949317138671875,10.17428207397461,0.49292147159576416,0.05742774158716202
1771682518514675500,11.959675537109375,9.540184020996094,0.4259224236011505,0.19621145725250244
1771682518525033700,11.97003369140625,10.140782356262207,0.45224347710609436,0.014356935396790504
1771682518535392000,11.98039208984375,9.863214492797852,0.763310432434082,-0.20817556977272034
1771682518545750300,11.990750244140624,9.616754531860352,0.41874396800994873,-0.32303106784820557
1771682518556108500,12.001108642578124,9.822537422180176,0.3613162338733673,-0.007178467698395252
1771682518566466800,12.011466796875,9.7938232421875,0.33020952343940735,0.5623133182525635
1771682518576825000,12.0218251953125,10.559526443481445,0.5264210104942322,0.3086741268634796
1771682518587183400,12.032183349609374,9.32722282409668,0.550349235534668,0.040677983313798904
1771682518597541600,12.042541748046874,10.207781791687012,0.5359922647476196,-0.4546363055706024
1771682518607900000,12.05289990234375,9.207581520080566,0.49292147159576416,-0.11246266216039658
1771682518618258200,12.063258056640626,10.487741470336914,0.4666004180908203,-0.11246266216039658
1771682518628616400,12.073616455078126,9.437292098999023,0.46420758962631226,0.23210379481315613
1771682518638974700,12.083974609375,9.923035621643066,0.4546363055706024,0.22971096634864807
1771682518649332700,12.094332763671876,9.729216575622559,0.5072783827781677,0.22492532432079315
1771682518659691000,12.10469091796875,10.109675407409668,0.46420758962631226,0.03349951654672623
1771682518670049500,12.115049560546876,9.875179290771484,0.5886343717575073,-0.18903298676013947
1771682518680407600,12.125407470703125,9.547362327575684,0.638883650302887,-0.20817556977272034
1771682518690765800,12.135765869140625,9.868000984191895,0.39481574296951294,-0.23688943684101105
1771682518701124000,12.1461240234375,9.91825008392334,0.3684946894645691,0.31345975399017334
1771682518711482400,12.156482421875,9.8871431350708,0.397208571434021,0.40677985548973083
1771682518721840600,12.166840576171875,10.071390151977539,0.6269195079803467,0.2679961323738098
1771682518732199000,12.177198974609375,9.762716293334961,0.5527420043945312,-0.11006984114646912
1771682518742557200,12.18755712890625,9.846465110778809,0.48813581466674805,-0.3613162338733673
1771682518752915500,12.19791552734375,9.647860527038574,0.3613162338733673,-0.05742774158716202
1771682518763273700,12.208273681640625,10.124032974243164,0.6125625967979431,-0.009571290574967861
1771682518773632000,12.218632080078125,9.53061294555664,0.47617170214653015,0.3732803463935852
1771682518783990300,12.228990234375,10.052248001098633,0.3852444589138031,0.1339980661869049
1771682518794348500,12.2393486328125,9.702896118164062,0.4546363055706024,0.24885354936122894
1771682518804706800,12.249706787109375,10.234102249145508,0.5670989751815796,-0.064606212079525
1771682518815065000,12.260065185546875,9.681360244750977,0.641276478767395,-0.20578274130821228
1771682518825423400,12.27042333984375,9.547362327575684,0.3900300860404968,-0.3038884699344635
1771682518835781600,12.28078173828125,10.006784439086914,0.4378865361213684,0.03349951654672623
1771682518846140000,12.291139892578125,9.915857315063477,0.38763725757598877,0.3900300860404968
1771682518856498200,12.301498291015625,10.090533256530762,0.4953143000602722,0.363709032535553
1771682518866856400,12.3118564453125,9.657432556152344,0.5120640397071838,0.16271193325519562
1771682518877214700,12.322214599609374,9.930213928222656,0.6340979933738708,-0.46899324655532837
1771682518887572700,12.33257275390625,9.712467193603516,0.46420758962631226,-0.21774685382843018
1771682518897931000,12.342930908203124,9.920642852783203,0.349352091550827,-0.038285162299871445
1771682518908289500,12.35328955078125,9.913464546203613,0.607776939868927,0.29431718587875366
1771682518918647600,12.3636474609375,9.853643417358398,0.4043870270252228,0.24406790733337402
1771682518929005800,12.374005859375,9.930213928222656,0.4307080805301666,0.22492532432079315
1771682518939364000,12.384364013671876,9.760323524475098,0.4211367964744568,0.08614161610603333
1771682518949722400,12.394722412109376,9.975677490234375,0.7776673436164856,-0.34217363595962524
1771682518960080600,12.40508056640625,9.499505996704102,0.46420758962631226,-0.15314064919948578
1771682518970439000,12.41543896484375,10.047462463378906,0.31824541091918945,-0.13639089465141296
1771682518980797200,12.425797119140626,9.609575271606445,0.41156548261642456,0.32542386651039124
1771682518991155500,12.436155517578126,10.1814603805542,0.5120640397071838,0.2632105052471161
1771682519001513700,12.446513671875,9.738788604736328,0.5814558863639832,0.33499518036842346
1771682519011872000,12.4568720703125,9.937392234802246,0.4833501875400543,-0.21296121180057526
1771682519022230300,12.467230224609375,9.91825008392334,0.6317051649093628,-0.3852444589138031
1771682519032588500,12.477588623046875,9.513862609863281,0.41874396800994873,-0.10049854964017868
1771682519042946800,12.48794677734375,10.107282638549805,0.5000999569892883,0.12921242415905
1771682519053305000,12.49830517578125,9.638289451599121,0.4953143000602722,0.3038884699344635
1771682519063663400,12.508663330078125,10.360921859741211,0.4426721930503845,0.11246266216039658
1771682519074021600,12.519021728515625,9.274580955505371,0.4211367964744568,0.24885354936122894
1771682519084380000,12.5293798828125,10.432706832885742,0.5527420043945312,-0.11724831163883209
1771682519094738200,12.53973828125,9.42772102355957,0.7322037220001221,-0.22971096634864807
1771682519105096400,12.550096435546875,9.896714210510254,0.37806597352027893,-0.2512463629245758
1771682519115454700,12.560454833984375,9.638289451599121,0.33499518036842346,0.17706887423992157
1771682519125812700,12.570812744140625,10.028319358825684,0.397208571434021,0.33499518036842346
1771682519136171000,12.5811708984375,9.91107177734375,0.5527420043945312,0.3326023519039154
1771682519146529500,12.591529541015625,9.760323524475098,0.4666004180908203,0.17228323221206665
1771682519156887600,12.601887451171875,10.303494453430176,0.5670989751815796,-0.40677985548973083
1771682519167245800,12.612245849609375,9.422935485839844,0.5527420043945312,-0.27756741642951965
1771682519177604000,12.62260400390625,9.899106979370117,0.3924229145050049,-0.02153540402650833
1771682519187962400,12.63296240234375,10.009177207946777,0.4618147611618042,0.4546363055706024
1771682519198320600,12.643320556640624,9.951749801635742,0.4498506486415863,0.2225325107574463
1771682519208679000,12.653678955078124,9.896714210510254,0.4546363055706024,0.1052841991186142
1771682519219037200,12.664037109375,9.607182502746582,0.4546363055706024,0.08614161610603333
1771682519229395500,12.6743955078125,10.286744117736816,0.7154539823532104,-0.2392822653055191
1771682519239753700,12.684753662109374,9.470791816711426,0.5024927258491516,-0.14117653667926788
1771682519250112000,12.695112060546874,10.047462463378906,0.349352091550827,-0.23210379481315613
1771682519260470300,12.70547021484375,9.523433685302734,0.45224347710609436,0.33738797903060913
1771682519270828500,12.71582861328125,10.085747718811035,0.48574298620224,0.3278166949748993
1771682519281186800,12.726186767578126,9.836894035339355,0.5288137793540955,0.32542386651039124
1771682519291545000,12.736545166015626,10.001998901367188,0.5000999569892883,-0.16510476171970367
1771682519301903400,12.7469033203125,9.906285285949707,0.6364908218383789,-0.41156548261642456
1771682519312261600,12.75726171875,9.58325481414795,0.38285163044929504,-0.17706887423992157
1771682519322620000,12.767619873046876,10.124032974243164,0.48095735907554626,0.10049854964017868
1771682519332978200,12.777978271484375,9.762716293334961,0.45942193269729614,0.3852444589138031
1771682519343336400,12.78833642578125,10.248459815979004,0.5096712112426758,0.05503492057323456
1771682519353694700,12.79869482421875,9.511469841003418,0.4211367964744568,0.2584248483181
1771682519364052700,12.809052734375,9.848857879638672,0.4019941985607147,0.01196411345154047
1771682519374411000,12.819410888671875,10.066604614257812,0.794417142868042,-0.2512463629245758
1771682519384769300,12.829769287109375,9.41336441040039,0.2799602448940277,-0.31824541091918945
1771682519395127600,12.84012744140625,10.159924507141113,0.4546363055706024,0.05742774158716202
1771682519405485800,12.85048583984375,9.382257461547852,0.34695929288864136,0.4211367964744568
1771682519415844000,12.860843994140625,10.533205032348633,0.6101697683334351,0.27756741642951965
1771682519426202400,12.871202392578125,9.585647583007812,0.4307080805301666,0.16031911969184875
1771682519436560600,12.881560546875,10.112068176269531,0.6891329288482666,-0.3924229145050049
1771682519446919000,12.8919189453125,9.501898765563965,0.4737788736820221,-0.2871387302875519
1771682519457277200,12.902277099609375,9.789037704467773,0.40677985548973083,-0.0526420995593071
1771682519467635500,12.912635498046875,10.255638122558594,0.5431707501411438,0.2919243574142456
1771682519477993700,12.92299365234375,9.379864692687988,0.5000999569892883,0.24885354936122894
1771682519488352000,12.93335205078125,10.339386940002441,0.4977070987224579,0.16510476171970367
1771682519498710300,12.943710205078125,9.035298347473145,0.34217363595962524,0.1746760457754135
1771682519509068500,12.954068603515625,10.925628662109375,0.763310432434082,-0.22492532432079315
1771682519519426800,12.9644267578125,8.63330364227295,0.5335994362831116,-0.17228323221206665
1771682519529785000,12.97478515625,10.535597801208496,0.4019941985607147,-0.2153540402650833
1771682519540143400,12.985143310546874,8.951549530029297,0.33499518036842346,0.35413774847984314
1771682519550501600,12.995501708984374,10.731809616088867,0.5407779216766357,0.3326023519039154
1771682519560860000,13.00585986328125,9.253045082092285,0.41874396800994873,0.3732803463935852
1771682519571218200,13.01621826171875,10.334601402282715,0.5814558863639832,-0.17706887423992157
1771682519581576400,13.026576416015626,9.437292098999023,0.5694918036460876,-0.4378865361213684
1771682519591934500,13.0369345703125,9.796216011047363,0.5120640397071838,-0.20099709928035736
1771682519602292700,13.047292724609376,9.987641334533691,0.33499518036842346,0.09571290761232376
1771682519612651000,13.057651123046876,9.870393753051758,0.6604190468788147,0.3397808074951172
1771682519623009300,13.06800927734375,10.009177207946777,0.46420758962631226,0.064606212079525
1771682519633367600,13.078367431640626,9.53061294555664,0.4546363055706024,0.18903298676013947
1771682519643725800,13.088725830078126,10.191031455993652,0.5407779216766357,0.014356935396790504
1771682519654084000,13.099083984375,9.68375301361084,0.7322037220001221,-0.26081767678260803
1771682519664442400,13.1094423828125,9.944570541381836,0.4163511395454407,-0.15553347766399384
1771682519674800600,13.119800537109375,9.521040916442871,0.3924229145050049,0.0526420995593071
1771682519685159000,13.130158935546875,10.176674842834473,0.5000999569892883,0.46899324655532837
1771682519695517200,13.14051708984375,9.650253295898438,0.380458801984787,0.35892340540885925
1771682519705875500,13.15087548828125,10.41356372833252,0.5790630578994751,0.2799602448940277
1771682519716233700,13.161233642578125,9.28893756866455,0.5048855543136597,-0.3397808074951172
1771682519726592000,13.171592041015625,10.327422142028809,0.5862415432929993,-0.3278166949748993
1771682519736950300,13.1819501953125,9.114261627197266,0.15314064919948578,0.009571290574967861
1771682519747308500,13.19230859375,10.652846336364746,0.6843472719192505,0.18424734473228455
1771682519757666800,13.202666748046875,9.066405296325684,0.3852444589138031,0.2727817893028259
1771682519768025000,13.213025146484375,10.62413215637207,0.5599204897880554,0.1339980661869049
1771682519778383400,13.22338330078125,9.231510162353516,0.31824541091918945,0.20099709928035736
1771682519788741600,13.23374169921875,10.308279991149902,0.7010970115661621,-0.1698904037475586
1771682519799100000,13.244099853515625,9.485149383544922,0.5312066078186035,-0.11485548317432404
1771682519809458200,13.254458251953125,10.236495018005371,0.3924229145050049,-0.22492532432079315
1771682519819816200,13.264816162109375,9.375079154968262,0.5048855543136597,0.12203395366668701
1771682519830174500,13.275174560546875,10.17428207397461,0.3732803463935852,0.3158525824546814
1771682519840532700,13.28553271484375,9.384650230407715,0.4737788736820221,0.48813581466674805
1771682519850891000,13.29589111328125,10.578668594360352,0.550349235534668,0
