time,seconds_elapsed,z,y,x
1771682506683029200,0.128029296875,0,0,0
1771682506703746000,0.14874609375,-0.2041940689086914,-0.20324745774269104,-0.04074174165725708
1771682506714104300,0.159104248046875,0.24346637725830078,-0.1418253779411316,0.37832483649253845
1771682506724462600,0.169462646484375,-0.17850208282470703,0.13532614707946777,0.36219629645347595
1771682506734820900,0.17982080078125,-0.17867088317871094,-0.030660539865493774,0.2007058560848236
1771682506755537400,0.200537353515625,0.19384002685546875,0.27950817346572876,-0.42300641536712646
1771682506765895700,0.210895751953125,-0.6636104583740234,-0.18507736921310425,-0.18605123460292816
1771682506796970500,0.241970458984375,0.07138538360595703,-0.03355848789215088,0.1251685619354248
1771682506807328800,0.252328857421875,0.030551910400390625,-0.2010723054409027,0.3710987865924835
1771682506817687000,0.26268701171875,0.05727386474609375,0.1573745608329773,-0.06271572411060333
1771682506828045300,0.27304541015625,-0.03812599182128906,0.1448614001274109,-0.1843828558921814
1771682506838403600,0.283403564453125,-0.26454925537109375,-0.3106825351715088,-0.324460506439209
1771682506848761900,0.293761962890625,0.5955438613891602,0.26371580362319946,-0.14935550093650818
1771682506859120000,0.3041201171875,-1.2703227996826172,-0.2591947317123413,0.2106454223394394
1771682506869478400,0.314478515625,1.745762825012207,-0.1573418378829956,0.4610670506954193
1771682506879836700,0.324836669921875,-1.2239208221435547,0.12555831670761108,0.457150936126709
1771682506890195000,0.33519482421875,1.2636680603027344,0.26510876417160034,-0.6437731981277466
1771682506900553200,0.34555322265625,-1.6168880462646484,-0.30854231119155884,-0.16878177225589752
1771682506910911500,0.355911376953125,1.64630126953125,0.10720217227935791,-0.3272271752357483
1771682506921269800,0.366269775390625,-1.5868396759033203,-0.0020492076873779297,0.21699093282222748
1771682506931628300,0.376628173828125,1.2883176803588867,-0.1240338385105133,0.2439459264278412
1771682506941986600,0.386986572265625,-0.8204536437988281,0.03958994150161743,0.27261656522750854
1771682506952344800,0.3973447265625,0.5302724838256836,0.1321536898612976,0.0036287978291511536
1771682506962703000,0.407703125,-0.7185258865356445,-0.28518426418304443,0.031200921162962914
1771682506973061400,0.418061279296875,1.2053766250610352,0.1813482642173767,-0.2993104159832001
1771682506983419600,0.428419677734375,-1.305196762084961,0.13668566942214966,-0.31840580701828003
1771682506993778000,0.43877783203125,0.5454416275024414,-0.3242865800857544,-0.20025783777236938
1771682507004136200,0.44913623046875,-0.4498310089111328,-0.024176448583602905,0.6155025959014893
1771682507014494500,0.459494384765625,0.6566877365112305,0.12247246503829956,0.15350785851478577
1771682507024852700,0.469852783203125,-0.44026947021484375,-0.129229336977005,0.32852813601493835
1771682507035211000,0.4802109375,0.48121070861816406,0.11325407028198242,-0.4568440616130829
1771682507045569300,0.4905693359375,-0.6209087371826172,0.1964651346206665,-0.3240627348423004
1771682507055927600,0.500927490234375,0.17580604553222656,-0.3769351541996002,-0.16030746698379517
1771682507066285800,0.511285888671875,0.23641490936279297,0.07330507040023804,0.32224079966545105
1771682507076644000,0.52164404296875,-0.14501285552978516,0.22534149885177612,0.08635379374027252
1771682507087002400,0.53200244140625,-0.15073108673095703,-0.17440882325172424,0.19296592473983765
1771682507097360600,0.542360595703125,0.13776206970214844,-0.016345888376235962,0.22105994820594788
1771682507107719000,0.552718994140625,-0.005671501159667969,0.16855329275131226,-0.163854718208313
1771682507118077200,0.5630771484375,-0.12473583221435547,-0.06437069177627563,-0.3452390432357788
1771682507128435500,0.573435546875,-0.058762550354003906,-0.06059080362319946,-0.2199992537498474
1771682507138793700,0.583793701171875,-0.062140464782714844,0.10229170322418213,-0.04321148991584778
1771682507149152000,0.594152099609375,-0.15677452087402344,-0.2953057289123535,0.41052693128585815
1771682507159510300,0.60451025390625,0.544464111328125,-0.012942969799041748,0.431925505399704
1771682507169868500,0.61486865234375,-0.12994384765625,0.2450922131538391,0.03466501086950302
1771682507180226800,0.625226806640625,-0.1765117645263672,-0.029551684856414795,-0.4791995882987976
1771682507190585000,0.635585205078125,0.014619827270507812,-0.1720864474773407,-0.17608003318309784
1771682507200943400,0.645943359375,0.20905780792236328,0.07968777418136597,-0.16646769642829895
1771682507211301600,0.656301513671875,0.05013465881347656,-0.05532833933830261,0.17453229427337646
1771682507221660000,0.666659912109375,0.26752471923828125,-0.1858372986316681,0.4113042652606964
1771682507232018200,0.67701806640625,-0.1366710662841797,0.12987294793128967,-0.012560131028294563
1771682507242376400,0.68737646484375,-0.1553363800048828,-0.14021006226539612,-0.014013976790010929
1771682507252734700,0.697734619140625,0.357421875,-0.2343885600566864,0.03427283465862274
1771682507263093000,0.708093017578125,0.07845401763916016,0.35042130947113037,-0.22603799402713776
1771682507273451500,0.718451416015625,-0.0663595199584961,-0.12564846873283386,-0.4636995494365692
1771682507283809800,0.728809814453125,-0.31222057342529297,-0.26232409477233887,0.1713949739933014
1771682507294168000,0.73916796875,0.8624057769775391,0.17948949337005615,0.38963761925697327
1771682507304526300,0.7495263671875,-0.7333641052246094,-0.07500264048576355,0.19284780323505402
1771682507314884600,0.759884521484375,0.9076032638549805,0.0012739896774291992,0.20689769089221954
1771682507325243000,0.770242919921875,-0.9176673889160156,0.08582127094268799,-0.42018020153045654
1771682507335601200,0.78060107421875,0.8255739212036133,0.09369611740112305,-0.5331840515136719
1771682507345959400,0.79095947265625,-1.4536256790161133,-0.2868384122848511,0.23682789504528046
1771682507356317700,0.801317626953125,1.7780895233154297,0.2611776888370514,0.08462259918451309
1771682507366676000,0.811676025390625,-1.4376564025878906,-0.024979740381240845,0.35171809792518616
1771682507377034200,0.8220341796875,0.9010725021362305,-0.17595332860946655,0.12836816906929016
1771682507387392500,0.832392578125,-0.6235742568969727,0.07901886105537415,0.2182489037513733
1771682507397750800,0.842750732421875,0.3925037384033203,0.21901729702949524,-0.4352673292160034
1771682507408109000,0.853109130859375,-0.5354833602905273,-0.1490759253501892,-0.13454562425613403
1771682507418467300,0.86346728515625,0.4394264221191406,-0.0603373646736145,-0.19351299107074738
1771682507428825600,0.87382568359375,-0.35724639892578125,0.1417486071586609,0.18732133507728577
1771682507439184000,0.884183837890625,0.03235912322998047,-0.3348930776119232,0.39525410532951355
1771682507449542100,0.894542236328125,0.3789644241333008,0.3166877031326294,0.41617536544799805
1771682507459900400,0.904900390625,-0.22577381134033203,0.052381157875061035,-0.3849905729293823
1771682507470258700,0.9152587890625,-0.10950660705566406,0.00959843397140503,-0.15727482736110687
1771682507480617000,0.925616943359375,-0.04665946960449219,-0.2295544147491455,-0.1977073848247528
1771682507490975200,0.935975341796875,0.010614395141601562,0.3619086444377899,0.061223551630973816
1771682507501333500,0.94633349609375,-0.5471782684326172,-0.34411412477493286,0.2985478639602661
1771682507511691800,0.95669189453125,0.9413661956787109,0.04980725049972534,0.28153473138809204
1771682507522050000,0.967050048828125,-0.7341194152832031,0.12014812231063843,-0.0272408165037632
1771682507532408300,0.977408203125,0.3999748229980469,-0.09395784139633179,0.010574067011475563
1771682507542766600,0.9877666015625,-0.16275787353515625,0.046449512243270874,-0.14186592400074005
1771682507553124900,0.998124755859375,0.26818370819091797,0.1751880943775177,-0.3527732491493225
1771682507563483100,1.008483154296875,-0.6209955215454102,-0.28645455837249756,-0.00640525296330452
1771682507573841400,1.01884130859375,0.35170650482177734,-0.15464308857917786,0.4063701629638672
1771682507584199700,1.02919970703125,0.1505565643310547,0.17490988969802856,0.24566450715065002
1771682507594558000,1.039557861328125,-0.1508035659790039,-0.10995107889175415,0.09535616636276245
1771682507604916200,1.049916259765625,0.37146759033203125,-0.054759830236434937,-0.3772759735584259
1771682507615274500,1.0602744140625,-0.37097644805908203,0.30328935384750366,-0.46295079588890076
1771682507625632800,1.0706328125,-0.1515665054321289,-0.22539982199668884,-0.17180034518241882
1771682507635991000,1.080990966796875,0.26667308807373047,-0.08570656180381775,0.36256515979766846
1771682507646349300,1.091349365234375,-0.055759429931640625,0.18749207258224487,0.16700312495231628
1771682507656707600,1.10170751953125,-0.05043506622314453,-0.06547343730926514,0.0251835435628891
1771682507667065900,1.11206591796875,-0.06173896789550781,-0.1621444821357727,0.13744042813777924
1771682507677424000,1.122424072265625,0.18636322021484375,0.2614670395851135,-0.22763967514038086
1771682507687782400,1.132782470703125,-0.3768634796142578,-0.008606016635894775,-0.29843541979789734
1771682507698140700,1.143140625,0.486785888671875,-0.19840365648269653,-0.1584874838590622
1771682507708499000,1.1534990234375,0.0768423080444336,0.07828852534294128,0.18564404547214508
1771682507718857200,1.163857177734375,-0.24849700927734375,-0.12613043189048767,0.3176416754722595
1771682507729215500,1.174215576171875,0.16621875762939453,-0.058697670698165894,0.2734411954879761
1771682507739574000,1.184573974609375,0.36129188537597656,0.2780842185020447,-0.0721869170665741
1771682507749932300,1.194932373046875,-0.9147768020629883,0.07170763611793518,-0.493450403213501
1771682507760290600,1.20529052734375,0.5491466522216797,-0.23017656803131104,-0.07195311784744263
1771682507770648800,1.21564892578125,-0.47286415100097656,0.004134029150009155,0.09742381423711777
1771682507781007000,1.226007080078125,0.5271472930908203,0.17961111664772034,0.18229129910469055
1771682507791365400,1.236365478515625,-0.6583385467529297,-0.3695123493671417,0.3086444139480591
1771682507801723600,1.2467236328125,0.9172487258911133,0.2119150161743164,0.039672523736953735
1771682507812082000,1.25708203125,-1.2440614700317383,0.018466144800186157,0.17660430073738098
1771682507822440200,1.267440185546875,1.095768928527832,-0.16006183624267578,-0.30357277393341064
1771682507832798500,1.277798583984375,-0.4958038330078125,0.2400597631931305,0.08538080006837845
1771682507843156700,1.28815673828125,-0.16884231567382812,-0.05410832166671753,-0.4560834467411041
1771682507853515000,1.298514892578125,0.04844188690185547,-0.24053561687469482,0.45090731978416443
1771682507863873300,1.308873291015625,-0.06816768646240234,-0.032719433307647705,0.5079933404922485
1771682507874231600,1.3192314453125,0.4764690399169922,0.3658798336982727,0.1303408145904541
1771682507884589800,1.32958984375,-0.9620532989501953,-0.2944813072681427,-0.06725222617387772
1771682507894948000,1.339947998046875,1.282236099243164,0.2865693271160126,-0.4193921387195587
1771682507905306400,1.350306396484375,-1.4520902633666992,-0.09915956854820251,-0.16238905489444733
1771682507915664600,1.36066455078125,1.1932945251464844,-0.12111926078796387,0.13157600164413452
1771682507926023000,1.37102294921875,-0.8336610794067383,-0.17940467596054077,0.3684026300907135
1771682507936381200,1.381381103515625,1.059885025024414,0.3297244608402252,0.0753524973988533
1771682507946739500,1.391739501953125,-1.4099416732788086,-0.40354281663894653,0.10738950967788696
1771682507957097700,1.40209765625,1.618208885192871,0.14741653203964233,-0.014592020772397518
1771682507967456000,1.4124560546875,-1.3784666061401367,0.1394038200378418,-0.3704133629798889
1771682507977814300,1.422814208984375,0.9635734558105469,-0.14889615774154663,-0.29127952456474304
1771682507988172500,1.433172607421875,-0.983555793762207,-0.1809811294078827,0.08364477753639221
1771682507998530800,1.44353076171875,1.184591293334961,0.1740940511226654,0.20343971252441406
1771682508008889000,1.45388916015625,-1.1181516647338867,-0.24258975684642792,0.3576088547706604
1771682508019247400,1.464247314453125,1.3812294006347656,0.13647648692131042,0.08398498594760895
1771682508029605600,1.474605712890625,-1.0157384872436523,0.16378304362297058,-0.4028892517089844
1771682508039964000,1.4849638671875,0.3906517028808594,-0.0701378881931305,-0.47408825159072876
1771682508050322200,1.495322265625,-0.4719696044921875,-0.24786850810050964,0.13365258276462555
1771682508060680400,1.505680419921875,0.595545768737793,0.31913942098617554,0.018720468506217003
1771682508071038700,1.516038818359375,-0.7935714721679688,-0.18870878219604492,0.28881722688674927
1771682508081397000,1.52639697265625,0.45928096771240234,-0.0499519407749176,0.133619025349617
1771682508091755300,1.53675537109375,-0.17592239379882812,0.1951139271259308,0.021989649161696434
1771682508102113500,1.547113525390625,-0.11763858795166016,-0.10319557785987854,-0.24623750150203705
1771682508112471800,1.557471923828125,0.18491172790527344,-0.012201964855194092,-0.10213160514831543
1771682508122830000,1.567830078125,-0.09436511993408203,0.06382513046264648,-0.30848801136016846
1771682508133188400,1.578188232421875,-0.29090404510498047,-0.18817979097366333,0.1110248789191246
1771682508143546600,1.588546630859375,0.33127403259277344,-0.21782633662223816,0.5414612293243408
1771682508153905000,1.59890478515625,0.1626424789428711,0.3086664080619812,0.2608018219470978
1771682508164263200,1.60926318359375,-0.14741039276123047,-0.025920450687408447,-0.2026994824409485
1771682508174621400,1.619621337890625,-0.19152545928955078,-0.037955403327941895,-0.2540864944458008
1771682508184979700,1.629979736328125,-0.14743614196777344,0.10486897826194763,-0.3262859284877777
1771682508195338000,1.640337890625,-0.2676382064819336,-0.06453880667686462,-0.001188475638628006
1771682508205696300,1.6506962890625,0.5042037963867188,-0.1115957498550415,0.5812697410583496
1771682508216054500,1.661054443359375,0.004084587097167969,0.11955276131629944,0.1875755786895752
1771682508226412800,1.671412841796875,-0.10289955139160156,0.05931144952774048,0.033581580966711044
1771682508236771000,1.68177099609375,-0.43024539947509766,-0.2905196249485016,0.09307487308979034
1771682508247129300,1.69212939453125,0.8348512649536133,0.3074588477611542,-0.10257021337747574
1771682508257487600,1.702487548828125,-0.8679409027099609,-0.03407582640647888,-0.3041180372238159
1771682508267846000,1.712845947265625,0.4357156753540039,-0.2291235625743866,-0.12128109484910965
1771682508278204200,1.7232041015625,-0.19948959350585938,0.06725266575813293,0.4424671232700348
1771682508288562400,1.7335625,0.053813934326171875,-0.023607313632965088,0.06394399702548981
1771682508298920700,1.743920654296875,0.23652172088623047,-0.013659298419952393,0.49027982354164124
1771682508309279000,1.754279052734375,-0.3141908645629883,0.02401334047317505,-0.2521398663520813
1771682508319637200,1.76463720703125,0.8766603469848633,0.3402698338031769,-0.4560631513595581
1771682508329995500,1.77499560546875,-1.5708913803100586,-0.49169233441352844,-0.03485148027539253
1771682508340353800,1.785353759765625,1.7799186706542969,0.22679606080055237,0.01948094367980957
1771682508350712000,1.795712158203125,-1.6269416809082031,-0.002608686685562134,0.30946990847587585
1771682508361070300,1.8060703125,1.740987777709961,-0.05036371946334839,0.017179958522319794
1771682508371428600,1.8164287109375,-1.6110515594482422,-0.09995999932289124,0.3497558832168579
1771682508381787000,1.826786865234375,1.3359603881835938,0.254683256149292,-0.3060147762298584
1771682508392145200,1.837145263671875,-1.2027482986450195,-0.2243747115135193,-0.13208727538585663
1771682508402503400,1.84750341796875,1.1568212509155273,0.11889216303825378,-0.24120058119297028
1771682508412861700,1.85786181640625,-1.3428459167480469,0.006928056478500366,-0.18577978014945984
1771682508423220000,1.868219970703125,1.179368019104004,-0.27174875140190125,0.27960214018821716
1771682508433578200,1.878578125,-0.9280233383178711,-0.0010638535022735596,0.6020602583885193
1771682508443936500,1.8889365234375,0.9257373809814453,0.2562674880027771,-0.07646887749433517
1771682508454294800,1.899294677734375,-0.9114608764648438,-0.06315016746520996,-0.25380468368530273
1771682508464653000,1.909653076171875,0.9352197647094727,-0.12114378809928894,-0.3258046805858612
1771682508475011300,1.92001123046875,-0.9543743133544922,0.0816277265548706,-0.08437173068523407
1771682508485369900,1.930369873046875,0.40245723724365234,-0.08564910292625427,-0.030035175383090973
1771682508495728000,1.94072802734375,-0.2898244857788086,-0.11104574799537659,0.5535702109336853
1771682508506086400,1.95108642578125,0.6254978179931641,0.2221653163433075,-0.030585959553718567
1771682508516444400,1.9614443359375,-1.0483713150024414,-0.16168895363807678,0.11313093453645706
1771682508526802700,1.971802734375,0.865839958190918,-0.0899827778339386,-0.07208764553070068
1771682508537161000,1.982160888671875,-0.1502838134765625,0.30098599195480347,-0.18748724460601807
1771682508547519500,1.99251953125,-0.24463844299316406,-0.14800208806991577,-0.4324355721473694
1771682508557877800,2.002877685546875,-0.12193012237548828,-0.19718387722969055,0.14830633997917175
1771682508568236000,2.013236083984375,0.38324928283691406,0.08224010467529297,0.29684528708457947
1771682508578594300,2.02359423828125,-0.18286609649658203,-0.032150328159332275,0.4246073365211487
1771682508588952600,2.03395263671875,0.18939781188964844,-0.11554339528083801,0.10828719288110733
1771682508599310800,2.044310791015625,-0.3375835418701172,0.34420111775398254,-0.4010542929172516
1771682508609669000,2.054669189453125,0.016468048095703125,-0.10986641049385071,-0.3850831985473633
1771682508620027400,2.06502734375,-0.033593177795410156,-0.29275718331336975,0.09376849979162216
1771682508630385700,2.0753857421875,0.10225963592529297,0.29422780871391296,0.19460701942443848
1771682508640744000,2.085743896484375,-0.2481832504272461,-0.03318583965301514,0.2131701111793518
1771682508651102200,2.096102294921875,0.4719724655151367,-0.17359596490859985,0.2905347943305969
1771682508661460500,2.10646044921875,-0.13270950317382812,0.06513538956642151,0.10916578769683838
1771682508671818800,2.11681884765625,-0.2510385513305664,0.12660467624664307,-0.3578488826751709
1771682508682177000,2.127177001953125,0.0501861572265625,-0.059561729431152344,-0.1577572226524353
1771682508692535300,2.137535400390625,0.08089542388916016,0.08800584077835083,-0.2840089201927185
1771682508702893600,2.1478935546875,-0.42185211181640625,-0.06908875703811646,0.1416015923023224
1771682508713251800,2.158251953125,0.47066307067871094,-0.2806404232978821,0.4979742765426636
1771682508723610000,2.168610107421875,0.4230613708496094,0.23480752110481262,0.25574588775634766
1771682508733968400,2.178968505859375,-0.4409217834472656,0.21950629353523254,-0.16236290335655212
1771682508744326700,2.18932666015625,0.28744029998779297,-0.08392056822776794,-0.3724610209465027
1771682508754685000,2.199684814453125,-0.5568208694458008,-0.19329556822776794,-0.29981762170791626
1771682508765043200,2.210043212890625,0.503087043762207,0.391041100025177,0.05678226798772812
1771682508775401500,2.2204013671875,-0.9208927154541016,-0.41281944513320923,0.2534322738647461
1771682508785759700,2.230759765625,1.5980796813964844,0.06490388512611389,0.13124386966228485
1771682508796118000,2.241117919921875,-1.8314409255981445,0.21958795189857483,0.23568417131900787
1771682508806476300,2.251476318359375,1.3897113800048828,-0.31990182399749756,-0.22264926135540009
1771682508816834600,2.26183447265625,-1.1006555557250977,0.010111689567565918,0.054491400718688965
1771682508827192800,2.27219287109375,1.2907400131225586,0.5074883103370667,-0.6071869730949402
1771682508837551000,2.282551025390625,-1.837477684020996,-0.3678698241710663,0.09571901708841324
1771682508847909400,2.292909423828125,2.0149707794189453,-0.20538178086280823,0.029247155413031578
1771682508858267600,2.303267578125,-1.7621440887451172,0.36811912059783936,0.4923073649406433
1771682508868626000,2.3136259765625,1.4017343521118164,-0.1674763262271881,0.2086361050605774
1771682508878984200,2.323984130859375,-0.7316255569458008,0.004948139190673828,-0.02340342476963997
1771682508889342500,2.334342529296875,0.36977100372314453,0.34015533328056335,-0.6377237439155579
1771682508899700700,2.34470068359375,-1.1062698364257812,-0.22504010796546936,-0.06816945225000381
1771682508910059000,2.35505908203125,1.1401338577270508,-0.26312100887298584,0.029693368822336197
1771682508920417300,2.365417236328125,-0.6372213363647461,0.47478991746902466,0.4550314247608185
1771682508930775600,2.375775634765625,0.2898902893066406,-0.3138543963432312,0.0683022290468216
1771682508941133800,2.3861337890625,-0.047301292419433594,-0.023985564708709717,0.38398364186286926
1771682508951492000,2.3964921875,-0.10183143615722656,0.0612301230430603,-0.23278573155403137
1771682508961850400,2.406850341796875,-0.008509635925292969,0.09251761436462402,-0.08803419768810272
1771682508972208600,2.417208740234375,0.1225728988647461,-0.22522976994514465,-0.28540366888046265
1771682508982567000,2.42756689453125,-0.10190773010253906,0.27624624967575073,-0.12812702357769012
1771682508992925200,2.43792529296875,-0.3515768051147461,-0.2918960750102997,0.16387614607810974
1771682509003283500,2.448283447265625,0.6147737503051758,-0.07396608591079712,0.5845763683319092
1771682509013641700,2.458641845703125,-0.13118743896484375,0.2834254801273346,0.11339069902896881
1771682509024000000,2.469,-0.09250640869140625,-0.0011509954929351807,-0.3354351222515106
1771682509034358300,2.479358154296875,0.05324268341064453,-0.12542176246643066,-0.3229970932006836
1771682509044716500,2.489716552734375,-0.06372261047363281,0.11089682579040527,-0.1255028247833252
1771682509055074800,2.50007470703125,-0.2183055877685547,-0.12057754397392273,-0.0023330766707658768
1771682509065433000,2.51043310546875,0.11617755889892578,-0.12948328256607056,0.5184075832366943
1771682509075791400,2.520791259765625,0.3468046188354492,0.1851089596748352,0.08838950097560883
1771682509086149600,2.531149658203125,-0.3432588577270508,-0.09892132878303528,0.0941413938999176
1771682509096508000,2.5415078125,-0.020130157470703125,-0.16071709990501404,0.03510215878486633
1771682509106866200,2.5518662109375,0.16342830657958984,0.3044353425502777,-0.2755490243434906
1771682509117224400,2.562224365234375,-0.2375659942626953,-0.03735193610191345,-0.45773693919181824
1771682509127582700,2.572582763671875,-0.05785846710205078,-0.22068610787391663,0.11151242256164551
1771682509137941000,2.58294091796875,0.08774948120117188,0.01824769377708435,0.296010822057724
1771682509148299300,2.59329931640625,0.28991222381591797,0.05169472098350525,0.24540969729423523
1771682509158657500,2.603657470703125,0.21245384216308594,-0.15114781260490417,0.3835829496383667
1771682509169015800,2.614015869140625,-0.13155078887939453,0.15183597803115845,-0.43541035056114197
1771682509179374000,2.6243740234375,-0.24299907684326172,0.02959480881690979,-0.6657662987709045
1771682509189732400,2.634732421875,-0.3015775680541992,-0.3017203211784363,-0.0060500046238303185
1771682509200090600,2.645090576171875,0.5480289459228516,0.13295495510101318,0.23465925455093384
1771682509210449000,2.655448974609375,-0.02376842498779297,0.0729999840259552,0.21568335592746735
1771682509220807200,2.66580712890625,-0.30963993072509766,-0.20143717527389526,0.12198325246572495
1771682509231165400,2.67616552734375,0.5948410034179688,0.14215460419654846,0.20037445425987244
1771682509241523700,2.686523681640625,-0.7159280776977539,0.005842417478561401,-0.34562793374061584
1771682509251882000,2.696882080078125,0.7526283264160156,-0.025247186422348022,-0.15641099214553833
1771682509262240300,2.707240234375,-0.9281949996948242,-0.05370470881462097,-0.09993956983089447
1771682509272598500,2.7175986328125,1.0131397247314453,0.05348700284957886,-0.22013495862483978
1771682509282956800,2.727956787109375,-1.3933191299438477,-0.2915838658809662,0.7318167090415955
1771682509293315000,2.738315185546875,1.6653261184692383,0.025788187980651855,0.1640462428331375
1771682509303673600,2.748673583984375,-0.7628040313720703,0.29316428303718567,0.13965079188346863
1771682509314031600,2.759031494140625,0.038669586181640625,-0.1803634762763977,-0.4982575476169586
1771682509324390000,2.769389892578125,0.057575225830078125,0.001587510108947754,-0.17621776461601257
1771682509334748200,2.779748046875,-0.3573627471923828,-0.003394097089767456,-0.08563675731420517
1771682509345106400,2.7901064453125,0.5568943023681641,-0.06964537501335144,0.21455509960651398
1771682509355464700,2.800464599609375,-0.4749479293823242,-0.18888869881629944,0.4278041124343872
1771682509365823200,2.8108232421875,0.9332199096679688,0.3361494541168213,-0.005715236067771912
1771682509376181500,2.821181396484375,-1.1822967529296875,-0.41802287101745605,0.06566698849201202
1771682509386539800,2.831539794921875,1.499119758605957,0.23869207501411438,-0.06637707352638245
1771682509396898000,2.84189794921875,-1.3241472244262695,0.04957255721092224,-0.3807894289493561
1771682509407256000,2.852256103515625,0.668914794921875,-0.08155736327171326,-0.2481975257396698
1771682509417614600,2.862614501953125,-0.6160821914672852,-0.4055916965007782,0.3915141224861145
1771682509427972900,2.872972900390625,0.7187976837158203,0.33006736636161804,0.3448047637939453
1771682509438331100,2.8833310546875,-0.5759639739990234,-0.11189490556716919,0.23209288716316223
1771682509448689400,2.893689453125,0.4131288528442383,0.0002945363521575928,-0.030135110020637512
1771682509459047700,2.904047607421875,-0.20582962036132812,0.3337725102901459,-0.6007895469665527
1771682509469406000,2.914406005859375,-0.5340728759765625,-0.19396764039993286,-0.18021270632743835
1771682509479764200,2.92476416015625,0.5550241470336914,-0.13172495365142822,0.16291683912277222
1771682509490122500,2.93512255859375,-0.29573917388916016,0.2169915735721588,0.2697071135044098
1771682509500480800,2.945480712890625,0.1726245880126953,-0.060438454151153564,0.08482903242111206
1771682509510839000,2.955839111328125,-0.47647571563720703,-0.1938115656375885,0.269458144903183
1771682509521197300,2.966197265625,0.6339025497436523,0.2378373146057129,-0.08995170891284943
1771682509531555600,2.9765556640625,-0.8656597137451172,0.06322100758552551,-0.32693207263946533
1771682509541913900,2.986913818359375,0.5632286071777344,-0.14005792140960693,-0.16677039861679077
1771682509552272100,2.997272216796875,-0.6523637771606445,0.14182382822036743,-0.07785580307245255
1771682509562630400,3.00763037109375,0.37043190002441406,-0.08276337385177612,0.221824511885643
1771682509572988700,3.01798876953125,-0.4510917663574219,-0.18488961458206177,0.5497816205024719
1771682509583347000,3.028346923828125,1.0025854110717773,0.3731764853000641,0.1239996924996376
1771682509593705200,3.038705322265625,-0.9942960739135742,0.06456208229064941,-0.35101401805877686
1771682509604063500,3.0490634765625,0.5924558639526367,-0.1315169334411621,-0.2534603774547577
1771682509614421800,3.059421875,-0.5350666046142578,0.05252271890640259,-0.04138955846428871
1771682509624780000,3.069780029296875,0.5851097106933594,0.1763688623905182,0.042154744267463684
1771682509635138300,3.08013818359375,-0.735565185546875,-0.31503283977508545,0.5595887303352356
1771682509645496600,3.09049658203125,0.9409475326538086,0.212330162525177,0.15687166154384613
1771682509655854800,3.100854736328125,-0.8364276885986328,0.049921005964279175,0.23560890555381775
1771682509666213000,3.111213134765625,0.3134479522705078,-0.18897715210914612,-0.08297589421272278
1771682509676571400,3.1215712890625,0.004764556884765625,0.3385183811187744,-0.15154467523097992
1771682509686929700,3.1319296875,-0.8608722686767578,-0.005800485610961914,-0.4565207362174988
1771682509697288000,3.142287841796875,0.3582344055175781,-0.3157418966293335,0.25777536630630493
1771682509707646200,3.152646240234375,-0.14376068115234375,-0.12165352702140808,0.4866795837879181
1771682509718004500,3.16300439453125,0.4624347686767578,0.3176438510417938,0.28120356798171997
1771682509728362800,3.17336279296875,-0.5431127548217773,-0.25076824426651,0.10908748209476471
1771682509738721000,3.183720947265625,0.8562183380126953,0.17153364419937134,-0.48781952261924744
1771682509749079300,3.194079345703125,-1.037816047668457,0.13089042901992798,-0.0818813294172287
1771682509759437600,3.2044375,0.4681110382080078,-0.3897666037082672,-0.16618311405181885
1771682509769795800,3.2147958984375,0.3377504348754883,0.16974931955337524,0.5291865468025208
1771682509780154000,3.225154052734375,-0.6816873550415039,-0.02896752953529358,0.0190897136926651
1771682509790512400,3.235512451171875,0.6584720611572266,-0.10728380084037781,0.09543979167938232
1771682509800870700,3.24587060546875,-0.576685905456543,-0.11918643116950989,0.23589123785495758
1771682509811229000,3.25622900390625,1.1805391311645508,0.4580881595611572,-0.5096809267997742
1771682509821587200,3.266587158203125,-1.61376953125,-0.3012956380844116,0.03535325080156326
1771682509831945500,3.276945556640625,1.6828279495239258,-0.019523799419403076,-0.2749301493167877
1771682509842303700,3.2873037109375,-1.6783943176269531,-0.03335672616958618,0.32877621054649353
1771682509852662000,3.297662109375,1.3322210311889648,-0.13839802145957947,0.21166007220745087
1771682509863020300,3.308020263671875,-0.8973684310913086,-0.03290444612503052,0.41154012084007263
1771682509873378600,3.318378662109375,1.1209592819213867,0.3673754930496216,-0.4484631419181824
1771682509883736800,3.32873681640625,-1.4919919967651367,-0.1699206531047821,-0.3469332456588745
1771682509894095000,3.33909521484375,0.9909791946411133,-0.14836519956588745,-0.06324677169322968
1771682509904453400,3.349453369140625,-0.6627225875854492,0.24086841940879822,0.14237061142921448
1771682509914811600,3.359811767578125,0.19089221954345703,-0.13653287291526794,0.19865582883358002
1771682509925170000,3.370169921875,0.032876014709472656,-0.15551266074180603,0.1818731427192688
1771682509935528200,3.380528076171875,-0.1031808853149414,0.34102362394332886,-0.026723183691501617
1771682509945886500,3.390886474609375,-0.21735858917236328,-0.08917433023452759,-0.1594734936952591
1771682509956244700,3.40124462890625,0.21267986297607422,-0.09136271476745605,-0.010844768024981022
1771682509966603000,3.41160302734375,0.11660480499267578,0.18792018294334412,-0.2028910517692566
1771682509976961300,3.421961181640625,-0.5755300521850586,-0.212927907705307,0.0394638255238533
1771682509987319600,3.432319580078125,0.6857490539550781,-0.2913118004798889,0.4062975347042084
1771682509997677800,3.442677734375,-0.17035293579101562,0.3035922050476074,0.24815018475055695
1771682510008036000,3.4530361328125,0.2714691162109375,-0.02643287181854248,-0.3187049925327301
1771682510018394400,3.463394287109375,-0.24223041534423828,-0.07897675037384033,-0.23268428444862366
1771682510028752600,3.473752685546875,0.4216890335083008,0.21434304118156433,-0.21702837944030762
1771682510039111000,3.48411083984375,-0.3548927307128906,-0.09387627243995667,0.018455354496836662
1771682510049469200,3.49446923828125,0.4548835754394531,-0.24402031302452087,0.38469603657722473
1771682510059827700,3.50482763671875,0.1242971420288086,0.14303094148635864,0.2511712908744812
1771682510070186000,3.51518603515625,-0.40328311920166016,-0.11977371573448181,-0.07746647298336029
1771682510080544000,3.5255439453125,0.19431686401367188,-0.14310094714164734,-0.019509870558977127
1771682510090902300,3.53590234375,0.41085052490234375,0.29808154702186584,-0.37538596987724304
1771682510101260500,3.546260498046875,-0.4325428009033203,0.049741268157958984,-0.20710906386375427
1771682510111619000,3.556619140625,0.1413278579711914,-0.38015228509902954,0.01086072064936161
1771682510121977300,3.566977294921875,-0.2718181610107422,0.15779778361320496,0.3775556683540344
1771682510132335600,3.577335693359375,0.017667770385742188,0.028415292501449585,0.11244125664234161
1771682510142694000,3.58769384765625,0.17029476165771484,-0.026562750339508057,0.2385234385728836
1771682510153052200,3.59805224609375,0.045749664306640625,0.14018219709396362,-0.29721543192863464
1771682510163410400,3.608410400390625,-0.04504108428955078,0.08010125160217285,-0.42787861824035645
1771682510173768700,3.618768798828125,-0.4123201370239258,-0.2230224311351776,0.020926065742969513
1771682510184127000,3.629126953125,0.6195688247680664,0.12317612767219543,0.29786819219589233
1771682510194485200,3.6394853515625,-0.3580589294433594,0.008647173643112183,0.2078118622303009
1771682510204843500,3.649843505859375,0.0676727294921875,-0.19670426845550537,0.16137085855007172
1771682510215201800,3.660201904296875,0.37764549255371094,0.20435628294944763,0.1891295164823532
1771682510225560000,3.67056005859375,-0.4656543731689453,0.19180899858474731,-0.5171226263046265
1771682510235918300,3.68091845703125,0.3611946105957031,-0.011320739984512329,-0.18634013831615448
1771682510246276600,3.691276611328125,-0.8351678848266602,-0.30018895864486694,0.06773515045642853
1771682510256635000,3.701634765625,1.2692270278930664,0.18744370341300964,0.17991261184215546
1771682510266993200,3.7119931640625,-1.3899946212768555,-0.38285747170448303,0.5008991956710815
1771682510277351400,3.722351318359375,1.7801837921142578,0.26663801074028015,-0.06542752683162689
1771682510287709700,3.732709716796875,-1.6678895950317383,0.18277841806411743,-0.21552550792694092
1771682510298068000,3.74306787109375,1.3360881805419922,0.0028498470783233643,-0.4752211570739746
1771682510308426200,3.75342626953125,-1.1897516250610352,-0.19955530762672424,0.2934330701828003
1771682510318784500,3.763784423828125,1.2879753112792969,0.2823445796966553,-0.03199185058474541
1771682510329142800,3.774142822265625,-1.5431861877441406,-0.34752219915390015,0.2806820571422577
1771682510339501000,3.7845009765625,1.2266674041748047,-0.13262563943862915,0.18328432738780975
1771682510349859300,3.794859375,-0.9075918197631836,0.2572166919708252,-0.05939096212387085
1771682510360217600,3.805217529296875,0.9465913772583008,-0.006247907876968384,-0.36035770177841187
1771682510370576000,3.815575927734375,-0.9530515670776367,-0.012975215911865234,-0.00041422992944717407
1771682510380934100,3.82593408203125,0.7127914428710938,0.03407767415046692,-0.2747929096221924
1771682510391292400,3.83629248046875,-1.066929817199707,-0.1942395567893982,0.5083878636360168
1771682510401650700,3.846650634765625,1.2339591979980469,-0.22775065898895264,0.29136526584625244
1771682510412009000,3.857009033203125,-0.6402521133422852,0.30761420726776123,0.17190684378147125
1771682510422367200,3.8673671875,-0.06576824188232422,-0.0062250494956970215,-0.6278682351112366
1771682510432725500,3.8777255859375,-0.5332937240600586,-0.09207206964492798,-0.055868323892354965
1771682510443083800,3.888083740234375,0.7018918991088867,0.0914025604724884,-0.12063749879598618
1771682510453442000,3.898442138671875,-0.5098962783813477,-0.0777972936630249,0.2947433888912201
1771682510463800300,3.90880029296875,0.14535808563232422,-0.21632245182991028,0.2901734709739685
1771682510474158600,3.91915869140625,-0.019690513610839844,0.1254236102104187,0.09200010448694229
1771682510484516900,3.929516845703125,-0.07213497161865234,0.00335809588432312,-0.14186424016952515
1771682510494875100,3.939875244140625,0.22158336639404297,0.017582684755325317,-0.10464051365852356
1771682510505233400,3.9502333984375,-0.010477066040039062,0.2511271834373474,-0.30380991101264954
1771682510515591700,3.960591796875,-0.32546138763427734,-0.13352885842323303,-0.06890024989843369
1771682510525950000,3.970949951171875,0.2123556137084961,-0.30507439374923706,0.46595075726509094
1771682510536308200,3.98130810546875,0.13780784606933594,0.060841530561447144,0.4221125543117523
1771682510546666500,3.99166650390625,-0.1274585723876953,0.05839446187019348,-0.05410495400428772
1771682510557024800,4.002024658203125,-0.06984329223632812,-0.013376951217651367,-0.20852331817150116
1771682510567383000,4.012383056640625,-0.11260604858398438,0.16311001777648926,-0.25822192430496216
1771682510577741300,4.0227412109375,-0.1075439453125,0.007720977067947388,-0.10249455273151398
1771682510588099600,4.033099609375,0.09559345245361328,-0.17846786975860596,0.2677910327911377
1771682510598457900,4.043457763671875,0.37696075439453125,0.0413530170917511,0.3693864643573761
1771682510608816000,4.053816162109375,-0.2564659118652344,-0.04218226671218872,0.041829876601696014
1771682510619174400,4.06417431640625,-0.22954273223876953,-0.1685808002948761,-0.07403922826051712
1771682510629532700,4.07453271484375,0.42499637603759766,0.20376819372177124,-0.21553006768226624
1771682510639891000,4.084890869140625,-0.2586851119995117,0.14857164025306702,-0.2595166862010956
1771682510650249200,4.095249267578125,0.06894683837890625,-0.3003920912742615,-0.006687120534479618
1771682510660607500,4.105607421875,0.3838024139404297,-0.07058185338973999,0.35682788491249084
1771682510670965800,4.1159658203125,-0.3522796630859375,0.01329714059829712,0.15021148324012756
1771682510681324000,4.126323974609375,0.6939792633056641,-0.0034660696983337402,0.18642787635326385
1771682510691682300,4.136682373046875,-0.6586523056030273,-0.06559485197067261,-0.18361468613147736
1771682510702040600,4.14704052734375,0.896784782409668,0.28979241847991943,-0.42005836963653564
1771682510712398800,4.15739892578125,-1.377659797668457,-0.24044373631477356,-0.04084949940443039
1771682510722757000,4.167757080078125,1.590169906616211,-0.039740920066833496,0.0004545869305729866
1771682510733115400,4.178115478515625,-1.7529287338256836,0.01089504361152649,0.5879212021827698
1771682510743473700,4.1884736328125,1.5548028945922852,-0.0063596367835998535,-0.2860257625579834
1771682510753832200,4.198832275390625,-1.3610095977783203,-0.19919487833976746,0.4336267113685608
1771682510764190500,4.2091904296875,1.284632682800293,0.1656535565853119,-0.3832109272480011
1771682510774548700,4.219548828125,-1.2510271072387695,0.13015809655189514,-0.2154752016067505
1771682510784906800,4.22990673828125,0.7379732131958008,-0.1285255253314972,-0.2481343001127243
1771682510795265000,4.24026513671875,-0.612457275390625,-0.06566980481147766,0.2481967806816101
1771682510805623600,4.25062353515625,0.3128089904785156,-0.13046932220458984,0.3561996817588806
1771682510815981800,4.26098193359375,0.10912418365478516,0.0563812255859375,0.2897607386112213
1771682510826340000,4.271340087890625,-0.11547565460205078,-0.04703843593597412,0.016834180802106857
1771682510836698400,4.281698486328125,0.05904102325439453,0.275467187166214,-0.4221145808696747
1771682510847056600,4.292056640625,-0.3158140182495117,-0.1982734501361847,-0.3259525001049042
1771682510857415000,4.302414794921875,0.30791759490966797,0.055640846490859985,0.1812625527381897
1771682510867773200,4.312773193359375,-0.2990856170654297,-0.13345405459403992,0.1847216933965683
1771682510878131500,4.32313134765625,0.19571399688720703,0.19190308451652527,0.2561463415622711
1771682510888489700,4.33348974609375,-0.28690052032470703,-0.20267650485038757,0.14396251738071442
1771682510898848000,4.343847900390625,0.40599536895751953,0.11531972885131836,0.0887439101934433
1771682510909206300,4.354206298828125,-0.2752571105957031,0.02173587679862976,-0.39525046944618225
1771682510919564500,4.364564453125,0.09299850463867188,0.11009681224822998,-0.1615046262741089
1771682510929922800,4.3749228515625,-0.4299430847167969,-0.24119040369987488,-0.05055626109242439
1771682510940281000,4.385281005859375,0.4924468994140625,0.0005856752395629883,0.31794220209121704
1771682510950639400,4.395639404296875,-0.24870872497558594,-0.1329767107963562,0.3481071889400482
1771682510960997600,4.40599755859375,0.4273996353149414,0.10821753740310669,0.16143599152565002
1771682510971356000,4.41635595703125,-0.15128612518310547,0.02444744110107422,-0.1657196283340454
1771682510981714200,4.426714111328125,0.16654491424560547,0.031462520360946655,-0.34408268332481384
1771682510992072400,4.437072509765625,-0.26589107513427734,-0.15952318906784058,-0.135711207985878
1771682511002430700,4.4474306640625,0.1596364974975586,-0.023158758878707886,0.10782068222761154
1771682511012789000,4.4577890625,-0.050803184509277344,0.017453283071517944,0.3220425546169281
1771682511023147300,4.468147216796875,0.10446834564208984,-0.04228365421295166,0.20734655857086182
1771682511033505500,4.478505615234375,-0.16550159454345703,-0.039875686168670654,0.12353388965129852
1771682511043863800,4.48886376953125,0.1499786376953125,0.0842551589012146,-0.2007700353860855
1771682511054222000,4.49922216796875,-0.17977619171142578,0.13647067546844482,-0.2412308305501938
1771682511064580400,4.509580322265625,-0.23183917999267578,-0.18844059109687805,-0.18323859572410583
1771682511074938600,4.519938720703125,0.13153839111328125,-0.10916367173194885,0.17253455519676208
1771682511085297000,4.530296875,0.23145675659179688,-0.0062787532806396484,0.3941906690597534
1771682511095655200,4.5406552734375,0.3478355407714844,-0.04924842715263367,0.3694543242454529
1771682511106013400,4.551013427734375,-0.17097949981689453,0.0057495832443237305,0.09522241353988647
1771682511116371700,4.561371826171875,0.05382251739501953,0.07235786318778992,-0.46667665243148804
1771682511126730000,4.57172998046875,-0.12054443359375,0.002812117338180542,-0.2216329723596573
1771682511137088300,4.582088134765625,-0.4400806427001953,-0.16184672713279724,0.02951992303133011
1771682511147446500,4.592446533203125,0.7210350036621094,0.06748586893081665,0.2765446603298187
1771682511157804800,4.6028046875,-0.794041633605957,-0.09947293996810913,0.30158454179763794
1771682511168163000,4.6131630859375,0.8525028228759766,0.09126508235931396,0.07460077106952667
1771682511178521300,4.623521240234375,-0.9397726058959961,-0.17367586493492126,0.0654006153345108
1771682511188879600,4.633879638671875,1.0675525665283203,0.2176801860332489,-0.3598499894142151
1771682511199238000,4.64423779296875,-1.300501823425293,0.0075695812702178955,0.05040821060538292
1771682511209596200,4.65459619140625,1.034724235534668,-0.21733200550079346,-0.3123008608818054
1771682511219954400,4.664954345703125,-0.9394254684448242,-0.09213507175445557,0.5619398951530457
1771682511230312700,4.675312744140625,0.4234466552734375,-0.05411067605018616,0.10298216342926025
1771682511240671000,4.6856708984375,0.1120758056640625,0.18983322381973267,0.2761058211326599
1771682511251029200,4.696029296875,-0.2939443588256836,-0.1284867823123932,-0.1832120269536972
1771682511261387500,4.706387451171875,0.46389007568359375,0.18669670820236206,-0.35623249411582947
1771682511271745800,4.716745849609375,-0.9085378646850586,-0.1954445242881775,-0.06769195944070816
1771682511282104000,4.72710400390625,1.0665979385375977,0.07621046900749207,0.045043978840112686
1771682511292462300,4.73746240234375,-1.1158876419067383,-0.24266743659973145,0.4978456199169159
1771682511302820600,4.747820556640625,1.436833381652832,0.21776467561721802,0.13937881588935852
1771682511313179000,4.758178955078125,-1.3071231842041016,-0.15982037782669067,0.0550646036863327
1771682511323537200,4.768537109375,1.0089950561523438,0.22000238299369812,-0.1590874344110489
1771682511333895400,4.7788955078125,-1.1727170944213867,-0.17188724875450134,-0.23539267480373383
1771682511344253700,4.789253662109375,1.1168088912963867,0.16029125452041626,-0.18432380259037018
1771682511354612000,4.799612060546875,-1.1582603454589844,-0.26247793436050415,0.13307307660579681
1771682511364970200,4.80997021484375,0.9331321716308594,-0.016185849905014038,0.2974223792552948
1771682511375328500,4.82032861328125,-0.7638607025146484,-0.03758707642555237,0.2615532875061035
1771682511385686800,4.830686767578125,0.9446525573730469,0.22717484831809998,0.007958929985761642
1771682511396045000,4.841045166015625,-0.5590324401855469,-0.05744931101799011,-0.30186283588409424
1771682511406403300,4.8514033203125,0.423370361328125,0.04267096519470215,-0.34917208552360535
1771682511416761600,4.86176171875,-0.5157127380371094,-0.0840221643447876,-0.018757414072752
1771682511427119900,4.872119873046875,0.6455917358398438,0.025774002075195312,0.18560895323753357
1771682511437478100,4.88247802734375,-0.36328125,-0.16501125693321228,0.42255449295043945
1771682511447836700,4.892836669921875,0.4396190643310547,0.04755896329879761,0.06290869414806366
1771682511458195000,4.90319482421875,-0.5639562606811523,0.05702716112136841,-0.0030889585614204407
1771682511468553000,4.913552978515625,0.4232301712036133,0.05190208554267883,-0.27084946632385254
1771682511478911200,4.9239111328125,-0.3869752883911133,-0.0029605329036712646,-0.11919273436069489
1771682511489269500,4.93426953125,0.1892251968383789,-0.05316096544265747,-0.22198039293289185
1771682511499628000,4.9446279296875,-0.1835918426513672,-0.005375474691390991,0.20304283499717712
1771682511509986300,4.954986328125,0.09135246276855469,-0.13182473182678223,0.34360066056251526
1771682511520344600,4.965344482421875,0.13647174835205078,0.030849725008010864,0.3554213047027588
1771682511530702800,4.975702880859375,0.16239166259765625,0.04017317295074463,-0.09865980595350266
1771682511541061000,4.98606103515625,-0.024179458618164062,0.08527615666389465,-0.4014897644519806
1771682511551419400,4.99641943359375,-0.1983509063720703,-0.12035170197486877,-0.2072925865650177
1771682511561777700,5.006777587890625,-0.0976095199584961,-0.06033959984779358,0.09413468837738037
1771682511572136000,5.017135986328125,-0.11646270751953125,0.028164416551589966,0.2678146958351135
1771682511582494200,5.027494140625,0.15354156494140625,0.07580852508544922,0.15005874633789062
1771682511592852500,5.0378525390625,0.08394622802734375,0.03966951370239258,0.2459648996591568
1771682511603210800,5.048210693359375,-0.3482828140258789,0.010905951261520386,-0.052265845239162445
1771682511613569000,5.058569091796875,0.3256855010986328,0.12052682042121887,-0.31280818581581116
1771682511623927300,5.06892724609375,-0.7038669586181641,-0.06817051768302917,-0.19660049676895142
1771682511634285600,5.07928564453125,0.34810924530029297,-0.12298160791397095,-0.00911899283528328
1771682511644643800,5.089643798828125,-0.19458484649658203,-0.15592554211616516,0.5080646872520447
1771682511655002000,5.100002197265625,0.29998779296875,0.07106733322143555,0.24324361979961395
1771682511665360400,5.1103603515625,0.0653219223022461,0.10195845365524292,0.24462127685546875
1771682511675718700,5.12071875,-0.0828094482421875,-0.0632595419883728,-0.5311334133148193
1771682511686077000,5.131076904296875,0.23961925506591797,0.19226843118667603,-0.15228699147701263
1771682511696435200,5.141435302734375,-0.6679620742797852,-0.2715299725532532,-0.1572348028421402
1771682511706793500,5.15179345703125,1.2073698043823242,0.13024047017097473,0.1768990010023117
1771682511717151700,5.16215185546875,-1.382981300354004,-0.24484127759933472,0.47594183683395386
1771682511727510000,5.172510009765625,1.6398334503173828,0.22112032771110535,-0.001379762776196003
1771682511737868300,5.182868408203125,-1.5817289352416992,-0.23289239406585693,0.17059683799743652
1771682511748226600,5.1932265625,1.7160749435424805,0.29019907116889954,-0.4190131723880768
1771682511758584800,5.203584716796875,-1.5605792999267578,-0.16631066799163818,-0.11196567118167877
1771682511768943000,5.213943115234375,1.5414533615112305,0.15612003207206726,-0.2918962240219116
1771682511779301400,5.22430126953125,-1.2168331146240234,-0.28787150979042053,0.22059616446495056
1771682511789659600,5.23465966796875,1.2852487564086914,0.03473865985870361,0.30710119009017944
1771682511800018000,5.245017822265625,-0.8780708312988281,-0.10110941529273987,0.34160807728767395
1771682511810376200,5.255376220703125,1.1481866836547852,0.16607406735420227,-0.051935091614723206
1771682511820734500,5.265734375,-0.904994010925293,-0.04654330015182495,-0.34127146005630493
1771682511831092700,5.2760927734375,0.639185905456543,0.008137434720993042,-0.354172021150589
1771682511841451000,5.286450927734375,-0.5200490951538086,-0.10371309518814087,0.12799745798110962
1771682511851809300,5.296809326171875,0.5314760208129883,-0.05837470293045044,0.2065782994031906
1771682511862167600,5.30716748046875,-0.11432075500488281,0.05907741189002991,0.3300817906856537
1771682511872525800,5.31752587890625,0.03158855438232422,-0.11338043212890625,0.023882120847702026
1771682511882884000,5.327884033203125,-0.08545970916748047,0.061368733644485474,0.09357313811779022
1771682511893242400,5.338242431640625,0.03412437438964844,-0.10877007246017456,-0.31203693151474
1771682511903600600,5.3486005859375,-0.1712493896484375,0.1257631778717041,-0.14923721551895142
1771682511913959000,5.358958984375,0.10845661163330078,-0.1803375780582428,-0.28276845812797546
1771682511924317200,5.369317138671875,-0.2403125762939453,0.025732576847076416,0.30707812309265137
1771682511934675500,5.379675537109375,0.21619033813476562,-0.19419220089912415,0.2997918426990509
1771682511945033700,5.39003369140625,0.058106422424316406,0.18835186958312988,0.29858267307281494
1771682511955392000,5.40039208984375,0.13674354553222656,0.01814410090446472,-0.15684568881988525
1771682511965750300,5.410750244140625,-0.29323387145996094,0.07542282342910767,-0.35540029406547546
1771682511976108500,5.421108642578125,0.1085042953491211,-0.08495479822158813,-0.241704061627388
1771682511986466800,5.431466796875,-0.33334922790527344,-0.055811285972595215,0.0802689865231514
1771682511996825000,5.4418251953125,0.5625667572021484,0.01566261053085327,0.3380444347858429
1771682512007183400,5.452183349609375,-0.4699687957763672,-0.046207934617996216,0.27743563055992126
1771682512017541600,5.462541748046875,0.4811897277832031,0.09194871783256531,0.14127814769744873
1771682512027900000,5.47289990234375,-0.6800298690795898,-0.10383796691894531,0.038577619940042496
1771682512038258200,5.483258056640625,0.5556888580322266,0.16335242986679077,-0.30250903964042664
1771682512048616400,5.493616455078125,-0.8993101119995117,-0.09680831432342529,-0.18778404593467712
1771682512058974700,5.503974609375,0.4801607131958008,0.046373456716537476,-0.16753116250038147
1771682512069333000,5.5143330078125,-0.7502717971801758,-0.0967884361743927,0.22989530861377716
1771682512079691300,5.524691162109375,0.5667629241943359,-0.04179567098617554,0.30745455622673035
1771682512090049500,5.535049560546875,-0.2414102554321289,-0.005848735570907593,0.3606850206851959
1771682512100407800,5.54540771484375,0.5778903961181641,0.024985849857330322,-0.22109003365039825
1771682512110766000,5.55576611328125,-0.2852039337158203,0.017740637063980103,-0.3693636655807495
1771682512121124400,5.566124267578125,-0.24151897430419922,-0.0039317309856414795,-0.32202234864234924
1771682512131482600,5.576482666015625,0.33908748626708984,-0.030199050903320312,0.14726483821868896
1771682512141841000,5.5868408203125,-0.2513151168823242,-0.09685280919075012,0.32489854097366333
1771682512152199200,5.59719921875,0.7207632064819336,0.15147417783737183,0.3730597496032715
1771682512162557400,5.607557373046875,-1.0234336853027344,-0.13528558611869812,0.08294254541397095
1771682512172915700,5.617915771484375,1.2752819061279297,0.18216928839683533,-0.21739187836647034
1771682512183274000,5.62827392578125,-1.5634851455688477,-0.10448035597801208,-0.1512351632118225
1771682512193632300,5.63863232421875,1.4645671844482422,0.13419410586357117,-0.4944886863231659
1771682512203990500,5.648990478515625,-1.577566146850586,-0.19033822417259216,0.21081627905368805
1771682512214348800,5.659348876953125,1.6080636978149414,-0.0017592012882232666,0.14479589462280273
1771682512224707000,5.66970703125,-1.3437376022338867,-0.0608883798122406,0.5666019916534424
1771682512235065300,5.6800654296875,1.3472423553466797,0.11763283610343933,-0.033431362360715866
1771682512245423600,5.690423583984375,-1.1838197708129883,0.046208709478378296,-0.1880456507205963
1771682512255782000,5.700781982421875,0.7716188430786133,0.023843437433242798,-0.37371376156806946
1771682512266140200,5.71114013671875,-0.7483663558959961,-0.14049479365348816,-0.10871870815753937
1771682512276498400,5.72149853515625,0.5113973617553711,-0.10241135954856873,0.21461385488510132
1771682512286856700,5.731856689453125,-0.3992958068847656,0.041530489921569824,0.4607554078102112
1771682512297215000,5.742215087890625,0.4395179748535156,-0.1524893343448639,0.0169982872903347
1771682512307573200,5.7525732421875,-0.4542808532714844,0.2253633439540863,0.3339841067790985
1771682512317931800,5.762931884765625,0.1603069305419922,-0.20541319251060486,-0.3169246315956116
1771682512328290000,5.7732900390625,0.04293346405029297,0.2226334810256958,-0.07422502338886261
1771682512338648300,5.7836484375,-0.4679431915283203,-0.2411787211894989,-0.35844194889068604
1771682512349006300,5.79400634765625,0.4569225311279297,0.13193586468696594,0.17142175137996674
1771682512359364600,5.804364501953125,-0.30800342559814453,-0.22650441527366638,0.3080488443374634
1771682512369723100,5.81472314453125,0.4040374755859375,0.1202557384967804,0.37339839339256287
1771682512380081400,5.825081298828125,-0.16264629364013672,-0.04488363862037659,0.06858626008033752
1771682512390439700,5.835439697265625,0.3079710006713867,0.12699654698371887,-0.31192898750305176
1771682512400798000,5.8457978515625,-0.509089469909668,-0.042932987213134766,-0.38646334409713745
1771682512411156200,5.85615625,0.08888912200927734,-0.09768274426460266,-0.10293995589017868
1771682512421514200,5.86651416015625,0.01706409454345703,0.0027868151664733887,0.2637522518634796
1771682512431872800,5.876872802734375,0.24138450622558594,0.07913637161254883,0.42620259523391724
1771682512442231000,5.88723095703125,-0.26999759674072266,-0.09777221083641052,0.09568718820810318
1771682512452589300,5.89758935546875,0.2534017562866211,0.12907534837722778,-0.022899828851222992
1771682512462947600,5.907947509765625,-0.3845205307006836,-0.02396520972251892,-0.1010587066411972
1771682512473305900,5.918305908203125,0.5902795791625977,-0.03598600625991821,-0.3589678704738617
1771682512483664100,5.9286640625,-0.6666793823242188,0.07877466082572937,-0.1528247594833374
1771682512494022400,5.9390224609375,0.39235401153564453,-0.13852232694625854,0.04759414121508598
1771682512504380700,5.949380615234375,-0.10269927978515625,-0.03323936462402344,0.47207093238830566
1771682512514739000,5.959739013671875,0.14339256286621094,0.036226361989974976,0.3189343810081482
1771682512525097200,5.97009716796875,0.0738210678100586,-0.006911933422088623,0.04836128652095795
1771682512535455500,5.98045556640625,0.3123188018798828,0.08384531736373901,-0.3883158564567566
1771682512545813800,5.990813720703125,-0.13480758666992188,-0.10243555903434753,-0.17474599182605743
1771682512556172000,6.001172119140625,-0.09867000579833984,-0.14032867550849915,-0.1390887349843979
1771682512566530300,6.0115302734375,0.21902084350585938,0.012882232666015625,0.17549730837345123
1771682512576888600,6.021888671875,0.049004554748535156,-0.022912651300430298,0.38370177149772644
1771682512587246800,6.032246826171875,-0.1730976104736328,0.027370333671569824,0.21289996802806854
1771682512597605000,6.042605224609375,0.5791959762573242,-0.053997427225112915,0.053129684180021286
1771682512607963400,6.05296337890625,-0.7254724502563477,-0.008410423994064331,-0.20856428146362305
1771682512618321700,6.06332177734375,0.6989059448242188,0.11319306492805481,-0.22802439332008362
1771682512628680000,6.073679931640625,-0.9712629318237305,-0.22805696725845337,-0.2791135609149933
1771682512639038200,6.0840380859375,1.253335952758789,0.0967283844947815,0.11566948890686035
1771682512649396500,6.094396484375,-1.5281038284301758,-0.24203157424926758,0.6867315769195557
1771682512659754800,6.104754638671875,1.7170820236206055,0.13982394337654114,0.01271667517721653
1771682512670113000,6.115113037109375,-1.5596017837524414,0.02544340491294861,0.27618539333343506
1771682512680471300,6.12547119140625,1.1223793029785156,0.017388880252838135,-0.7250534296035767
1771682512690829600,6.13582958984375,-1.0477066040039062,0.02498146891593933,-0.09318134933710098
1771682512701187800,6.146187744140625,0.32976627349853516,-0.2000255584716797,-0.19090744853019714
1771682512711546000,6.156546142578125,-0.08878040313720703,0.1422058641910553,0.4363150894641876
1771682512721904400,6.166904296875,-0.10524463653564453,-0.17354580760002136,0.3772142827510834
1771682512732262700,6.1772626953125,0.5752639770507812,0.1658591628074646,0.12330364435911179
1771682512742621000,6.187620849609375,-0.9608993530273438,-0.18807902932167053,0.022125612944364548
1771682512752979200,6.197979248046875,1.034515380859375,0.21335816383361816,-0.23227472603321075
1771682512763337500,6.20833740234375,-1.0159788131713867,-0.21682873368263245,-0.3114026188850403
1771682512773695700,6.21869580078125,0.8864831924438477,0.1799689531326294,-0.13571712374687195
1771682512784054000,6.229053955078125,-0.8390264511108398,-0.26690438389778137,0.11115828156471252
1771682512794412300,6.239412353515625,1.2276887893676758,0.07505890727043152,0.48012247681617737
1771682512804770600,6.2497705078125,-1.1741504669189453,-0.1066131591796875,0.23716342449188232
1771682512815128800,6.26012890625,1.311100959777832,0.18237650394439697,-0.055892348289489746
1771682512825487000,6.270487060546875,-0.9310283660888672,-0.12129256129264832,-0.41636213660240173
1771682512835845400,6.280845458984375,0.7158346176147461,0.10573846101760864,-0.2910352647304535
1771682512846203600,6.29120361328125,-0.7037410736083984,-0.21670913696289062,-0.021114785224199295
1771682512856562000,6.30156201171875,0.9306182861328125,0.1275155246257782,0.30561110377311707
1771682512866920200,6.311920166015625,-0.43937110900878906,-0.11860775947570801,0.37693673372268677
1771682512877278500,6.322278564453125,0.5665979385375977,0.07958760857582092,0.14672955870628357
1771682512887636700,6.33263671875,-0.5876703262329102,-0.10668283700942993,0.05702737718820572
1771682512897995000,6.3429951171875,0.6645145416259766,0.10341718792915344,-0.24424338340759277
1771682512908353300,6.353353271484375,-0.6857223510742188,-0.027890920639038086,-0.1789524257183075
1771682512918711600,6.363711669921875,0.13228797912597656,-0.042102038860321045,-0.19761918485164642
1771682512929069800,6.37406982421875,-0.1735553741455078,-0.12078461050987244,0.29367709159851074
1771682512939428000,6.384427978515625,0.5333757400512695,-0.03206747770309448,0.39198118448257446
1771682512949786400,6.394786376953125,-0.2579975128173828,0.10397806763648987,0.3263693153858185
1771682512960144600,6.40514453125,0.13409042358398438,-0.013259410858154297,-0.22952698171138763
1771682512970503000,6.4155029296875,0.062160491943359375,0.04146236181259155,-0.343842476606369
1771682512980861200,6.425861083984375,-0.24828433990478516,-0.10187381505966187,-0.24483086168766022
1771682512991219500,6.436219482421875,0.01727771759033203,-0.0897068977355957,0.0056928349658846855
1771682513001577700,6.44657763671875,0.03394126892089844,0.041833728551864624,0.32066622376441956
1771682513011936000,6.45693603515625,0.13410568237304688,-0.010803639888763428,0.30854538083076477
1771682513022294300,6.467294189453125,-0.08342266082763672,0.03436434268951416,0.1379345804452896
1771682513032652500,6.477652587890625,0.0719308853149414,-0.013480663299560547,0.02444804273545742
1771682513043010800,6.4880107421875,0.062216758728027344,0.03879261016845703,-0.1355445384979248
1771682513053369000,6.498369140625,-0.2124338150024414,-0.06854766607284546,-0.2786811888217926
1771682513063727400,6.508727294921875,0.19387245178222656,0.069851815700531,-0.08529169857501984
1771682513074085600,6.519085693359375,-0.9594717025756836,-0.12575480341911316,0.34277164936065674
1771682513084444000,6.52944384765625,1.1147222518920898,-0.054168254137039185,0.4124528765678406
1771682513094802200,6.53980224609375,-0.7116222381591797,0.0034155547618865967,0.3727729320526123
1771682513105160400,6.550160400390625,0.6530599594116211,0.16060522198677063,-0.21368177235126495
1771682513115518700,6.560518798828125,-0.7210092544555664,-0.07605350017547607,-0.33597034215927124
1771682513125877000,6.570876953125,0.3978433609008789,-0.08317038416862488,-0.4280199110507965
1771682513136235300,6.5812353515625,-0.3239898681640625,0.005577415227890015,0.31807130575180054
1771682513146593500,6.591593505859375,0.2783222198486328,-0.10211515426635742,0.2678088843822479
1771682513156951800,6.601951904296875,0.4327526092529297,0.09653660655021667,0.3381928503513336
1771682513167310000,6.61231005859375,-0.7712736129760742,-0.08550006151199341,0.1937181055545807
1771682513177668400,6.62266845703125,0.9754276275634766,0.05086565017700195,-0.09492067247629166
1771682513188026600,6.633026611328125,-0.9293107986450195,-0.09506744146347046,-0.15806055068969727
1771682513198385000,6.643385009765625,0.9371280670166016,0.10815393924713135,-0.3291610777378082
1771682513208743200,6.6537431640625,-1.0653953552246094,-0.159278005361557,0.06590647250413895
1771682513219101400,6.664101318359375,1.2214946746826172,0.05082905292510986,0.21593691408634186
1771682513229459700,6.674459716796875,-1.1254644393920898,-0.1445435881614685,0.546184778213501
1771682513239818000,6.68481787109375,1.2809324264526367,0.187006413936615,0.23595145344734192
1771682513250176300,6.69517626953125,-1.1353940963745117,-0.06837785243988037,-0.16635870933532715
1771682513260534500,6.705534423828125,0.8557205200195312,0.10055258870124817,-0.5103803277015686
1771682513270892800,6.715892822265625,-1.29937744140625,-0.0853346586227417,-0.17008815705776215
1771682513281251000,6.7262509765625,0.9690055847167969,0.03143882751464844,-0.02186386100947857
1771682513291609300,6.736609375,-0.7328634262084961,0.0006201565265655518,0.4307800233364105
1771682513301967600,6.746967529296875,0.7010822296142578,0.05536931753158569,0.2069738507270813
1771682513312326000,6.757325927734375,-0.36997318267822266,-0.004524648189544678,0.20298819243907928
1771682513322684200,6.76768408203125,0.10594463348388672,0.000051528215408325195,-0.17194917798042297
1771682513333042400,6.77804248046875,0.0436248779296875,0.07157233357429504,-0.2215317189693451
1771682513343400700,6.788400634765625,-0.27155208587646484,-0.07171475887298584,-0.34975919127464294
1771682513353759000,6.798759033203125,0.27094459533691406,-0.016722381114959717,-0.013292495161294937
1771682513364117200,6.8091171875,-0.1784648895263672,-0.13353344798088074,0.2928619384765625
1771682513374475500,6.8194755859375,0.4759855270385742,-0.006905853748321533,0.4254128634929657
1771682513384833800,6.829833740234375,-0.10521602630615234,0.043399274349212646,0.18458393216133118
1771682513395192000,6.840192138671875,0.15046024322509766,0.03096112608909607,-0.3368344306945801
1771682513405550300,6.85055029296875,-0.20555782318115234,-0.06693673133850098,-0.4375201165676117
1771682513415908600,6.86090869140625,0.1362934112548828,-0.11722606420516968,-0.20879854261875153
1771682513426267000,6.871266845703125,-0.1337757110595703,-0.033104658126831055,0.16548161208629608
1771682513436625200,6.881625244140625,0.3152942657470703,-0.13347789645195007,0.33020564913749695
1771682513446983400,6.8919833984375,0.09967994689941406,0.06274110078811646,0.2289160043001175
1771682513457341700,6.902341796875,0.09944915771484375,-0.09050694108009338,0.047902658581733704
1771682513467700000,6.912699951171875,-0.10368537902832031,0.06251701712608337,-0.09306767582893372
1771682513478058200,6.923058349609375,0.16152667999267578,-0.023774325847625732,-0.4410516619682312
1771682513488416500,6.93341650390625,-0.20407772064208984,-0.009167134761810303,-0.18748101592063904
1771682513498774800,6.94377490234375,-0.07944107055664062,-0.07857125997543335,-0.046119485050439835
1771682513509133000,6.954133056640625,-0.2773599624633789,-0.06150251626968384,0.3877423107624054
1771682513519491300,6.9644912109375,0.277099609375,0.07675483822822571,0.2325778752565384
1771682513529849600,6.974849609375,0.11886882781982422,0.12678861618041992,0.19114737212657928
1771682513540207900,6.985207763671875,-0.17738628387451172,-0.019334524869918823,-0.3467434048652649
1771682513550566100,6.995566162109375,0.28610897064208984,0.006884664297103882,-0.32477813959121704
1771682513560924400,7.00592431640625,-0.5046539306640625,-0.12198173999786377,-0.14649179577827454
1771682513571282700,7.01628271484375,0.33916759490966797,0.09066778421401978,0.2556762993335724
1771682513581641000,7.026640869140625,-0.13428306579589844,-0.10034164786338806,0.440175861120224
1771682513591999200,7.036999267578125,0.27898693084716797,0.059618622064590454,0.09424713253974915
1771682513602357500,7.047357421875,-0.2420482635498047,0.09060072898864746,0.26846638321876526
1771682513612715800,7.0577158203125,-0.12741756439208984,-0.09223034977912903,-0.37266117334365845
1771682513623074000,7.068073974609375,0.4605865478515625,0.21052289009094238,-0.20505626499652863
1771682513633432300,7.078432373046875,-1.1087236404418945,-0.21475878357887268,-0.22207997739315033
1771682513643790600,7.08879052734375,1.2976036071777344,0.08159968256950378,0.05677973851561546
1771682513654148900,7.09914892578125,-1.526900291442871,-0.1832546591758728,0.7244138121604919
1771682513664507100,7.109507080078125,1.658595085144043,0.1891552209854126,0.05675568804144859
1771682513674865400,7.119865478515625,-1.4365291595458984,-0.03288036584854126,0.29432007670402527
1771682513685223700,7.1302236328125,1.173527717590332,0.18608462810516357,-0.6836162209510803
1771682513695582000,7.14058203125,-1.4668807983398438,-0.05271339416503906,-0.1364949494600296
1771682513705940200,7.150940185546875,0.9570655822753906,-0.08168137073516846,-0.13984033465385437
1771682513716298500,7.161298583984375,-0.6158876419067383,0.08362829685211182,0.39819735288619995
1771682513726656800,7.17165673828125,0.4430389404296875,-0.12934288382530212,0.3514913320541382
1771682513737015000,7.18201513671875,-0.18343067169189453,0.15762817859649658,0.15523883700370789
1771682513747373300,7.192373291015625,0.10347175598144531,-0.1606733798980713,0.028805743902921677
1771682513757731600,7.202731689453125,-0.11878108978271484,0.12411344051361084,-0.0899532213807106
1771682513768089900,7.21308984375,0.1703472137451172,-0.11772540211677551,-0.3265138864517212
1771682513778448100,7.2234482421875,-0.23109054565429688,0.0047110915184021,-0.1420772820711136
1771682513788806400,7.233806396484375,0.1800384521484375,-0.18651893734931946,0.1445215791463852
1771682513799164700,7.24416455078125,0.09126663208007812,-0.09996193647384644,0.45165687799453735
1771682513809523000,7.25452294921875,0.29870033264160156,0.04812547564506531,0.20368394255638123
1771682513819881200,7.264881103515625,0.11960220336914062,0.026186466217041016,0.0224465299397707
1771682513830239500,7.275239501953125,-0.007088661193847656,0.016193628311157227,-0.45830580592155457
1771682513840597800,7.28559765625,-0.20697021484375,-0.06645122170448303,-0.20362761616706848
1771682513850956000,7.2959560546875,0.17530250549316406,-0.05830693244934082,-0.02390502393245697
1771682513861314300,7.306314208984375,0.019440650939941406,-0.08088645339012146,0.3496779799461365
1771682513871672600,7.316672607421875,0.21440887451171875,0.02873656153678894,0.3214150369167328
1771682513882030800,7.32703076171875,-0.15385913848876953,-0.08259806036949158,0.16448724269866943
1771682513892389000,7.33738916015625,0.25341320037841797,0.038756728172302246,0.05559605360031128
1771682513902747400,7.347747314453125,-0.2849149703979492,-0.06803905963897705,-0.24315544962882996
1771682513913105700,7.358105712890625,0.2515878677368164,0.1309656798839569,-0.21906517446041107
1771682513923464000,7.3684638671875,-0.3620128631591797,-0.2077711820602417,-0.08278873562812805
1771682513933822200,7.378822265625,0.5028390884399414,0.05461612343788147,0.32860350608825684
1771682513944180500,7.389180419921875,-0.3855400085449219,-0.2427867203950882,0.42157208919525146
1771682513954538800,7.399538818359375,0.7348518371582031,0.23039236664772034,0.3021059036254883
1771682513964897000,7.40989697265625,-0.5916767120361328,-0.12352055311203003,-0.10924892872571945
1771682513975255300,7.42025537109375,0.36215782165527344,0.13203343749046326,-0.4093511998653412
1771682513985613600,7.430613525390625,-0.6054134368896484,-0.19060450792312622,-0.12468353658914566
1771682513995971800,7.440971923828125,0.706477165222168,0.02227872610092163,0.01172096561640501
1771682514006330000,7.451330078125,-0.66534423828125,-0.09695443511009216,0.33346933126449585
1771682514016688400,7.4616884765625,0.5750980377197266,-0.07299035787582397,0.12993401288986206
1771682514027046700,7.472046630859375,-0.3691387176513672,0.010646939277648926,0.25949379801750183
1771682514037405000,7.482405029296875,0.47911643981933594,-0.07777729630470276,-0.015455595217645168
1771682514047763200,7.49276318359375,0.2440166473388672,0.04877302050590515,-0.2825072705745697
1771682514058121500,7.50312158203125,-0.6134777069091797,-0.025176405906677246,-0.28646329045295715
1771682514068479700,7.513479736328125,0.5456781387329102,-0.05145302414894104,-0.07641232013702393
1771682514078838000,7.523838134765625,-0.6920738220214844,-0.2230745553970337,0.30779480934143066
1771682514089196300,7.5341962890625,1.128432273864746,0.09723532199859619,0.3957640826702118
1771682514099554600,7.544554443359375,-1.1084709167480469,-0.039080023765563965,0.3406859338283539
1771682514109912800,7.554912841796875,1.4195976257324219,0.18975871801376343,-0.5635219216346741
1771682514120271000,7.56527099609375,-1.849161148071289,-0.07781490683555603,-0.09628040343523026
1771682514130629400,7.57562939453125,1.4254674911499023,-0.04962274432182312,-0.48940831422805786
1771682514140987600,7.585987548828125,-1.4685955047607422,-0.1180543303489685,0.48809295892715454
1771682514151346000,7.596345947265625,1.3754606246948242,0.01029890775680542,0.13504523038864136
1771682514161704200,7.6067041015625,-1.3108301162719727,-0.008034378290176392,0.35353878140449524
1771682514172062500,7.6170625,0.9480628967285156,0.024445652961730957,-0.006386110559105873
1771682514182420700,7.627420654296875,-0.813446044921875,0.06084957718849182,0.019194800406694412
1771682514192779000,7.637779052734375,0.5228719711303711,0.0002574324607849121,-0.27496111392974854
1771682514203137300,7.64813720703125,-0.4427461624145508,0.050918519496917725,-0.11240127682685852
1771682514213495600,7.65849560546875,0.047695159912109375,-0.12164360284805298,-0.04984842240810394
1771682514223853800,7.668853759765625,-0.1935272216796875,0.0916895866394043,0.4742695391178131
1771682514234212000,7.679212158203125,0.2318401336669922,-0.17632383108139038,0.24353574216365814
1771682514244570400,7.6895703125,0.31478118896484375,0.31615719199180603,0.29409241676330566
1771682514254928600,7.6999287109375,-0.44500064849853516,-0.15523651242256165,-0.44874581694602966
1771682514265287000,7.710286865234375,0.1432666778564453,0.2152141034603119,-0.2644291818141937
1771682514275645200,7.720645263671875,-0.568364143371582,-0.23413428664207458,-0.14367687702178955
1771682514286003500,7.73100341796875,0.8341264724731445,0.15322160720825195,0.31115835905075073
1771682514296361700,7.74136181640625,-0.5594816207885742,-0.1408272683620453,0.26885735988616943
1771682514306720000,7.751719970703125,0.6257896423339844,0.17217868566513062,0.16904811561107635
1771682514317078300,7.762078369140625,-0.5835132598876953,-0.10998347401618958,0.0847087949514389
1771682514327436500,7.7724365234375,0.608973503112793,0.02166995406150818,-0.10948820412158966
1771682514337794800,7.782794921875,-0.35921478271484375,-0.045300185680389404,-0.2489684373140335
1771682514348153000,7.793153076171875,0.011631011962890625,-0.004383862018585205,-0.2879396080970764
1771682514358511400,7.803511474609375,-0.06715869903564453,-0.08560985326766968,0.14090152084827423
1771682514368869600,7.81386962890625,0.03801441192626953,-0.06123846769332886,0.4332897365093231
1771682514379228000,7.824227783203125,0.38163280487060547,-0.013495206832885742,0.2835899591445923
1771682514389586200,7.834586181640625,-0.2351236343383789,0.07715395092964172,0.030995607376098633
1771682514399944400,7.8449443359375,0.047122955322265625,0.05049687623977661,-0.43251246213912964
1771682514410302700,7.855302734375,-0.17735767364501953,-0.04989883303642273,-0.1614854633808136
1771682514420661000,7.865660888671875,0.08802413940429688,-0.10224446654319763,0.010751401074230671
1771682514431019300,7.876019287109375,0.16657733917236328,0.08165130019187927,0.17458802461624146
1771682514441377500,7.88637744140625,-0.24676513671875,-0.023533791303634644,0.2799094319343567
1771682514451735800,7.89673583984375,0.2694234848022461,0.004895895719528198,0.13090741634368896
1771682514462094000,7.907093994140625,-0.15372467041015625,-0.04997369647026062,0.12931299209594727
1771682514472452400,7.917452392578125,0.46724891662597656,0.04780271649360657,-0.13362881541252136
1771682514482810600,7.927810546875,-0.05186271667480469,-0.004849493503570557,-0.1288423389196396
1771682514493169000,7.9381689453125,-0.0923147201538086,-0.093048095703125,-0.1542346179485321
1771682514503527200,7.948527099609375,-0.1565237045288086,-0.06425777077674866,0.12873704731464386
1771682514513885400,7.958885498046875,0.09687614440917969,-0.025992125272750854,0.37549465894699097
1771682514524243500,7.969243408203125,-0.14442920684814453,0.031210243701934814,0.2619379758834839
1771682514534602000,7.97960205078125,0.4478721618652344,0.10503977537155151,0.015870433300733566
1771682514544960300,7.989960205078125,-0.6583576202392578,-0.047940611839294434,-0.3437206745147705
1771682514555318500,8.000318603515625,0.5343332290649414,0.08802026510238647,-0.24638338387012482
1771682514565676500,8.010676513671875,-0.7272672653198242,-0.19362005591392517,0.10179905593395233
1771682514576034800,8.021034912109375,1.0336732864379883,0.13107869029045105,0.12486150860786438
1771682514586393300,8.031393310546875,-1.109929084777832,-0.055008918046951294,0.5822691917419434
1771682514596751600,8.041751708984375,1.2105093002319336,-0.0723484456539154,-0.09939303249120712
1771682514607109600,8.052109619140625,-1.036177635192871,0.01668354868888855,0.2125927209854126
1771682514617468000,8.062468017578125,0.4057159423828125,0.013548195362091064,-0.5618017911911011
1771682514627826200,8.072826171875,-0.3257017135620117,0.09281814098358154,-0.11907779425382614
1771682514638184400,8.083184326171875,-0.02889728546142578,-0.22525927424430847,-0.07045907527208328
1771682514648543000,8.09354296875,0.31744956970214844,0.09884148836135864,0.32441985607147217
1771682514658901000,8.10390087890625,-0.6407747268676758,-0.20177429914474487,0.5124585628509521
1771682514669259300,8.11425927734375,1.2969675064086914,0.26738759875297546,0.09120942652225494
1771682514679617500,8.124617431640624,-1.3434772491455078,-0.1205592155456543,-0.04641636461019516
1771682514689975800,8.134975830078124,1.321279525756836,0.20595040917396545,-0.49289870262145996
1771682514700334000,8.145333984375,-1.4197359085083008,-0.2813774347305298,-0.09295570105314255
1771682514710692400,8.1556923828125,1.3000431060791016,0.19422289729118347,0.0166811291128397
1771682514721050600,8.166050537109374,-1.2953252792358398,-0.23095551133155823,0.360272079706192
1771682514731409000,8.176408935546876,1.4551734924316406,0.15614303946495056,0.1878267228603363
1771682514741767200,8.18676708984375,-1.154892921447754,-0.1641063094139099,0.13999061286449432
1771682514752125400,8.19712548828125,1.0152521133422852,0.12257781624794006,-0.10301065444946289
1771682514762483700,8.207483642578126,-0.9468851089477539,-0.051927804946899414,-0.28693023324012756
1771682514772842000,8.217842041015626,0.5830593109130859,0.06042376160621643,-0.22888268530368805
1771682514783200300,8.2282001953125,-0.49010181427001953,-0.18534457683563232,0.0960279107093811
1771682514793558500,8.23855859375,0.5159912109375,-0.03227028250694275,0.22441789507865906
1771682514803916800,8.248916748046875,-0.4042387008666992,-0.017766207456588745,0.382129430770874
1771682514814275000,8.259275146484375,0.601649284362793,0.06309664249420166,0.0943194329738617
1771682514824633300,8.26963330078125,-0.2877664566040039,-0.03720611333847046,-0.1790977120399475
1771682514834991600,8.27999169921875,0.28820037841796875,0.0031293928623199463,-0.44704893231391907
1771682514845350000,8.290349853515625,-0.5503072738647461,-0.08508890867233276,-0.06588208675384521
1771682514855708200,8.300708251953125,0.5299320220947266,-0.018253743648529053,0.13834722340106964
1771682514866066400,8.31106640625,-0.3736286163330078,-0.053845882415771484,0.46127140522003174
1771682514876424700,8.3214248046875,0.41259002685546875,-0.01579350233078003,0.07790515571832657
1771682514886783000,8.331782958984375,-0.46440887451171875,0.04860597848892212,0.0927133858203888
1771682514897141200,8.342141357421875,0.26952362060546875,-0.016169577836990356,-0.1412487030029297
1771682514907499500,8.35249951171875,-0.19180583953857422,0.0697125494480133,-0.17677368223667145
1771682514917857800,8.36285791015625,0.00200653076171875,-0.06647133827209473,-0.21466532349586487
1771682514928216000,8.373216064453125,-0.031409263610839844,0.0028288066387176514,0.11455338448286057
1771682514938574300,8.38357421875,-0.14828777313232422,-0.13557490706443787,0.39382582902908325
1771682514948932600,8.3939326171875,0.16953563690185547,0.04846608638763428,0.32141926884651184
1771682514959291000,8.404290771484375,-0.3989582061767578,0.03406369686126709,0.08280367404222488
1771682514969649200,8.414649169921875,0.13192462921142578,0.11737111210823059,-0.3806473910808563
1771682514980007400,8.42500732421875,-0.016382217407226562,0.04293885827064514,-0.207859605550766
1771682514990365700,8.43536572265625,-0.40540504455566406,-0.04054301977157593,0.01738070696592331
1771682515000724000,8.445723876953124,0.4596576690673828,0.04050189256668091,0.14465230703353882
1771682515011082200,8.456082275390624,-0.7969875335693359,-0.016594290733337402,0.44469568133354187
1771682515021440500,8.4664404296875,0.8662700653076172,0.016404300928115845,0.1288508176803589
1771682515031798800,8.476798828125,-0.8234062194824219,-0.10991242527961731,0.19351539015769958
1771682515042157000,8.487156982421874,0.5009775161743164,0.06671687960624695,-0.2549315392971039
1771682515052515300,8.497515380859374,-0.4765033721923828,0.06432801485061646,-0.12342365086078644
1771682515062873600,8.50787353515625,-0.06477165222167969,-0.13873642683029175,-0.4574540853500366
1771682515073232000,8.51823193359375,0.20270824432373047,0.11471801996231079,0.2788013219833374
1771682515083590100,8.528590087890626,-0.6307926177978516,-0.26528555154800415,0.4309299886226654
1771682515093948400,8.538948486328126,1.526097297668457,0.1411806046962738,0.35828059911727905
1771682515104306700,8.549306640625,-1.563894271850586,-0.06458774209022522,0.13943380117416382
1771682515114665000,8.5596650390625,1.3829936981201172,0.21713629364967346,-0.6575033664703369
1771682515125023200,8.570023193359376,-1.668461799621582,-0.21777132153511047,-0.08560800552368164
1771682515135381500,8.580381591796876,1.7417364120483398,0.13594117760658264,-0.19130666553974152
1771682515145739800,8.59073974609375,-1.4442930221557617,-0.20065367221832275,0.5503224730491638
1771682515156098000,8.60109814453125,1.4999275207519531,0.1407701075077057,0.14589126408100128
1771682515166456300,8.611456298828125,-1.2248334884643555,-0.15054935216903687,0.21013309061527252
1771682515176814600,8.621814697265625,1.0218849182128906,0.0951506495475769,-0.018638188019394875
1771682515187172900,8.6321728515625,-0.9307403564453125,-0.08368626236915588,-0.18293803930282593
1771682515197531100,8.64253125,1.047922134399414,0.11404767632484436,-0.32373160123825073
1771682515207889400,8.652889404296875,-1.348733901977539,-0.11471062898635864,-0.060092758387327194
1771682515218247700,8.66324755859375,1.1250543594360352,-0.06017178297042847,0.08949974179267883
1771682515228605700,8.673605712890625,-1.109487533569336,-0.04987287521362305,0.574894905090332
1771682515238964200,8.683964111328125,1.2944765090942383,-0.0025322437286376953,0.13655655086040497
1771682515249322500,8.694322509765625,-1.119485855102539,0.08368968963623047,0.0031501539051532745
1771682515259680500,8.704680419921875,0.5159406661987305,0.042383551597595215,-0.6148566603660583
1771682515270038800,8.715038818359375,-0.7814168930053711,-0.08638456463813782,-0.02681809291243553
1771682515280397000,8.72539697265625,0.550018310546875,-0.09115126729011536,-0.04277699440717697
1771682515290755600,8.735755615234375,-0.30585670471191406,0.021485209465026855,0.3976794481277466
1771682515301113900,8.74611376953125,0.1603555679321289,0.04025474190711975,0.11629641056060791
1771682515311471900,8.756471923828125,-0.17659664154052734,-0.02180159091949463,0.186656653881073
1771682515321830100,8.766830078125,0.1938161849975586,-0.010022193193435669,-0.04062589257955551
1771682515332188400,8.7771884765625,-0.17185688018798828,0.06642183661460876,-0.26886096596717834
1771682515342546700,8.787546630859374,-0.10458755493164062,-0.012656748294830322,-0.3050670325756073
1771682515352905000,8.797905029296874,-0.08046627044677734,-0.11032068729400635,0.07561998814344406
1771682515363263200,8.80826318359375,0.11784744262695312,-0.1363847255706787,0.3397994339466095
1771682515373621500,8.81862158203125,0.053101539611816406,-0.040467798709869385,0.37090662121772766
1771682515383979800,8.828979736328124,0.12697505950927734,0.13598790764808655,0.09028223901987076
1771682515394338000,8.839338134765624,-0.21705245971679688,0.08079060912132263,-0.16164688766002655
1771682515404696300,8.8496962890625,0.007867813110351562,-0.04141160845756531,-0.39817625284194946
1771682515415054600,8.8600546875,-0.11865997314453125,-0.07700824737548828,-0.1246611475944519
1771682515425412900,8.870412841796876,0.1060037612915039,0.044828832149505615,0.12556077539920807
1771682515435771100,8.880771240234376,-0.14726829528808594,-0.06503784656524658,0.4046841263771057
1771682515446129400,8.89112939453125,0.10849857330322266,0.03761199116706848,0.14638519287109375
1771682515456487700,8.90148779296875,-0.2855978012084961,-0.02701142430305481,-0.0017162319272756577
1771682515466846000,8.911845947265626,0.2831888198852539,-0.0222548246383667,-0.04876714199781418
1771682515477204200,8.922204345703125,-0.10180187225341797,0.025577694177627563,-0.16523659229278564
1771682515487562500,8.9325625,0.23499202728271484,-0.08417847752571106,-0.2326059490442276
1771682515497920800,8.942920654296875,0.08164024353027344,-0.02180767059326172,-0.006805389188230038
1771682515508279000,8.953279052734375,-0.22885417938232422,-0.06944993138313293,0.2518717348575592
1771682515518637300,8.96363720703125,0.65484619140625,0.03817152976989746,0.34581732749938965
1771682515528995600,8.97399560546875,-0.5378179550170898,-0.002647221088409424,0.09358611702919006
1771682515539353900,8.984353759765625,0.7381048202514648,0.16429132223129272,-0.19390155375003815
1771682515549712100,8.994712158203125,-1.1278572082519531,-0.17036157846450806,-0.36420440673828125
1771682515560070400,9.0050703125,1.0971126556396484,0.04008421301841736,-0.2196013480424881
1771682515570428700,9.0154287109375,-1.4189786911010742,-0.08164241909980774,0.3756285607814789
1771682515580787000,9.025786865234375,1.639739990234375,0.03285852074623108,0.02169887349009514
1771682515591145200,9.036145263671875,-1.3861141204833984,-0.033828169107437134,0.43334314227104187
1771682515601503500,9.04650341796875,1.173696517944336,0.10637226700782776,-0.1561926156282425
1771682515611861800,9.05686181640625,-1.2710132598876953,-0.1008855402469635,0.12862403690814972
1771682515622220000,9.067219970703125,1.2742023468017578,0.0726492702960968,-0.4308124780654907
1771682515632578300,9.077578369140625,-1.3688764572143555,-0.08182665705680847,-0.04745827987790108
1771682515642936600,9.0879365234375,0.9235677719116211,-0.06807076930999756,-0.0215633362531662
1771682515653294800,9.098294921875,-0.8235588073730469,-0.05530300736427307,0.3955727815628052
1771682515663653000,9.108653076171874,0.7108821868896484,0.006372392177581787,0.22934359312057495
1771682515674011400,9.119011474609374,-0.49627017974853516,0.20242896676063538,0.16768667101860046
1771682515684369700,9.12936962890625,0.080230712890625,-0.0755336582660675,-0.49167507886886597
1771682515694728000,9.13972802734375,-0.4427042007446289,0.18272334337234497,-0.15846136212348938
1771682515705086200,9.150086181640624,-0.038199424743652344,-0.2238922119140625,-0.14443258941173553
1771682515715444500,9.160444580078124,0.040642738342285156,0.19471636414527893,0.4148463010787964
1771682515725802800,9.170802734375,-0.11219310760498047,-0.1236162781715393,0.21502558887004852
1771682515736161000,9.1811611328125,0.17687511444091797,0.11334142088890076,0.3062860667705536
1771682515746519000,9.19151904296875,-0.1362142562866211,-0.19297832250595093,-0.04306409880518913
1771682515756877300,9.201877197265626,0.23168277740478516,0.13001680374145508,-0.03708464279770851
1771682515767235800,9.21223583984375,-0.18896007537841797,-0.06397607922554016,-0.37434014678001404
1771682515777593900,9.22259375,0.0048274993896484375,0.06781166791915894,-0.14398881793022156
1771682515787952000,9.2329521484375,-0.08586502075195312,-0.11170446872711182,0.12075295299291611
1771682515798310400,9.243310302734375,0.1291494369506836,-0.0013412833213806152,0.4115537703037262
1771682515808668700,9.253668701171875,0.052460670471191406,-0.0756014883518219,0.3450796604156494
1771682515819027000,9.26402685546875,0.2361135482788086,0.06783777475357056,0.009045612066984177
1771682515829385200,9.27438525390625,-0.32299232482910156,-0.0660792887210846,-0.3610750734806061
1771682515839743500,9.284743408203125,0.028685569763183594,-0.044516950845718384,-0.3055405914783478
1771682515850101800,9.295101806640625,-0.14085674285888672,-0.06339782476425171,-0.004119730554521084
1771682515860460000,9.3054599609375,-0.014000892639160156,0.005956888198852539,0.3224976360797882
1771682515870818300,9.315818359375,0.21039867401123047,0.039335548877716064,0.21911266446113586
1771682515881176600,9.326176513671875,-0.24600696563720703,-0.037288665771484375,0.20731224119663239
1771682515891534800,9.336534912109375,0.26540279388427734,-0.011149466037750244,-0.04847395047545433
1771682515901893000,9.34689306640625,-0.2818470001220703,0.010337740182876587,-0.11903350055217743
1771682515912251400,9.35725146484375,0.13656330108642578,0.017325639724731445,-0.3083685040473938
1771682515922609700,9.367609619140625,0.0670003890991211,-0.0829247236251831,-0.12088598310947418
1771682515932968000,9.377968017578125,0.1599254608154297,-0.07325449585914612,0.39647212624549866
1771682515943326200,9.388326171875,-0.10780811309814453,-0.12786632776260376,0.3251740336418152
1771682515953684500,9.3986845703125,0.28153038024902344,0.046421170234680176,0.1729927659034729
1771682515964042800,9.409042724609375,-0.1392536163330078,0.12498611211776733,-0.1409456431865692
1771682515974401000,9.419401123046875,-0.2797222137451172,-0.04016515612602234,-0.37274983525276184
1771682515984759300,9.42975927734375,0.3153076171875,-0.04498514533042908,-0.18321159482002258
1771682515995117600,9.44011767578125,-0.6235141754150391,-0.085346519947052,0.048940543085336685
1771682516005475800,9.450475830078124,0.7791309356689453,0.10083141922950745,0.3272523880004883
1771682516015834000,9.460834228515624,-0.9127092361450195,-0.14748740196228027,0.26102572679519653
1771682516026192400,9.4711923828125,1.228205680847168,0.11736223101615906,0.01768215373158455
1771682516036550700,9.481550537109374,-1.5627174377441406,-0.03766191005706787,0.18147492408752441
1771682516046909000,9.491908935546874,1.5584354400634766,0.1360887885093689,-0.5656561255455017
1771682516057267200,9.50226708984375,-1.8372020721435547,-0.05685994029045105,0.08756022900342941
1771682516067625500,9.51262548828125,1.3705673217773438,-0.0692969560623169,-0.38151416182518005
1771682516077983700,9.522983642578126,-1.153397560119629,-0.06136235594749451,0.5841074585914612
1771682516088342000,9.533342041015626,0.7828636169433594,-0.09526985883712769,0.23671628534793854
1771682516098700300,9.5437001953125,-0.4220857620239258,0.12974512577056885,0.32005709409713745
1771682516109058600,9.55405859375,0.015790939331054688,-0.07398131489753723,-0.2409917265176773
1771682516119416800,9.564416748046876,0.14939403533935547,0.09602084755897522,-0.4204517602920532
1771682516129775000,9.574775146484376,-0.8773012161254883,-0.2410973310470581,-0.07399056106805801
1771682516140133400,9.58513330078125,0.9293308258056641,0.12253212928771973,0.10473492741584778
1771682516150491400,9.595491455078125,-0.8273124694824219,-0.21446549892425537,0.38656604290008545
1771682516160849700,9.605849609375,0.9815874099731445,0.26592791080474854,0.24933578073978424
1771682516171208000,9.6162080078125,-1.0401191711425781,-0.27204763889312744,-0.04893516004085541
1771682516181566200,9.626566162109375,1.0199356079101562,0.22990891337394714,0.008699648082256317
1771682516191924500,9.636924560546875,-1.214299201965332,-0.28643256425857544,-0.37980687618255615
1771682516202282800,9.64728271484375,1.1827325820922852,0.20368826389312744,-0.21067070960998535
1771682516212641000,9.65764111328125,-0.8514270782470703,-0.25744104385375977,0.0586119145154953
1771682516222999300,9.667999267578125,0.974247932434082,0.06301701068878174,0.31384727358818054
1771682516233357600,9.678357666015625,-0.7300071716308594,-0.14475563168525696,0.34941908717155457
1771682516243715800,9.6887158203125,0.9855823516845703,0.2276819348335266,0.11004462838172913
1771682516254074000,9.69907421875,-0.7210884094238281,-0.08791017532348633,-0.1903562694787979
1771682516264432400,9.709432373046875,0.48131847381591797,0.05506187677383423,-0.41249576210975647
1771682516274790700,9.719790771484375,-0.8374290466308594,-0.14779242873191833,-0.04329075664281845
1771682516285149000,9.73014892578125,0.8855886459350586,0.06241002678871155,0.20880655944347382
1771682516295507200,9.740507080078125,-0.560673713684082,-0.04260227084159851,0.3924318850040436
1771682516305865500,9.750865478515625,0.319091796875,0.043283611536026,0.08636751770973206
1771682516316223700,9.7612236328125,-0.32853221893310547,-0.08586087822914124,0.13878297805786133
1771682516326582000,9.77158203125,0.5434894561767578,0.019290268421173096,-0.14436228573322296
1771682516336940300,9.781940185546874,-0.4149904251098633,0.14333564043045044,-0.22560635209083557
1771682516347298600,9.792298583984374,-0.012966156005859375,-0.09566661715507507,-0.3754327595233917
1771682516357656800,9.80265673828125,0.10163593292236328,-0.002362757921218872,0.1142248660326004
1771682516368015000,9.81301513671875,-0.08718395233154297,-0.09295439720153809,0.4867092967033386
1771682516378373400,9.823373291015624,0.14455509185791016,-0.03539782762527466,0.34705206751823425
1771682516388731600,9.833731689453124,0.1370372772216797,0.09588223695755005,0.04141579195857048
1771682516399090000,9.84408984375,-0.3311290740966797,0.033624738454818726,-0.2779083251953125
1771682516409448200,9.8544482421875,-0.010457992553710938,-0.05014544725418091,-0.36610355973243713
1771682516419806500,9.864806396484376,-0.1273946762084961,-0.002118527889251709,-0.004732574336230755
1771682516430164700,9.875164794921876,0.2571983337402344,-0.0020107924938201904,0.37966567277908325
1771682516440523000,9.88552294921875,-0.06089305877685547,-0.05692532658576965,0.2613152861595154
1771682516450881300,9.89588134765625,0.1349925994873047,0.06706124544143677,0.17491257190704346
1771682516461239600,9.906239501953126,-0.7914409637451172,-0.01660582423210144,0.03753301501274109
1771682516471597800,9.916597900390625,0.7906494140625,-0.0194094181060791,-0.1359149068593979
1771682516481956000,9.9269560546875,-0.8415546417236328,-0.0357794463634491,-0.18365946412086487
1771682516492314400,9.937314453125,0.4613924026489258,-0.028800785541534424,-0.21667128801345825
1771682516502672600,9.947672607421875,-0.7308120727539062,-0.1763613224029541,0.36867234110832214
1771682516513030700,9.95803076171875,0.9251184463500977,-0.03549274802207947,0.08053375035524368
1771682516523389000,9.968388916015625,-0.4830646514892578,0.1558946967124939,0.5004975199699402
1771682516533747200,9.978747314453125,0.4371156692504883,-0.005120724439620972,-0.4126770496368408
1771682516544105500,9.98910546875,-0.12490558624267578,0.10981196165084839,-0.14418527483940125
1771682516554463700,9.999463623046875,-0.4491729736328125,-0.17746609449386597,-0.2053048461675644
1771682516564822000,10.009822021484375,0.6093015670776367,0.0978158712387085,0.0655667781829834
1771682516575180300,10.02018017578125,-0.6978073120117188,-0.2106025218963623,0.4254487454891205
1771682516585538600,10.03053857421875,1.201472282409668,0.11696118116378784,0.0967971682548523
1771682516595896800,10.040896728515625,-1.5893659591674805,-0.17442354559898376,0.2016347497701645
1771682516606255000,10.051255126953125,1.6941442489624023,0.26485753059387207,-0.25500866770744324
1771682516616613400,10.06161328125,-1.5371122360229492,-0.050640612840652466,-0.19113963842391968
1771682516626971600,10.0719716796875,1.378687858581543,0.19989538192749023,-0.15618643164634705
1771682516637330000,10.082329833984375,-1.419764518737793,-0.3636094033718109,0.0766393393278122
1771682516647688200,10.092688232421875,1.5052919387817383,0.10246223211288452,0.41424813866615295
1771682516658046500,10.10304638671875,-1.4128265380859375,-0.18380090594291687,0.3724820911884308
1771682516668404700,10.11340478515625,1.5766706466674805,0.23144829273223877,-0.06264428049325943
1771682516678763000,10.123762939453124,-1.5683746337890625,-0.03604257106781006,-0.2888340353965759
1771682516689121300,10.134121337890624,1.2759151458740234,-0.005443960428237915,-0.23339423537254333
1771682516699479600,10.1444794921875,-1.2430267333984375,-0.14345309138298035,0.16103796660900116
1771682516709837800,10.154837890625,1.0108909606933594,0.15015333890914917,0.15072153508663177
1771682516720196000,10.165196044921874,-0.7316665649414062,-0.14100268483161926,0.3555832505226135
1771682516730554400,10.175554443359376,0.7858314514160156,-0.07666370272636414,0.13078375160694122
1771682516740912600,10.18591259765625,-0.8797712326049805,-0.0047022998332977295,0.20058929920196533
1771682516751271000,10.19627099609375,0.9078130722045898,0.16186785697937012,-0.3995562791824341
1771682516761629200,10.206629150390626,-0.7437820434570312,-0.05777460336685181,-0.09043552726507187
1771682516771987500,10.216987548828126,0.3560457229614258,-0.1009891927242279,-0.1570339798927307
1771682516782345700,10.227345703125,-0.5566320419311523,-0.18159997463226318,0.37226662039756775
1771682516792704000,10.2377041015625,0.8458518981933594,0.0023070573806762695,0.2676984965801239
1771682516803062300,10.248062255859375,-0.5812139511108398,0.10742443799972534,0.3400075137615204
1771682516813420300,10.258420166015625,0.4633045196533203,0.004188060760498047,-0.49956464767456055
1771682516823778600,10.268778564453125,-0.516453742980957,0.03750896453857422,-0.07730746269226074
1771682516834137000,10.27913720703125,0.3321819305419922,-0.08226042985916138,-0.07022229582071304
1771682516844495000,10.2894951171875,0.032998085021972656,0.056359827518463135,0.23464280366897583
1771682516854853400,10.299853271484375,-0.2057666778564453,-0.09656104445457458,0.20149926841259003
1771682516865211600,10.310211669921875,0.01912212371826172,-0.06788662075996399,0.1430816501379013
1771682516875570000,10.32056982421875,0.016687393188476562,-0.04864451289176941,0.11739927530288696
1771682516885928200,10.33092822265625,-0.10746955871582031,0.20207321643829346,-0.16662684082984924
1771682516896286500,10.341286376953125,-0.35065269470214844,0.16806775331497192,-0.25705111026763916
1771682516906644700,10.351644775390625,-0.23282623291015625,-0.0876418948173523,-0.3352528512477875
1771682516917003000,10.3620029296875,0.17829608917236328,-0.11614924669265747,0.29305893182754517
1771682516927361300,10.372361328125,-0.21121978759765625,-0.12034347653388977,0.5061214566230774
1771682516937719600,10.382719482421875,0.7392768859863281,0.06127268075942993,0.18339991569519043
1771682516948077800,10.393077880859375,-0.6660432815551758,0.06367087364196777,-0.13654208183288574
1771682516958436000,10.40343603515625,0.0707864761352539,0.10136759281158447,-0.4153883457183838
1771682516968794400,10.41379443359375,-0.22536182403564453,-0.06592458486557007,0.0005531394854187965
1771682516979152600,10.424152587890624,0.09027385711669922,0.058209240436553955,-0.022941995412111282
1771682516989511000,10.434510986328124,-0.2393503189086914,0.0726117491722107,0.5402547121047974
1771682516999869200,10.444869140625,-0.06688213348388672,-0.21664884686470032,-0.0700378268957138
1771682517010227500,10.4552275390625,0.17195987701416016,0.18027281761169434,0.21238279342651367
1771682517020585700,10.465585693359374,-0.8190011978149414,-0.08526390790939331,-0.08952595293521881
1771682517030944000,10.475944091796874,1.4099760055541992,0.28476274013519287,-0.3861488103866577
1771682517041302300,10.48630224609375,-1.7728424072265625,-0.16903498768806458,-0.013308818452060223
1771682517051660500,10.49666064453125,1.2557392120361328,-0.09978961944580078,-0.1695389598608017
1771682517062018800,10.507018798828126,-1.4278545379638672,-0.1657712459564209,0.6750935912132263
1771682517072377000,10.517377197265626,1.449502944946289,0.13718944787979126,0.06259730458259583
1771682517082735400,10.5277353515625,-1.270369529724121,0.02985215187072754,0.1894032061100006
1771682517093093600,10.53809375,0.725860595703125,0.0695846676826477,-0.5007756352424622
1771682517103452000,10.548451904296876,-0.8131036758422852,0.09846645593643188,-0.03696727752685547
1771682517113810200,10.55881005859375,0.46353816986083984,-0.05279532074928284,-0.024357276037335396
1771682517124168400,10.56916845703125,-0.36110687255859375,0.10057026147842407,0.3775956630706787
1771682517134526700,10.579526611328125,0.32007789611816406,-0.22964757680892944,0.12548120319843292
1771682517144885000,10.589885009765625,-0.4302101135253906,0.07918030023574829,0.27135947346687317
1771682517155243000,10.600242919921875,0.4062843322753906,-0.11003601551055908,-0.13432033360004425
1771682517165601300,10.610601318359375,-0.13177967071533203,0.32480859756469727,-0.16591930389404297
1771682517175959600,10.62095947265625,-0.17918014526367188,-0.10100764036178589,-0.2882457971572876
1771682517186317800,10.63131787109375,0.08382511138916016,-0.15812373161315918,0.037196457386016846
1771682517196676000,10.641676025390625,-0.06914806365966797,-0.13375771045684814,0.4051026999950409
1771682517207034400,10.652034423828125,0.4632911682128906,0.028859615325927734,0.3131963908672333
1771682517217392600,10.662392578125,-0.1584453582763672,0.052633583545684814,0.06021718680858612
1771682517227751000,10.6727509765625,0.12599945068359375,0.05461752414703369,-0.46541863679885864
1771682517238109200,10.683109130859375,-0.17983341217041016,0.049747347831726074,-0.14148448407649994
1771682517248467500,10.693467529296875,0.17388057708740234,-0.14153313636779785,-0.024938995018601418
1771682517258825700,10.70382568359375,0.11137962341308594,0.07857459783554077,0.33344754576683044
1771682517269184000,10.71418408203125,-0.1490612030029297,-0.18903252482414246,0.21339277923107147
1771682517279542300,10.724542236328125,0.1687612533569336,-0.011956095695495605,0.16775786876678467
1771682517289900500,10.734900634765625,-0.2111663818359375,-0.16948005557060242,0.012940481305122375
1771682517300258800,10.7452587890625,0.5746393203735352,0.29623085260391235,-0.24959208071231842
1771682517310617000,10.7556171875,-0.6703453063964844,-0.1316518485546112,-0.17039915919303894
1771682517320975400,10.765975341796874,0.5963602066040039,-0.07173603773117065,-0.08394508063793182
1771682517331333600,10.776333740234374,-0.7178926467895508,-0.2577524185180664,0.4291110038757324
1771682517341692000,10.78669189453125,0.8616056442260742,0.00542217493057251,0.29750221967697144
1771682517352050200,10.79705029296875,-0.6132240295410156,-0.08776271343231201,0.22967734932899475
1771682517362408400,10.807408447265624,0.40749168395996094,0.15111851692199707,-0.3548080027103424
1771682517372766700,10.8177666015625,-0.3763999938964844,-0.1478232443332672,-0.3070722222328186
1771682517383125000,10.828125,0.5076751708984375,-0.021035492420196533,-0.054709672927856445
1771682517393483300,10.838483154296876,-0.4435539245605469,-0.0687418282032013,0.08988408744335175
1771682517403841500,10.848841552734376,0.2950925827026367,-0.08058860898017883,0.24026936292648315
1771682517414199800,10.85919970703125,-0.22119617462158203,-0.10678911209106445,0.2209998071193695
1771682517424558000,10.86955810546875,0.27105045318603516,-0.05648300051689148,0.12270452082157135
1771682517434916400,10.879916259765626,0.30856895446777344,0.1010429859161377,-0.18464931845664978
1771682517445274400,10.8902744140625,-0.5705623626708984,0.1891435980796814,-0.26126155257225037
1771682517455632600,10.900632568359375,0.36173248291015625,-0.13834857940673828,-0.27237531542778015
1771682517465991000,10.910990966796875,-0.5986843109130859,-0.27878624200820923,0.21684755384922028
1771682517476349200,10.92134912109375,0.9470996856689453,0.10139608383178711,0.46552613377571106
1771682517486707500,10.93170751953125,-0.9480381011962891,-0.049125999212265015,0.3281809985637665
1771682517497065700,10.942065673828125,1.2645635604858398,0.15115773677825928,-0.324807733297348
1771682517507424000,10.952424072265625,-1.5550785064697266,0.045923471450805664,-0.21190999448299408
1771682517517782300,10.9627822265625,1.29156494140625,0.014259576797485352,-0.3601655066013336
1771682517528140500,10.973140625,-0.9720211029052734,-0.04032185673713684,0.21201841533184052
1771682517538498800,10.983498779296875,0.6057462692260742,0.007120013236999512,0.19097284972667694
1771682517548857000,10.993857177734375,-0.4078083038330078,-0.07608583569526672,0.17512984573841095
1771682517559215400,11.00421533203125,-0.09886741638183594,-0.10248443484306335,0.14324456453323364
1771682517569573600,11.01457373046875,0.552978515625,0.1604887843132019,-0.2072630524635315
1771682517579932000,11.024931884765625,-0.632267951965332,0.06685405969619751,-0.15629921853542328
1771682517590290200,11.035290283203125,0.6963901519775391,0.042920827865600586,-0.3169194161891937
1771682517600648400,11.0456484375,-0.9058008193969727,-0.3390544056892395,0.15529291331768036
1771682517611006700,11.0560068359375,0.9534187316894531,0.12494251132011414,0.42132294178009033
1771682517621365000,11.066364990234375,-0.6224699020385742,-0.14304423332214355,0.17560791969299316
1771682517631723300,11.07672314453125,0.7849302291870117,0.21776604652404785,0.05995241552591324
1771682517642081500,11.08708154296875,-0.5059099197387695,-0.1744908094406128,-0.5168092250823975
1771682517652439800,11.097439697265624,0.2662982940673828,0.17691317200660706,-0.007904903031885624
1771682517662798000,11.107798095703124,-0.17831134796142578,-0.15783315896987915,-0.06434881687164307
1771682517673156400,11.11815625,0.2016315460205078,0.00025707483291625977,0.42358729243278503
1771682517683514600,11.1285146484375,0.11520671844482422,-0.11916980147361755,0.14281994104385376
1771682517693873000,11.138872802734374,-0.4722452163696289,-0.047288984060287476,0.26524731516838074
1771682517704231000,11.14923095703125,0.4502706527709961,0.07428732514381409,-0.052807219326496124
1771682517714589200,11.159589111328126,-0.3790874481201172,0.1504582166671753,-0.255622535943985
1771682517724947700,11.16994775390625,0.12309932708740234,-0.007533639669418335,-0.14036613702774048
1771682517735305700,11.1803056640625,-0.6051912307739258,-0.19615933299064636,0.01938670128583908
1771682517745664000,11.1906640625,0.47756195068359375,0.014350861310958862,0.4683648347854614
1771682517756022300,11.201022216796876,-0.4473438262939453,-0.12640666961669922,0.2813272476196289
1771682517766380500,11.211380615234376,0.5705785751342773,0.19353726506233215,0.12076708674430847
1771682517776738800,11.22173876953125,-0.8438625335693359,-0.08849167823791504,-0.389769583940506
1771682517787097000,11.23209716796875,0.6571979522705078,0.11672729253768921,-0.152945876121521
1771682517797455400,11.242455322265625,-0.7455224990844727,-0.024347960948944092,0.010095004923641682
1771682517807813600,11.252813720703125,0.7863101959228516,0.102131187915802,0.2907131612300873
1771682517818172000,11.263171875,-0.6764039993286133,-0.14631572365760803,0.2386493682861328
1771682517828530200,11.2735302734375,0.5378141403198242,0.1426490843296051,0.18705891072750092
1771682517838888400,11.283888427734375,-0.6521844863891602,-0.06526076793670654,0.04530284181237221
1771682517849246700,11.294246826171875,0.7409896850585938,0.3403947055339813,-0.2834324538707733
1771682517859605000,11.30460498046875,-0.7836828231811523,-0.015807002782821655,-0.08534190058708191
1771682517869963300,11.31496337890625,0.6790370941162109,-0.09957733750343323,-0.12048599123954773
1771682517880321500,11.325321533203125,-0.6330480575561523,-0.10148879885673523,0.4207158088684082
1771682517890679800,11.3356796875,0.6717510223388672,-0.036812543869018555,0.20874251425266266
1771682517901038000,11.3460380859375,-0.32047462463378906,0.06124189496040344,0.21655775606632233
1771682517911396400,11.356396240234375,0.17201709747314453,0.09209558367729187,-0.4260537624359131
1771682517921754600,11.366754638671875,-0.21268367767333984,0.05346742272377014,-0.2319161295890808
1771682517932113000,11.37711279296875,0.057555198669433594,-0.10170865058898926,-0.11170002073049545
1771682517942471200,11.38747119140625,0.18869304656982422,0.05121922492980957,0.3461530804634094
1771682517952829400,11.397829345703125,-0.10537052154541016,-0.12298393249511719,0.18378010392189026
1771682517963187700,11.408187744140625,0.11449718475341797,0.01310276985168457,0.11077365279197693
1771682517973546000,11.4185458984375,-0.10060882568359375,-0.08236375451087952,0.08107604086399078
1771682517983904300,11.428904296875,0.26006317138671875,0.15399295091629028,-0.1460728645324707
1771682517994262300,11.43926220703125,-0.1558990478515625,0.0939769446849823,-0.19791755080223083
1771682518004620500,11.44962060546875,0.07124805450439453,-0.13076725602149963,-0.31269383430480957
1771682518014978800,11.459978759765624,-0.22170352935791016,-0.11684486269950867,0.3065614402294159
1771682518025337000,11.470337158203124,0.2666959762573242,-0.11250513792037964,0.4079980254173279
1771682518035695400,11.4806953125,0.1798992156982422,0.07993614673614502,0.29983407258987427
1771682518046053600,11.4910537109375,-0.06545066833496094,0.036167681217193604,-0.2713744342327118
1771682518056412000,11.501411865234376,-0.18669795989990234,0.09882748126983643,-0.4227712154388428
1771682518066770200,11.511770263671876,-0.18594074249267578,-0.041603654623031616,-0.05735902860760689
1771682518077128400,11.52212841796875,0.3771629333496094,-0.026875436305999756,0.15460804104804993
1771682518087486700,11.53248681640625,-0.06442070007324219,-0.02403518557548523,0.31697237491607666
1771682518097845000,11.542844970703126,0.04724884033203125,-0.08966153860092163,0.059856634587049484
1771682518108203300,11.553203369140626,-0.26177406311035156,-0.019954174757003784,0.08764497190713882
1771682518118561500,11.5635615234375,0.3872966766357422,0.08382457494735718,-0.10584543645381927
1771682518128919800,11.573919921875,-0.17444992065429688,0.1718173623085022,-0.19659116864204407
1771682518139278000,11.584278076171875,0.07786273956298828,-0.10388672351837158,-0.3151324391365051
1771682518149636400,11.59463623046875,-0.278717041015625,-0.10000774264335632,0.04646145552396774
1771682518159994600,11.60499462890625,0.16356182098388672,-0.04635307192802429,0.4756852388381958
1771682518170353000,11.615352783203125,0.28319835662841797,-0.05043092370033264,0.2735842168331146
1771682518180711200,11.625711181640625,0.1655292510986328,0.02580389380455017,-0.06380724906921387
1771682518191069400,11.6360693359375,-0.25368595123291016,0.11216557025909424,-0.4609525203704834
1771682518201427700,11.646427734375,-0.2212209701538086,0.025568455457687378,-0.17532943189144135
1771682518211786000,11.656785888671875,0.30952930450439453,-0.12552887201309204,-0.041212812066078186
1771682518222144300,11.667144287109375,-0.0038661956787109375,0.008367478847503662,0.3312259912490845
1771682518232502300,11.677502197265625,0.012669563293457031,-0.0459115207195282,0.1351686269044876
1771682518242860500,11.687860595703125,-0.12165164947509766,-0.06882047653198242,0.22238518297672272
1771682518253219000,11.698218994140625,0.11331558227539062,-0.0018132925033569336,0.0011378917843103409
1771682518263577000,11.7085771484375,0.2526111602783203,0.14160192012786865,-0.2724449932575226
1771682518273935400,11.718935302734375,-0.3116025924682617,0.02398735284805298,-0.23454998433589935
1771682518284293600,11.729293701171875,0.07948875427246094,-0.11785557866096497,-0.09993981570005417
1771682518294652000,11.73965185546875,-0.2230243682861328,-0.15566813945770264,0.5050496459007263
1771682518305010200,11.75001025390625,0.5830545425415039,-0.07792401313781738,0.34548571705818176
1771682518315368400,11.760368408203124,-0.18666744232177734,0.1516491174697876,0.1688174307346344
1771682518325726700,11.770726806640624,0.07527828216552734,0.0877392590045929,-0.505023717880249
1771682518336085000,11.7810849609375,-0.5353918075561523,-0.007801353931427002,-0.21847891807556152
1771682518346443300,11.791443359375,0.2805948257446289,-0.07834237813949585,-0.02439083904027939
1771682518356801500,11.801801513671874,0.010038375854492188,0.09941232204437256,0.24622036516666412
1771682518367159800,11.812159912109376,0.07575511932373047,-0.09050184488296509,0.20699651539325714
1771682518377518000,11.82251806640625,-0.16550064086914062,-0.027961671352386475,0.17753483355045319
1771682518387876400,11.83287646484375,-0.22627735137939453,-0.055691808462142944,0.07715466618537903
1771682518398234600,11.843234619140626,0.4198589324951172,0.19679558277130127,-0.23286649584770203
1771682518408593000,11.853593017578126,-0.3071413040161133,0.017084330320358276,-0.22169129550457
1771682518418951200,11.863951171875,-0.024372100830078125,-0.15034219622612,-0.22501002252101898
1771682518429309400,11.874309326171876,-0.20514392852783203,-0.08426755666732788,0.3126000761985779
1771682518439667700,11.884667724609375,0.5112133026123047,-0.09458863735198975,0.28422120213508606
1771682518450026000,11.89502587890625,-0.07378005981445312,0.022320657968521118,0.26295459270477295
1771682518460384300,11.90538427734375,-0.05372905731201172,0.05016160011291504,-0.14032895863056183
1771682518470742500,11.915742431640625,-0.003406524658203125,0.06317639350891113,-0.4281502664089203
1771682518481100500,11.9261005859375,-0.1092367172241211,-0.05783712863922119,-0.1308189332485199
1771682518491459000,11.936458984375,0.18906402587890625,-0.04760536551475525,0.0847831666469574
1771682518501817300,11.9468173828125,-0.2799825668334961,-0.0018825829029083252,0.34260672330856323
1771682518512175400,11.95717529296875,0.3246955871582031,0.002649158239364624,0.0305724386125803
1771682518522533600,11.96753369140625,-0.30425262451171875,-0.06317690014839172,0.16726212203502655
1771682518532892000,11.977891845703125,0.2914085388183594,-0.03632509708404541,-0.01349545642733574
1771682518543250200,11.988250244140625,0.013617515563964844,0.2700796127319336,-0.2329007387161255
1771682518553608400,11.9986083984375,-0.22896766662597656,-0.07320573925971985,-0.34136345982551575
1771682518563966700,12.008966796875,-0.022788047790527344,-0.1286003589630127,-0.026268698275089264
1771682518574325000,12.019324951171875,-0.05065727233886719,-0.15682199597358704,0.5354428291320801
1771682518584683300,12.029683349609375,0.7031469345092773,0.038404494524002075,0.27630680799484253
1771682518595041500,12.04004150390625,-0.5203514099121094,0.06151631474494934,0.009155619889497757
1771682518605399800,12.05039990234375,0.354217529296875,0.046106547117233276,-0.4782527685165405
1771682518615758000,12.060758056640625,-0.6352148056030273,0.0029633939266204834,-0.13333362340927124
1771682518626116400,12.071116455078124,0.6342039108276367,-0.023112386465072632,-0.13143664598464966
1771682518636474600,12.081474609375,-0.40930747985839844,-0.025101929903030396,0.2090129256248474
1771682518646833000,12.0918330078125,0.07515716552734375,-0.034056127071380615,0.20390477776527405
1771682518657191200,12.102191162109374,-0.11667537689208984,0.018131345510482788,0.1955515742301941
1771682518667549400,12.112549560546874,0.2593860626220703,-0.024546265602111816,0.0049138981848955154
1771682518677907700,12.12290771484375,0.02447795867919922,0.09813225269317627,-0.21381157636642456
1771682518688266000,12.133265869140626,-0.29828548431396484,0.14594802260398865,-0.22902324795722961
1771682518698624300,12.143624267578126,0.021979331970214844,-0.09644481539726257,-0.25382813811302185
1771682518708982500,12.153982421875,0.07102012634277344,-0.12061905860900879,0.2913210988044739
1771682518719340800,12.1643408203125,0.039244651794433594,-0.09033405780792236,0.37901708483695984
1771682518729699000,12.174698974609376,0.21977519989013672,0.1369091272354126,0.2356741726398468
1771682518740057300,12.185057373046876,-0.08741950988769531,0.061663687229156494,-0.13891904056072235
1771682518750415400,12.195415283203126,-0.00360107421875,-0.003038167953491211,-0.38415977358818054
1771682518760773600,12.205773681640625,-0.1988363265991211,-0.1277151107788086,-0.07815272361040115
1771682518771132000,12.2161318359375,0.2727231979370117,0.12132850289344788,-0.030916202813386917
1771682518781490200,12.226490234375,-0.31536388397216797,-0.014587938785552979,0.34660854935646057
1771682518791848400,12.236848388671875,0.20284080505371094,-0.10390111804008484,0.10546635091304779
1771682518802206700,12.247206787109375,-0.14406776428222656,-0.0340176522731781,0.21738138794898987
1771682518812565000,12.25756494140625,0.3806886672973633,0.07705414295196533,-0.09393250197172165
1771682518822923300,12.26792333984375,-0.16918277740478516,0.1486891806125641,-0.23175223171710968
1771682518833281500,12.278281494140625,-0.29813385009765625,-0.10074704885482788,-0.32369905710220337
1771682518843639800,12.288639892578125,0.15860557556152344,-0.05209198594093323,0.012525886297225952
1771682518853998000,12.298998046875,0.06654739379882812,-0.10059618949890137,0.3635083734989166
1771682518864356400,12.3093564453125,0.23720455169677734,0.006940513849258423,0.33125731348991394
1771682518874714600,12.319714599609375,-0.19263648986816406,0.023333996534347534,0.129072368144989
1771682518885073000,12.330072998046875,0.07882404327392578,0.14267802238464355,-0.49438807368278503
1771682518895431200,12.34043115234375,-0.13659954071044922,-0.02690306305885315,-0.23910531401634216
1771682518905789400,12.35078955078125,0.0703897476196289,-0.13953986763954163,-0.05854911357164383
1771682518916147700,12.361147705078125,0.06215953826904297,0.11688214540481567,0.26885074377059937
1771682518926506000,12.371506103515625,0.0022974014282226562,-0.08502647280693054,0.21561940014362335
1771682518936864300,12.3818642578125,0.07755851745605469,-0.05781063437461853,0.19264674186706543
1771682518947222500,12.392222412109374,-0.09079360961914062,-0.06634235382080078,0.05442973971366882
1771682518957580800,12.402580810546874,0.12249755859375,0.28514596819877625,-0.3683995306491852
1771682518967939000,12.41293896484375,-0.3477926254272461,-0.02761867642402649,-0.17583522200584412
1771682518978297300,12.42329736328125,0.1968374252319336,-0.17083188891410828,-0.15718835592269897
1771682518988655400,12.4336552734375,-0.23703289031982422,-0.07618042826652527,0.29972022771835327
1771682518999013600,12.444013671875,0.32927513122558594,0.023829609155654907,0.23341599106788635
1771682519009372000,12.454371826171876,-0.1115102767944336,0.09170675277709961,0.30041664838790894
1771682519019730200,12.464730224609376,0.08564090728759766,-0.006314486265182495,-0.2426854372024536
1771682519030088400,12.47508837890625,0.06540298461914062,0.13946747779846191,-0.40867844223976135
1771682519040446700,12.48544677734375,-0.3333444595336914,-0.07210642099380493,-0.12127304822206497
1771682519050805000,12.495804931640626,0.2557535171508789,0.0088900625705719,0.1055087298154831
1771682519061163300,12.506163330078126,-0.20969772338867188,0.004259228706359863,0.2762407064437866
1771682519071521500,12.516521484375,0.5043973922729492,-0.04778242111206055,0.08278173953294754
1771682519081879800,12.5268798828125,-0.5722541809082031,-0.06806224584579468,0.21711046993732452
1771682519092238000,12.537238037109375,0.5761251449584961,0.06215566396713257,-0.14706949889659882
1771682519102596400,12.547596435546875,-0.421722412109375,0.2377522885799408,-0.254661500453949
1771682519112954600,12.55795458984375,0.04648113250732422,-0.11440619826316833,-0.27166786789894104
1771682519123313000,12.56831298828125,-0.20840835571289062,-0.15487393736839294,0.15371106564998627
1771682519133671200,12.578671142578125,0.17859268188476562,-0.09107697010040283,0.30625274777412415
1771682519144029400,12.589029541015625,0.0603179931640625,0.0634213387966156,0.29915645718574524
1771682519154387700,12.5993876953125,-0.08892345428466797,-0.022364169359207153,0.1372581273317337
1771682519164746000,12.60974609375,0.4466838836669922,0.0766877830028534,-0.4345157742500305
1771682519175104300,12.620104248046875,-0.4266395568847656,0.061208903789520264,-0.30022791028022766
1771682519185462500,12.630462646484375,0.04870891571044922,-0.09754100441932678,-0.043358832597732544
1771682519195820800,12.64082080078125,0.15613555908203125,-0.027701735496520996,0.4249121844768524
1771682519206179000,12.651178955078125,0.09705066680908203,-0.038842618465423584,0.1906241774559021
1771682519216537300,12.661537353515625,0.04132843017578125,-0.03369569778442383,0.07122936844825745
1771682519226895400,12.671895263671875,-0.24407386779785156,-0.033095359802246094,0.05305749550461769
1771682519237253600,12.682253662109375,0.42824268341064453,0.22372108697891235,-0.26881757378578186
1771682519247612000,12.69261181640625,-0.38126564025878906,0.01086542010307312,-0.16683681309223175
1771682519257970200,12.70297021484375,0.19216156005859375,-0.14010930061340332,-0.25440657138824463
1771682519268328400,12.713328369140624,-0.32633209228515625,-0.03668072819709778,0.30988219380378723
1771682519278686700,12.723686767578124,0.23204803466796875,-0.0031503140926361084,0.29554396867752075
1771682519289045000,12.734044921875,-0.016523361206054688,0.03923264145851135,0.28838714957237244
1771682519299403300,12.7444033203125,0.14610671997070312,0.010259449481964111,-0.198098823428154
1771682519309761500,12.754761474609374,0.049567222595214844,0.14400017261505127,-0.4379573464393616
1771682519320119800,12.765119873046874,-0.26891040802001953,-0.1077718436717987,-0.19935284554958344
1771682519330478000,12.77547802734375,0.26733970642089844,-0.00952640175819397,0.07603070884943008
1771682519340836400,12.78583642578125,-0.09241962432861328,-0.030381888151168823,0.355302631855011
1771682519351194600,12.796194580078126,0.3867769241333008,0.019391506910324097,0.023993555456399918
1771682519361553000,12.806552978515626,-0.34438037872314453,-0.06795176863670349,0.22463610768318176
1771682519371911200,12.8169111328125,-0.0068683624267578125,-0.08584889769554138,-0.0207318514585495
1771682519382269400,12.82726953125,0.20737266540527344,0.301319420337677,-0.27976569533348083
1771682519392627700,12.837627685546876,-0.4384431838989258,-0.2094842791557312,-0.340568870306015
1771682519402986000,12.847986083984376,0.3029909133911133,-0.034372180700302124,0.033887188881635666
1771682519413344300,12.85834423828125,-0.46677112579345703,-0.1395808458328247,0.39150863885879517
1771682519423702500,12.86870263671875,0.6727743148803711,0.12154680490493774,0.24368058145046234
