time,seconds_elapsed,z,y,x
1771682506672671000,0.1176708984375,-0.0016034740256145597,0.009009997360408306,0.00022906772210262716
1771682506683029200,0.128029296875,-0.0016034740256145597,0.004123218823224306,0.002672456670552492
1771682506703746000,0.14874609375,0.002061609411612153,0.0016798300202935934,-0.0016034740256145597
1771682506714104300,0.159104248046875,0.0008399150101467967,-0.0038177953101694584,0.002061609411612153
1771682506724462600,0.169462646484375,-0.0009926267666742206,0.0022906772792339325,0.0008399150101467967
1771682506734820900,0.17982080078125,-0.0022143214009702206,0.0065666078589856625,-0.0016034740256145597
1771682506755537400,0.200537353515625,0.00022906772210262716,-0.0038177953101694584,0.002672456670552492
1771682506765895700,0.210895751953125,0.00022906772210262716,0.007177455350756645,-0.004046862944960594
1771682506786612200,0.2316123046875,0.00022906772210262716,0.0022906772792339325,-0.0009926267666742206
1771682506796970500,0.241970458984375,-0.0009926267666742206,-0.006261184345930815,-0.00038177953683771193
1771682506807328800,0.252328857421875,-0.0016034740256145597,0.016340164467692375,0.00022906772210262716
1771682506817687000,0.26268701171875,-0.0016034740256145597,-0.007482878863811493,0.0032833039294928312
1771682506828045300,0.27304541015625,-0.0009926267666742206,0.01511846948415041,-0.0022143214009702206
1771682506838403600,0.283403564453125,0.0008399150101467967,-0.013591351918876171,0.0008399150101467967
1771682506848761900,0.293761962890625,0.0014507622690871358,0.0065666078589856625,0.0014507622690871358
1771682506859120000,0.3041201171875,0.00022906772210262716,-0.008704573847353458,-0.0022143214009702206
1771682506869478400,0.314478515625,-0.0009926267666742206,0.008399149402976036,0.002061609411612153
1771682506879836700,0.324836669921875,-0.0022143214009702206,0.009620844386518002,0.00022906772210262716
1771682506890195000,0.33519482421875,-0.0022143214009702206,-0.012980503961443901,0.0032833039294928312
1771682506900553200,0.34555322265625,-0.00038177953683771193,0.026724567636847496,-0.0028251686599105597
1771682506910911500,0.355911376953125,-0.00038177953683771193,-0.03374931216239929,0.0051158457063138485
1771682506921269800,0.366269775390625,0.0008399150101467967,0.032222192734479904,-0.007101099472492933
1771682506931628300,0.376628173828125,0.00022906772210262716,-0.03497100621461868,0.0032833039294928312
1771682506941986600,0.386986572265625,-0.0009926267666742206,0.03588727489113808,-0.0009926267666742206
1771682506952344800,0.3973447265625,-0.0016034740256145597,-0.031916771084070206,0.004504998680204153
1771682506962703000,0.407703125,-0.00038177953683771193,0.04688252881169319,-0.004046862944960594
1771682506973061400,0.418061279296875,0.00022906772210262716,-0.037414394319057465,0.007559234742075205
1771682506983419600,0.428419677734375,0.0008399150101467967,0.033443886786699295,-0.007101099472492933
1771682506993778000,0.43877783203125,0.0014507622690871358,-0.0331384651362896,0.0038941511884331703
1771682507004136200,0.44913623046875,0.0014507622690871358,0.028557108715176582,-0.0022143214009702206
1771682507014494500,0.459494384765625,-0.0009926267666742206,-0.025197450071573257,0.002672456670552492
1771682507024852700,0.469852783203125,-0.0022143214009702206,0.030389651656150818,-0.004046862944960594
1771682507035211000,0.4802109375,-0.0016034740256145597,-0.01969982497394085,0.006337540224194527
1771682507045569300,0.4905693359375,-0.00038177953683771193,0.014507622458040714,-0.0028251686599105597
1771682507055927600,0.500927490234375,0.0014507622690871358,-0.00992626789957285,0.00022906772210262716
1771682507066285800,0.511285888671875,0.0014507622690871358,0.007177455350756645,0.00022906772210262716
1771682507076644000,0.52164404296875,0.00022906772210262716,-0.014813045971095562,-0.00038177953683771193
1771682507087002400,0.53200244140625,-0.0009926267666742206,0.014507622458040714,-0.0016034740256145597
1771682507097360600,0.542360595703125,-0.0016034740256145597,0.0010689827613532543,0.002672456670552492
1771682507107719000,0.552718994140625,-0.0016034740256145597,0.010842538438737392,0.00022906772210262716
1771682507118077200,0.5630771484375,-0.00038177953683771193,-0.005650337319821119,-0.00038177953683771193
1771682507128435500,0.573435546875,0.0008399150101467967,0.004734066314995289,0.00022906772210262716
1771682507138793700,0.583793701171875,0.0008399150101467967,-0.012369656935334206,-0.0009926267666742206
1771682507149152000,0.594152099609375,0.00022906772210262716,0.010231691412627697,-0.0022143214009702206
1771682507159510300,0.60451025390625,-0.0009926267666742206,-0.0032069480512291193,0.002672456670552492
1771682507169868500,0.61486865234375,-0.0022143214009702206,0.0065666078589856625,-0.00038177953683771193
1771682507180226800,0.625226806640625,-0.0009926267666742206,0.0016798300202935934,0.0008399150101467967
1771682507190585000,0.635585205078125,0.00022906772210262716,0.004123218823224306,0.0008399150101467967
1771682507200943400,0.645943359375,0.002061609411612153,-0.008704573847353458,0.002672456670552492
1771682507211301600,0.656301513671875,0.0014507622690871358,-0.001374406274408102,-0.0028251686599105597
1771682507221660000,0.666659912109375,-0.00038177953683771193,0.005955760832875967,0.0008399150101467967
1771682507232018200,0.67701806640625,-0.00038177953683771193,-0.005650337319821119,0.0008399150101467967
1771682507242376400,0.68737646484375,-0.0009926267666742206,0.0065666078589856625,-0.0009926267666742206
1771682507252734700,0.697734619140625,-0.0009926267666742206,0.010231691412627697,0.0032833039294928312
1771682507263093000,0.708093017578125,0.00022906772210262716,-0.011147962883114815,-0.00038177953683771193
1771682507273451500,0.718451416015625,0.002061609411612153,0.0065666078589856625,-0.0028251686599105597
1771682507283809800,0.728809814453125,0.002061609411612153,-0.008093725889921188,0.00022906772210262716
1771682507294168000,0.73916796875,0.0008399150101467967,-0.0007635590736754239,0.002061609411612153
1771682507304526300,0.7495263671875,-0.0009926267666742206,0.0022906772792339325,-0.0028251686599105597
1771682507314884600,0.759884521484375,-0.0034360159188508987,0.0065666078589856625,0.002672456670552492
1771682507325243000,0.770242919921875,-0.0009926267666742206,0.0022906772792339325,0.002061609411612153
1771682507335601200,0.78060107421875,0.0008399150101467967,-0.017867282032966614,0.002061609411612153
1771682507345959400,0.79095947265625,0.002672456670552492,0.03161134570837021,-0.0022143214009702206
1771682507356317700,0.801317626953125,0.0008399150101467967,-0.04840964451432228,0.006948387715965509
1771682507366676000,0.811676025390625,-0.00038177953683771193,0.04321744292974472,-0.005879404954612255
1771682507377034200,0.8220341796875,-0.0009926267666742206,-0.036192700266838074,0.004504998680204153
1771682507387392500,0.832392578125,-0.0016034740256145597,0.04443913698196411,-0.0009926267666742206
1771682507397750800,0.842750732421875,-0.00038177953683771193,-0.04107947647571564,0.0038941511884331703
1771682507408109000,0.853109130859375,0.00022906772210262716,0.043828289955854416,-0.0064902519807219505
1771682507418467300,0.86346728515625,0.002061609411612153,-0.04169032722711563,0.006337540224194527
1771682507428825600,0.87382568359375,0.0014507622690871358,0.029167955741286278,-0.0064902519807219505
1771682507439184000,0.884183837890625,-0.00038177953683771193,-0.01969982497394085,0.002672456670552492
1771682507449542100,0.894542236328125,-0.0016034740256145597,0.025502873584628105,-0.0022143214009702206
1771682507459900400,0.904900390625,-0.0022143214009702206,-0.022754060104489326,0.0038941511884331703
1771682507470258700,0.9152587890625,-0.0009926267666742206,0.030389651656150818,-0.004046862944960594
1771682507480617000,0.925616943359375,0.00022906772210262716,-0.022754060104489326,0.004504998680204153
1771682507490975200,0.935975341796875,0.0014507622690871358,0.012675080448389053,-0.0028251686599105597
1771682507501333500,0.94633349609375,-0.00038177953683771193,-0.005650337319821119,-0.0028251686599105597
1771682507511691800,0.95669189453125,-0.00038177953683771193,0.008399149402976036,0.002672456670552492
1771682507522050000,0.967050048828125,-0.0022143214009702206,-0.004428642801940441,-0.00038177953683771193
1771682507532408300,0.977408203125,-0.0009926267666742206,0.020005248486995697,-0.0009926267666742206
1771682507542766600,0.9877666015625,-0.00038177953683771193,-0.00992626789957285,0.002061609411612153
1771682507553124900,0.998124755859375,0.00022906772210262716,0.008399149402976036,-0.0009926267666742206
1771682507563483100,1.008483154296875,0.00022906772210262716,-0.0068720318377017975,-0.0009926267666742206
1771682507573841400,1.01884130859375,0.0008399150101467967,0.009009997360408306,0.00022906772210262716
1771682507584199700,1.02919970703125,-0.00038177953683771193,-0.00992626789957285,0.0008399150101467967
1771682507594558000,1.039557861328125,-0.0016034740256145597,0.020005248486995697,-0.004046862944960594
1771682507604916200,1.049916259765625,0.00022906772210262716,-0.0068720318377017975,0.004504998680204153
1771682507615274500,1.0602744140625,0.0008399150101467967,0.0010689827613532543,-0.0009926267666742206
1771682507625632800,1.0706328125,0.0014507622690871358,-0.00259610079228878,-0.00038177953683771193
1771682507635991000,1.080990966796875,0.0008399150101467967,-0.0007635590736754239,0.00022906772210262716
1771682507646349300,1.091349365234375,-0.00038177953683771193,0.0004581354442052543,-0.00038177953683771193
1771682507656707600,1.10170751953125,-0.0022143214009702206,-0.0038177953101694584,0.00022906772210262716
1771682507667065900,1.11206591796875,-0.0009926267666742206,0.012064233422279358,0.002672456670552492
1771682507677424000,1.122424072265625,-0.0009926267666742206,-0.004428642801940441,0.002672456670552492
1771682507687782400,1.132782470703125,-0.0009926267666742206,0.0029015245381742716,-0.0022143214009702206
1771682507698140700,1.143140625,0.0008399150101467967,-0.004428642801940441,0.0038941511884331703
1771682507708499000,1.1534990234375,0.0008399150101467967,-0.009315420873463154,0.0008399150101467967
1771682507718857200,1.163857177734375,-0.00038177953683771193,0.011453386396169662,-0.0009926267666742206
1771682507729215500,1.174215576171875,-0.0016034740256145597,-0.008093725889921188,0.0014507622690871358
1771682507739574000,1.184573974609375,-0.0022143214009702206,0.005955760832875967,0.002672456670552492
1771682507749932300,1.194932373046875,-0.0009926267666742206,-0.001374406274408102,-0.0009926267666742206
1771682507760290600,1.20529052734375,0.0014507622690871358,-0.0032069480512291193,0.002061609411612153
1771682507770648800,1.21564892578125,0.002061609411612153,0.004123218823224306,0.0014507622690871358
1771682507781007000,1.226007080078125,0.00022906772210262716,-0.019088976085186005,-0.0009926267666742206
1771682507791365400,1.236365478515625,0.0008399150101467967,0.02367033064365387,-0.0016034740256145597
1771682507801723600,1.2467236328125,-0.0009926267666742206,-0.029473381116986275,0.004504998680204153
1771682507812082000,1.25708203125,-0.0016034740256145597,0.04443913698196411,-0.005268557462841272
1771682507822440200,1.267440185546875,-0.0009926267666742206,-0.04291202127933502,0.0051158457063138485
1771682507832798500,1.277798583984375,0.0008399150101467967,0.043828289955854416,-0.0028251686599105597
1771682507843156700,1.28815673828125,0.0008399150101467967,-0.046577103435993195,0.0032833039294928312
1771682507853515000,1.298514892578125,0.0008399150101467967,0.04016320779919624,-0.004657710436731577
1771682507863873300,1.308873291015625,-0.0009926267666742206,-0.03008422814309597,0.006337540224194527
1771682507874231600,1.3192314453125,-0.0028251686599105597,0.025502873584628105,-0.004046862944960594
1771682507884589800,1.32958984375,-0.0016034740256145597,-0.001374406274408102,0.0014507622690871358
1771682507894948000,1.339947998046875,0.00022906772210262716,-0.0032069480512291193,0.0032833039294928312
1771682507905306400,1.350306396484375,0.00022906772210262716,0.005955760832875967,-0.0022143214009702206
1771682507915664600,1.36066455078125,0.0008399150101467967,-0.0050394898280501366,0.0008399150101467967
1771682507926023000,1.37102294921875,-0.00038177953683771193,0.005955760832875967,-0.00038177953683771193
1771682507936381200,1.381381103515625,-0.0016034740256145597,-0.0050394898280501366,0.002061609411612153
1771682507946739500,1.391739501953125,-0.0022143214009702206,0.017561858519911766,-0.004046862944960594
1771682507957097700,1.40209765625,-0.0016034740256145597,-0.0007635590736754239,0.005726693198084831
1771682507967456000,1.4124560546875,-0.00038177953683771193,0.0010689827613532543,-0.0028251686599105597
1771682507977814300,1.422814208984375,0.0008399150101467967,0.0022906772792339325,-0.00038177953683771193
1771682507988172500,1.433172607421875,0.002061609411612153,-0.0007635590736754239,0.00022906772210262716
1771682507998530800,1.44353076171875,0.00022906772210262716,-0.006261184345930815,0.0008399150101467967
1771682508008889000,1.45388916015625,-0.0009926267666742206,0.013896775431931019,-0.0016034740256145597
1771682508019247400,1.464247314453125,-0.0016034740256145597,-0.001985253533348441,0.0032833039294928312
1771682508029605600,1.474605712890625,-0.0009926267666742206,0.005344913341104984,0.0014507622690871358
1771682508039964000,1.4849638671875,0.0008399150101467967,-0.006261184345930815,-0.00038177953683771193
1771682508050322200,1.495322265625,0.002061609411612153,0.009620844386518002,0.0014507622690871358
1771682508060680400,1.505680419921875,0.0014507622690871358,-0.022754060104489326,0.0008399150101467967
1771682508071038700,1.516038818359375,-0.00038177953683771193,0.01817270554602146,-0.004046862944960594
1771682508081397000,1.52639697265625,-0.0009926267666742206,-0.010537114925682545,0.0038941511884331703
1771682508091755300,1.53675537109375,-0.0016034740256145597,0.009620844386518002,-0.00038177953683771193
1771682508102113500,1.547113525390625,-0.00038177953683771193,0.0035123717971146107,-0.00038177953683771193
1771682508112471800,1.557471923828125,0.0008399150101467967,-0.001985253533348441,0.00022906772210262716
1771682508122830000,1.567830078125,0.002672456670552492,-0.0038177953101694584,0.0008399150101467967
1771682508133188400,1.578188232421875,0.0014507622690871358,-0.008093725889921188,-0.0028251686599105597
1771682508143546600,1.588546630859375,-0.00038177953683771193,0.011453386396169662,0.0008399150101467967
1771682508153905000,1.59890478515625,-0.0009926267666742206,-0.012369656935334206,0.0014507622690871358
1771682508164263200,1.60926318359375,-0.0016034740256145597,0.016340164467692375,-0.0022143214009702206
1771682508174621400,1.619621337890625,-0.00038177953683771193,-0.0050394898280501366,0.0032833039294928312
1771682508184979700,1.629979736328125,0.002061609411612153,-0.00259610079228878,0.00022906772210262716
1771682508195338000,1.640337890625,0.002061609411612153,-0.0032069480512291193,-0.00038177953683771193
1771682508205696300,1.6506962890625,0.0008399150101467967,0.0016798300202935934,-0.00038177953683771193
1771682508216054500,1.661054443359375,-0.0016034740256145597,-0.00015271181473508477,0.0014507622690871358
1771682508226412800,1.671412841796875,-0.0016034740256145597,-0.006261184345930815,0.00022906772210262716
1771682508236771000,1.68177099609375,-0.0028251686599105597,0.0261137206107378,0.00022906772210262716
1771682508247129300,1.69212939453125,-0.00038177953683771193,-0.024586603045463562,0.005726693198084831
1771682508257487600,1.702487548828125,0.00022906772210262716,0.021837789565324783,-0.004046862944960594
1771682508267846000,1.712845947265625,0.0014507622690871358,-0.021532366052269936,0.0032833039294928312
1771682508278204200,1.7232041015625,0.0014507622690871358,0.018783552572131157,-0.0009926267666742206
1771682508288562400,1.7335625,-0.0016034740256145597,-0.023975754156708717,0.0008399150101467967
1771682508298920700,1.743920654296875,-0.0022143214009702206,0.034665580838918686,-0.0028251686599105597
1771682508309279000,1.754279052734375,-0.0016034740256145597,-0.02214321307837963,0.004504998680204153
1771682508319637200,1.76463720703125,-0.0009926267666742206,0.013285927474498749,-0.0016034740256145597
1771682508329995500,1.77499560546875,0.0014507622690871358,-0.001374406274408102,-0.00038177953683771193
1771682508340353800,1.785353759765625,0.0014507622690871358,-0.005650337319821119,0.0032833039294928312
1771682508350712000,1.795712158203125,0.00022906772210262716,-0.00015271181473508477,-0.0028251686599105597
1771682508361070300,1.8060703125,-0.00038177953683771193,-0.00259610079228878,0.002061609411612153
1771682508371428600,1.8164287109375,-0.0016034740256145597,0.020616095513105392,-0.00038177953683771193
1771682508381787000,1.826786865234375,-0.0009926267666742206,-0.01969982497394085,0.0032833039294928312
1771682508392145200,1.837145263671875,-0.00038177953683771193,0.03161134570837021,-0.005268557462841272
1771682508402503400,1.84750341796875,0.0014507622690871358,-0.028251685202121735,0.005726693198084831
1771682508412861700,1.85786181640625,0.0014507622690871358,0.016340164467692375,-0.005268557462841272
1771682508423220000,1.868219970703125,0.00022906772210262716,-0.019088976085186005,0.0032833039294928312
1771682508433578200,1.878578125,-0.0009926267666742206,0.029167955741286278,-0.0028251686599105597
1771682508443936500,1.8889365234375,-0.0022143214009702206,-0.017867282032966614,-0.004046862944960594
1771682508454294800,1.899294677734375,-0.0016034740256145597,0.052990999072790146,-0.008322793990373611
1771682508464653000,1.909653076171875,-0.00038177953683771193,-0.04413371533155441,0.012446013279259205
1771682508475011300,1.92001123046875,0.002061609411612153,0.016340164467692375,0.0014507622690871358
1771682508485369900,1.930369873046875,0.0014507622690871358,-0.031916771084070206,0.002672456670552492
1771682508495728000,1.94072802734375,0.00022906772210262716,0.028557108715176582,-0.0028251686599105597
1771682508506086400,1.95108642578125,-0.0016034740256145597,-0.028251685202121735,0.0051158457063138485
1771682508516444400,1.9614443359375,-0.0016034740256145597,0.031000498682260513,-0.004657710436731577
1771682508526802700,1.971802734375,-0.0016034740256145597,-0.013591351918876171,0.005726693198084831
1771682508537161000,1.982160888671875,-0.00038177953683771193,0.007788302376866341,-0.0022143214009702206
1771682508547519500,1.99251953125,0.0008399150101467967,-0.008704573847353458,-0.00038177953683771193
1771682508557877800,2.002877685546875,0.0014507622690871358,0.0010689827613532543,0.00022906772210262716
1771682508568236000,2.013236083984375,0.0008399150101467967,-0.005650337319821119,0.0008399150101467967
1771682508578594300,2.02359423828125,-0.0016034740256145597,0.008399149402976036,-0.0028251686599105597
1771682508588952600,2.03395263671875,-0.0016034740256145597,0.0010689827613532543,0.002672456670552492
1771682508599310800,2.044310791015625,-0.0009926267666742206,0.005344913341104984,0.002061609411612153
1771682508609669000,2.054669189453125,0.0014507622690871358,-0.004428642801940441,0.00022906772210262716
1771682508620027400,2.06502734375,0.002061609411612153,0.007788302376866341,0.002061609411612153
1771682508630385700,2.0753857421875,0.0014507622690871358,-0.00992626789957285,0.0008399150101467967
1771682508640744000,2.085743896484375,0.00022906772210262716,0.005344913341104984,-0.0022143214009702206
1771682508651102200,2.096102294921875,-0.0009926267666742206,-0.0007635590736754239,0.0014507622690871358
1771682508661460500,2.10646044921875,-0.0016034740256145597,0.010231691412627697,0.002061609411612153
1771682508671818800,2.11681884765625,-0.00038177953683771193,0.0010689827613532543,0.0008399150101467967
1771682508682177000,2.127177001953125,0.0008399150101467967,0.0065666078589856625,-0.0016034740256145597
1771682508692535300,2.137535400390625,0.002061609411612153,-0.008704573847353458,0.0032833039294928312
1771682508702893600,2.1478935546875,0.002061609411612153,0.004123218823224306,-0.004657710436731577
1771682508713251800,2.158251953125,-0.00038177953683771193,-0.00015271181473508477,0.00022906772210262716
1771682508723610000,2.168610107421875,-0.0016034740256145597,0.007177455350756645,0.002061609411612153
1771682508733968400,2.178968505859375,-0.0028251686599105597,-0.001985253533348441,-0.0016034740256145597
1771682508744326700,2.18932666015625,-0.0009926267666742206,0.009620844386518002,-0.00038177953683771193
1771682508754685000,2.199684814453125,0.0008399150101467967,-0.006261184345930815,0.002672456670552492
1771682508765043200,2.210043212890625,0.002061609411612153,0.0035123717971146107,-0.00038177953683771193
1771682508775401500,2.2204013671875,0.00022906772210262716,-0.0068720318377017975,-0.004657710436731577
1771682508785759700,2.230759765625,-0.0009926267666742206,0.004734066314995289,0.0051158457063138485
1771682508796118000,2.241117919921875,-0.0022143214009702206,0.0029015245381742716,-0.0022143214009702206
1771682508806476300,2.251476318359375,-0.0028251686599105597,-0.00015271181473508477,0.002672456670552492
1771682508816834600,2.26183447265625,0.0008399150101467967,0.021837789565324783,0.0014507622690871358
1771682508827192800,2.27219287109375,0.00022906772210262716,-0.04107947647571564,0.002672456670552492
1771682508837551000,2.282551025390625,0.0014507622690871358,0.0456608310341835,-0.010155336000025272
1771682508847909400,2.292909423828125,0.002672456670552492,-0.06368082761764526,0.011835165321826935
1771682508858267600,2.303267578125,-0.00038177953683771193,0.0584886260330677,-0.009544488042593002
1771682508868626000,2.3136259765625,-0.0022143214009702206,-0.05024218559265137,0.0038941511884331703
1771682508878984200,2.323984130859375,-0.0016034740256145597,0.0462716780602932,-0.0016034740256145597
1771682508889342500,2.334342529296875,-0.00038177953683771193,-0.046577103435993195,0.005726693198084831
1771682508899700700,2.34470068359375,0.002672456670552492,0.04443913698196411,-0.008322793990373611
1771682508910059000,2.35505908203125,0.002672456670552492,-0.047798797488212585,0.010002624243497849
1771682508920417300,2.365417236328125,0.0008399150101467967,0.03833066672086716,-0.007101099472492933
1771682508930775600,2.375775634765625,-0.0009926267666742206,-0.03497100621461868,0.004504998680204153
1771682508941133800,2.3861337890625,-0.00038177953683771193,0.03894151374697685,-0.0022143214009702206
1771682508951492000,2.3964921875,-0.0009926267666742206,-0.028251685202121735,0.006337540224194527
1771682508961850400,2.406850341796875,-0.0009926267666742206,0.031000498682260513,-0.005879404954612255
1771682508972208600,2.417208740234375,0.0008399150101467967,-0.023975754156708717,0.0051158457063138485
1771682508982567000,2.42756689453125,0.0014507622690871358,0.011453386396169662,-0.0022143214009702206
1771682508992925200,2.43792529296875,0.0014507622690871358,-0.015423892997205257,-0.00038177953683771193
1771682509003283500,2.448283447265625,-0.00038177953683771193,0.021226942539215088,0.0014507622690871358
1771682509013641700,2.458641845703125,-0.0016034740256145597,-0.016645587980747223,0.002672456670552492
1771682509024000000,2.469,-0.0022143214009702206,0.018783552572131157,-0.0016034740256145597
1771682509034358300,2.479358154296875,0.00022906772210262716,-0.009315420873463154,0.0038941511884331703
1771682509044716500,2.489716552734375,0.0008399150101467967,0.007177455350756645,0.0008399150101467967
1771682509055074800,2.50007470703125,0.0014507622690871358,-0.012369656935334206,-0.0009926267666742206
1771682509065433000,2.51043310546875,0.00022906772210262716,0.013285927474498749,-0.0009926267666742206
1771682509075791400,2.520791259765625,-0.00038177953683771193,-0.012980503961443901,0.004504998680204153
1771682509086149600,2.531149658203125,-0.0022143214009702206,0.013285927474498749,-0.0028251686599105597
1771682509096508000,2.5415078125,-0.0016034740256145597,0.009009997360408306,0.002672456670552492
1771682509106866200,2.5518662109375,0.00022906772210262716,-0.007482878863811493,0.0014507622690871358
1771682509117224400,2.562224365234375,0.00022906772210262716,0.0010689827613532543,-0.0022143214009702206
1771682509127582700,2.572582763671875,0.0014507622690871358,0.0022906772792339325,0.00022906772210262716
1771682509137941000,2.58294091796875,0.0014507622690871358,-0.008704573847353458,0.002672456670552492
1771682509148299300,2.59329931640625,-0.0009926267666742206,0.0065666078589856625,-0.0016034740256145597
1771682509158657500,2.603657470703125,-0.0016034740256145597,0.009620844386518002,0.0008399150101467967
1771682509169015800,2.614015869140625,-0.0009926267666742206,-0.0007635590736754239,0.002672456670552492
1771682509179374000,2.6243740234375,0.0008399150101467967,-0.00992626789957285,0.0008399150101467967
1771682509189732400,2.634732421875,0.0014507622690871358,0.016340164467692375,-0.00038177953683771193
1771682509200090600,2.645090576171875,0.002061609411612153,-0.023364907130599022,0.002672456670552492
1771682509210449000,2.655448974609375,-0.00038177953683771193,0.010231691412627697,-0.0016034740256145597
1771682509220807200,2.66580712890625,-0.0009926267666742206,0.0010689827613532543,0.0008399150101467967
1771682509231165400,2.67616552734375,-0.0009926267666742206,0.0022906772792339325,0.0038941511884331703
1771682509241523700,2.686523681640625,-0.0009926267666742206,0.005344913341104984,-0.0009926267666742206
1771682509251882000,2.696882080078125,-0.00038177953683771193,-0.004428642801940441,0.0008399150101467967
1771682509262240300,2.707240234375,0.002672456670552492,0.010231691412627697,-0.00038177953683771193
1771682509272598500,2.7175986328125,0.002061609411612153,-0.037414394319057465,0.002672456670552492
1771682509282956800,2.727956787109375,0.00022906772210262716,0.04810422286391258,-0.007101099472492933
1771682509293315000,2.738315185546875,-0.0016034740256145597,-0.04718795046210289,0.007559234742075205
1771682509303673600,2.748673583984375,-0.0028251686599105597,0.04749337583780289,-0.005268557462841272
1771682509314031600,2.759031494140625,-0.00038177953683771193,-0.0331384651362896,0.004504998680204153
1771682509324390000,2.769389892578125,0.0008399150101467967,0.030389651656150818,-0.0009926267666742206
1771682509334748200,2.779748046875,0.0008399150101467967,-0.03008422814309597,0.002061609411612153
1771682509345106400,2.7901064453125,-0.00038177953683771193,0.018783552572131157,-0.004657710436731577
1771682509355464700,2.800464599609375,-0.00038177953683771193,-0.004428642801940441,0.0032833039294928312
1771682509365823200,2.8108232421875,-0.0016034740256145597,-0.004428642801940441,0.0008399150101467967
1771682509376181500,2.821181396484375,-0.0016034740256145597,0.021837789565324783,-0.0034360159188508987
1771682509386539800,2.831539794921875,-0.0009926267666742206,-0.0068720318377017975,0.0038941511884331703
1771682509396898000,2.84189794921875,0.00022906772210262716,-0.00015271181473508477,-0.0009926267666742206
1771682509407256000,2.852256103515625,0.0014507622690871358,0.0004581354442052543,-0.0016034740256145597
1771682509417614600,2.862614501953125,0.0014507622690871358,-0.0007635590736754239,0.0014507622690871358
1771682509427972900,2.872972900390625,-0.0009926267666742206,0.0004581354442052543,0.0008399150101467967
1771682509438331100,2.8833310546875,-0.0022143214009702206,0.005955760832875967,-0.0028251686599105597
1771682509448689400,2.893689453125,-0.0016034740256145597,0.008399149402976036,0.002672456670552492
1771682509459047700,2.904047607421875,0.00022906772210262716,-0.00992626789957285,0.002672456670552492
1771682509469406000,2.914406005859375,0.002061609411612153,0.011453386396169662,-0.0034360159188508987
1771682509479764200,2.92476416015625,0.002061609411612153,-0.008093725889921188,0.004504998680204153
1771682509490122500,2.93512255859375,0.0008399150101467967,0.0010689827613532543,-0.0016034740256145597
1771682509500480800,2.945480712890625,-0.0009926267666742206,-0.0032069480512291193,0.0008399150101467967
1771682509510839000,2.955839111328125,-0.0016034740256145597,0.013285927474498749,0.0008399150101467967
1771682509521197300,2.966197265625,-0.0016034740256145597,-0.008093725889921188,0.005726693198084831
1771682509531555600,2.9765556640625,-0.00038177953683771193,0.010842538438737392,-0.0028251686599105597
1771682509541913900,2.986913818359375,0.00022906772210262716,-0.007482878863811493,0.0038941511884331703
1771682509552272100,2.997272216796875,0.002672456670552492,0.0010689827613532543,-0.00038177953683771193
1771682509562630400,3.00763037109375,0.0014507622690871358,-0.00992626789957285,-0.00038177953683771193
1771682509572988700,3.01798876953125,-0.00038177953683771193,0.020616095513105392,-0.0009926267666742206
1771682509583347000,3.028346923828125,-0.0022143214009702206,-0.017867282032966614,0.0051158457063138485
1771682509593705200,3.038705322265625,-0.0009926267666742206,0.02244863659143448,-0.0028251686599105597
1771682509604063500,3.0490634765625,0.0008399150101467967,-0.014202198944985867,0.0032833039294928312
1771682509614421800,3.059421875,0.0008399150101467967,0.013285927474498749,0.00022906772210262716
1771682509624780000,3.069780029296875,0.0008399150101467967,-0.023975754156708717,-0.00038177953683771193
1771682509635138300,3.08013818359375,-0.00038177953683771193,0.02489202655851841,-0.004046862944960594
1771682509645496600,3.09049658203125,-0.00038177953683771193,-0.025197450071573257,0.006948387715965509
1771682509655854800,3.100854736328125,-0.0009926267666742206,0.029167955741286278,-0.004657710436731577
1771682509666213000,3.111213134765625,-0.0016034740256145597,-0.006261184345930815,0.002672456670552492
1771682509676571400,3.1215712890625,0.00022906772210262716,0.0029015245381742716,0.0014507622690871358
1771682509686929700,3.1319296875,0.0014507622690871358,-0.00259610079228878,-0.0022143214009702206
1771682509697288000,3.142287841796875,0.002061609411612153,-0.00259610079228878,-0.00038177953683771193
1771682509707646200,3.152646240234375,0.00022906772210262716,0.008399149402976036,0.0014507622690871358
1771682509718004500,3.16300439453125,-0.0016034740256145597,-0.011147962883114815,-0.0009926267666742206
1771682509728362800,3.17336279296875,-0.0022143214009702206,0.028557108715176582,-0.0022143214009702206
1771682509738721000,3.183720947265625,-0.0016034740256145597,-0.027029991149902344,0.006337540224194527
1771682509749079300,3.194079345703125,0.00022906772210262716,0.03588727489113808,-0.004657710436731577
1771682509759437600,3.2044375,0.00022906772210262716,-0.03436015918850899,0.0032833039294928312
1771682509769795800,3.2147958984375,0.0008399150101467967,0.03161134570837021,-0.0016034740256145597
1771682509780154000,3.225154052734375,-0.00038177953683771193,-0.027029991149902344,0.002061609411612153
1771682509790512400,3.235512451171875,-0.0016034740256145597,0.024281177669763565,-0.0028251686599105597
1771682509800870700,3.24587060546875,-0.0016034740256145597,0.0004581354442052543,0.0032833039294928312
1771682509811229000,3.25622900390625,0.00022906772210262716,-0.0068720318377017975,0.002672456670552492
1771682509821587200,3.266587158203125,0.0008399150101467967,0.019394399598240852,-0.005268557462841272
1771682509831945500,3.276945556640625,0.0014507622690871358,-0.024586603045463562,0.006337540224194527
1771682509842303700,3.2873037109375,0.0008399150101467967,0.017561858519911766,-0.004046862944960594
1771682509852662000,3.297662109375,-0.00038177953683771193,-0.015423892997205257,0.002061609411612153
1771682509863020300,3.308020263671875,-0.0016034740256145597,0.025502873584628105,-0.0009926267666742206
1771682509873378600,3.318378662109375,-0.0016034740256145597,-0.023975754156708717,0.0051158457063138485
1771682509883736800,3.32873681640625,-0.0009926267666742206,0.02244863659143448,-0.005268557462841272
1771682509894095000,3.33909521484375,0.0008399150101467967,-0.012369656935334206,0.004504998680204153
1771682509904453400,3.349453369140625,0.0014507622690871358,0.0029015245381742716,0.00022906772210262716
1771682509914811600,3.359811767578125,-0.0009926267666742206,-0.0050394898280501366,-0.0022143214009702206
1771682509925170000,3.370169921875,0.00022906772210262716,0.005344913341104984,0.0032833039294928312
1771682509935528200,3.380528076171875,-0.0009926267666742206,-0.0050394898280501366,0.0008399150101467967
1771682509945886500,3.390886474609375,-0.0009926267666742206,0.007177455350756645,-0.0022143214009702206
1771682509956244700,3.40124462890625,-0.00038177953683771193,0.0022906772792339325,0.0008399150101467967
1771682509966603000,3.41160302734375,0.00022906772210262716,-0.012369656935334206,0.0008399150101467967
1771682509976961300,3.421961181640625,-0.0009926267666742206,0.007788302376866341,-0.004657710436731577
1771682509987319600,3.432319580078125,0.00022906772210262716,-0.0038177953101694584,0.0032833039294928312
1771682509997677800,3.442677734375,-0.0009926267666742206,0.005344913341104984,-0.00038177953683771193
1771682510008036000,3.4530361328125,-0.0022143214009702206,-0.007482878863811493,-0.0009926267666742206
1771682510018394400,3.463394287109375,-0.00038177953683771193,0.01511846948415041,0.0014507622690871358
1771682510028752600,3.473752685546875,0.0014507622690871358,-0.01725643500685692,0.0032833039294928312
1771682510039111000,3.48411083984375,0.0008399150101467967,0.010231691412627697,-0.0016034740256145597
1771682510049469200,3.49446923828125,-0.00038177953683771193,-0.010537114925682545,0.0014507622690871358
1771682510059827700,3.50482763671875,-0.0016034740256145597,0.012064233422279358,0.0014507622690871358
1771682510070186000,3.51518603515625,-0.0028251686599105597,-0.010537114925682545,-0.00038177953683771193
1771682510080544000,3.5255439453125,-0.0009926267666742206,0.027946261689066887,-0.0016034740256145597
1771682510090902300,3.53590234375,-0.00038177953683771193,-0.028251685202121735,0.005726693198084831
1771682510101260500,3.546260498046875,0.00022906772210262716,0.02489202655851841,-0.0064902519807219505
1771682510111619000,3.556619140625,0.0008399150101467967,-0.02092151902616024,0.0032833039294928312
1771682510121977300,3.566977294921875,0.0008399150101467967,0.01695101149380207,-0.00038177953683771193
1771682510132335600,3.577335693359375,-0.0009926267666742206,-0.015423892997205257,0.0008399150101467967
1771682510142694000,3.58769384765625,-0.0022143214009702206,0.023059483617544174,0.00022906772210262716
1771682510153052200,3.59805224609375,-0.00038177953683771193,-0.006261184345930815,0.0032833039294928312
1771682510163410400,3.608410400390625,0.0014507622690871358,-0.0032069480512291193,0.00022906772210262716
1771682510173768700,3.618768798828125,0.002672456670552492,0.013896775431931019,-0.0009926267666742206
1771682510184127000,3.629126953125,0.0008399150101467967,-0.02092151902616024,0.0038941511884331703
1771682510194485200,3.6394853515625,0.00022906772210262716,0.014507622458040714,-0.0034360159188508987
1771682510204843500,3.649843505859375,-0.0016034740256145597,-0.0050394898280501366,0.0014507622690871358
1771682510215201800,3.660201904296875,-0.0016034740256145597,0.019394399598240852,0.0032833039294928312
1771682510225560000,3.67056005859375,-0.00038177953683771193,-0.01847812905907631,0.00022906772210262716
1771682510235918300,3.68091845703125,-0.00038177953683771193,0.02367033064365387,-0.0022143214009702206
1771682510246276600,3.691276611328125,0.00022906772210262716,-0.01725643500685692,0.002061609411612153
1771682510256635000,3.701634765625,0.00022906772210262716,0.0022906772792339325,-0.00038177953683771193
1771682510266993200,3.7119931640625,0.00022906772210262716,0.017561858519911766,-0.004657710436731577
1771682510277351400,3.722351318359375,-0.0022143214009702206,-0.017867282032966614,0.005726693198084831
1771682510287709700,3.732709716796875,-0.00038177953683771193,0.02367033064365387,-0.004046862944960594
1771682510298068000,3.74306787109375,0.00022906772210262716,-0.025808297097682953,0.004504998680204153
1771682510308426200,3.75342626953125,0.0008399150101467967,0.037108972668647766,-0.004046862944960594
1771682510318784500,3.763784423828125,0.00022906772210262716,-0.047798797488212585,0.006337540224194527
1771682510329142800,3.774142822265625,-0.0009926267666742206,0.04688252881169319,-0.008322793990373611
1771682510339501000,3.7845009765625,-0.0016034740256145597,-0.03497100621461868,0.008170082233846188
1771682510349859300,3.794859375,-0.0022143214009702206,0.03527642786502838,-0.005268557462841272
1771682510360217600,3.805217529296875,-0.00038177953683771193,-0.028251685202121735,0.002672456670552492
1771682510370576000,3.815575927734375,0.0014507622690871358,0.033443886786699295,-0.004046862944960594
1771682510380934100,3.82593408203125,0.0014507622690871358,-0.046577103435993195,0.006948387715965509
1771682510391292400,3.83629248046875,0.00022906772210262716,0.04443913698196411,-0.008322793990373611
1771682510401650700,3.846650634765625,-0.0009926267666742206,-0.031916771084070206,0.006337540224194527
1771682510412009000,3.857009033203125,-0.0016034740256145597,0.029778804630041122,-0.0022143214009702206
1771682510422367200,3.8673671875,-0.0016034740256145597,-0.022754060104489326,0.0038941511884331703
1771682510432725500,3.8777255859375,0.0008399150101467967,0.023059483617544174,-0.00038177953683771193
1771682510443083800,3.888083740234375,0.0014507622690871358,-0.028251685202121735,0.0051158457063138485
1771682510453442000,3.898442138671875,0.00022906772210262716,0.021837789565324783,-0.004657710436731577
1771682510463800300,3.90880029296875,-0.00038177953683771193,-0.013591351918876171,0.0032833039294928312
1771682510474158600,3.91915869140625,-0.0016034740256145597,0.0065666078589856625,0.0008399150101467967
1771682510484516900,3.929516845703125,-0.0016034740256145597,0.0022906772792339325,0.00022906772210262716
1771682510494875100,3.939875244140625,0.00022906772210262716,0.010231691412627697,0.0008399150101467967
1771682510505233400,3.9502333984375,0.0008399150101467967,-0.013591351918876171,0.002672456670552492
1771682510515591700,3.960591796875,0.002061609411612153,0.0022906772792339325,-0.0022143214009702206
1771682510525950000,3.970949951171875,-0.00038177953683771193,0.0010689827613532543,0.0008399150101467967
1771682510536308200,3.98130810546875,-0.0009926267666742206,0.0035123717971146107,0.00022906772210262716
1771682510546666500,3.99166650390625,-0.0016034740256145597,-0.001985253533348441,-0.0009926267666742206
1771682510557024800,4.002024658203125,-0.0016034740256145597,0.005344913341104984,0.00022906772210262716
1771682510567383000,4.012383056640625,0.00022906772210262716,-0.001374406274408102,0.0014507622690871358
1771682510577741300,4.0227412109375,0.0008399150101467967,-0.0007635590736754239,-0.0016034740256145597
1771682510588099600,4.033099609375,0.0008399150101467967,0.0010689827613532543,0.00022906772210262716
1771682510598457900,4.043457763671875,-0.0009926267666742206,-0.0032069480512291193,0.002061609411612153
1771682510608816000,4.053816162109375,-0.0016034740256145597,0.0035123717971146107,-0.0009926267666742206
1771682510619174400,4.06417431640625,-0.0022143214009702206,0.011453386396169662,0.00022906772210262716
1771682510629532700,4.07453271484375,-0.0009926267666742206,-0.008704573847353458,0.0038941511884331703
1771682510639891000,4.084890869140625,0.00022906772210262716,0.007788302376866341,-0.0022143214009702206
1771682510650249200,4.095249267578125,0.0008399150101467967,-0.008093725889921188,-0.0009926267666742206
1771682510660607500,4.105607421875,0.00022906772210262716,0.007177455350756645,0.0008399150101467967
1771682510670965800,4.1159658203125,-0.0009926267666742206,-0.004428642801940441,-0.0016034740256145597
1771682510681324000,4.126323974609375,-0.0016034740256145597,0.007788302376866341,0.00022906772210262716
1771682510691682300,4.136682373046875,-0.0016034740256145597,0.0035123717971146107,0.0008399150101467967
1771682510702040600,4.14704052734375,0.00022906772210262716,-0.006261184345930815,0.0038941511884331703
1771682510712398800,4.15739892578125,0.002061609411612153,0.010231691412627697,-0.0034360159188508987
1771682510722757000,4.167757080078125,0.0014507622690871358,-0.01725643500685692,0.0038941511884331703
1771682510733115400,4.178115478515625,0.0008399150101467967,0.026724567636847496,-0.004046862944960594
1771682510743473700,4.1884736328125,-0.00038177953683771193,-0.036192700266838074,0.0051158457063138485
1771682510753832200,4.198832275390625,-0.0022143214009702206,0.051769305020570755,-0.004657710436731577
1771682510764190500,4.2091904296875,-0.00038177953683771193,-0.04169032722711563,0.008170082233846188
1771682510774548700,4.219548828125,0.00022906772210262716,0.043828289955854416,-0.007101099472492933
1771682510784906800,4.22990673828125,0.0014507622690871358,-0.04474456235766411,0.005726693198084831
1771682510795265000,4.24026513671875,0.0014507622690871358,0.03955236077308655,-0.004657710436731577
1771682510805623600,4.25062353515625,-0.00038177953683771193,-0.03497100621461868,0.0051158457063138485
1771682510815981800,4.26098193359375,-0.0022143214009702206,0.03588727489113808,-0.0034360159188508987
1771682510826340000,4.271340087890625,-0.0022143214009702206,-0.024586603045463562,0.006337540224194527
1771682510836698400,4.281698486328125,0.0008399150101467967,0.0261137206107378,-0.0016034740256145597
1771682510847056600,4.292056640625,0.0008399150101467967,-0.027029991149902344,0.004504998680204153
1771682510857415000,4.302414794921875,0.002061609411612153,0.02733541466295719,-0.004046862944960594
1771682510867773200,4.312773193359375,0.00022906772210262716,-0.031916771084070206,0.0038941511884331703
1771682510878131500,4.32313134765625,-0.0009926267666742206,0.0261137206107378,-0.004046862944960594
1771682510888489700,4.33348974609375,-0.0009926267666742206,-0.01725643500685692,0.002672456670552492
1771682510898848000,4.343847900390625,-0.0022143214009702206,0.02367033064365387,-0.00038177953683771193
1771682510909206300,4.354206298828125,0.00022906772210262716,-0.016034740954637527,0.002061609411612153
1771682510919564500,4.364564453125,-0.00038177953683771193,0.012064233422279358,-0.0009926267666742206
1771682510929922800,4.3749228515625,0.0014507622690871358,-0.016034740954637527,0.0014507622690871358
1771682510940281000,4.385281005859375,-0.00038177953683771193,0.007788302376866341,-0.0009926267666742206
1771682510950639400,4.395639404296875,-0.0009926267666742206,-0.0007635590736754239,-0.0009926267666742206
1771682510960997600,4.40599755859375,-0.0022143214009702206,0.0035123717971146107,0.002061609411612153
1771682510971356000,4.41635595703125,-0.0016034740256145597,0.0022906772792339325,-0.00038177953683771193
1771682510981714200,4.426714111328125,0.00022906772210262716,0.0022906772792339325,0.0008399150101467967
1771682510992072400,4.437072509765625,0.0014507622690871358,-0.001374406274408102,-0.00038177953683771193
1771682511002430700,4.4474306640625,0.0008399150101467967,-0.00259610079228878,0.0008399150101467967
1771682511012789000,4.4577890625,0.00022906772210262716,-0.0032069480512291193,0.00022906772210262716
1771682511023147300,4.468147216796875,-0.0009926267666742206,0.0065666078589856625,0.00022906772210262716
1771682511033505500,4.478505615234375,-0.0016034740256145597,0.0022906772792339325,0.0008399150101467967
1771682511043863800,4.48886376953125,-0.0009926267666742206,0.005955760832875967,0.0008399150101467967
1771682511054222000,4.49922216796875,0.00022906772210262716,-0.0038177953101694584,0.0008399150101467967
1771682511064580400,4.509580322265625,0.0014507622690871358,0.0010689827613532543,-0.00038177953683771193
1771682511074938600,4.519938720703125,0.00022906772210262716,-0.0032069480512291193,-0.00038177953683771193
1771682511085297000,4.530296875,0.00022906772210262716,0.0010689827613532543,0.00022906772210262716
1771682511095655200,4.5406552734375,-0.0009926267666742206,0.0010689827613532543,0.00022906772210262716
1771682511106013400,4.551013427734375,-0.0016034740256145597,0.011453386396169662,0.00022906772210262716
1771682511116371700,4.561371826171875,-0.0009926267666742206,-0.007482878863811493,0.002061609411612153
1771682511126730000,4.57172998046875,0.0008399150101467967,0.004123218823224306,0.0014507622690871358
1771682511137088300,4.582088134765625,0.0014507622690871358,-0.00015271181473508477,-0.00038177953683771193
1771682511147446500,4.592446533203125,0.00022906772210262716,-0.011147962883114815,0.002061609411612153
1771682511157804800,4.6028046875,-0.0016034740256145597,0.01817270554602146,-0.0028251686599105597
1771682511168163000,4.6131630859375,-0.0022143214009702206,-0.01847812905907631,0.004504998680204153
1771682511178521300,4.623521240234375,-0.0016034740256145597,0.028557108715176582,-0.0022143214009702206
1771682511188879600,4.633879638671875,-0.0016034740256145597,-0.025808297097682953,0.0051158457063138485
1771682511199238000,4.64423779296875,0.00022906772210262716,0.03527642786502838,-0.004657710436731577
1771682511209596200,4.65459619140625,0.0008399150101467967,-0.04474456235766411,0.0051158457063138485
1771682511219954400,4.664954345703125,0.0008399150101467967,0.0456608310341835,-0.005268557462841272
1771682511230312700,4.675312744140625,-0.00038177953683771193,-0.039857782423496246,0.0038941511884331703
1771682511240671000,4.6856708984375,-0.0016034740256145597,0.03833066672086716,-0.0034360159188508987
1771682511251029200,4.696029296875,-0.0016034740256145597,-0.027029991149902344,0.0038941511884331703
1771682511261387500,4.706387451171875,-0.00038177953683771193,0.02733541466295719,-0.0009926267666742206
1771682511271745800,4.716745849609375,0.0008399150101467967,-0.02092151902616024,0.002061609411612153
1771682511282104000,4.72710400390625,0.002061609411612153,0.010231691412627697,-0.0016034740256145597
1771682511292462300,4.73746240234375,0.00022906772210262716,-0.005650337319821119,-0.00038177953683771193
1771682511302820600,4.747820556640625,-0.00038177953683771193,0.004123218823224306,0.0008399150101467967
1771682511313179000,4.758178955078125,-0.0009926267666742206,0.0035123717971146107,-0.0016034740256145597
1771682511323537200,4.768537109375,-0.0009926267666742206,0.007788302376866341,0.0008399150101467967
1771682511333895400,4.7788955078125,0.00022906772210262716,-0.0032069480512291193,-0.0009926267666742206
1771682511344253700,4.789253662109375,0.0008399150101467967,0.0035123717971146107,0.00022906772210262716
1771682511354612000,4.799612060546875,0.0008399150101467967,-0.0050394898280501366,-0.0009926267666742206
1771682511364970200,4.80997021484375,-0.00038177953683771193,-0.00015271181473508477,0.002061609411612153
1771682511375328500,4.82032861328125,-0.0009926267666742206,0.0065666078589856625,-0.00038177953683771193
1771682511385686800,4.830686767578125,-0.0028251686599105597,0.0004581354442052543,0.002672456670552492
1771682511396045000,4.841045166015625,-0.00038177953683771193,0.004734066314995289,0.00022906772210262716
1771682511406403300,4.8514033203125,0.0008399150101467967,-0.0032069480512291193,0.002672456670552492
1771682511416761600,4.86176171875,0.0032833039294928312,0.0016798300202935934,0.0008399150101467967
1771682511427119900,4.872119873046875,0.0008399150101467967,-0.009315420873463154,0.002061609411612153
1771682511437478100,4.88247802734375,-0.0009926267666742206,0.010842538438737392,-0.0022143214009702206
1771682511447836700,4.892836669921875,-0.0016034740256145597,-0.005650337319821119,0.002672456670552492
1771682511458195000,4.90319482421875,-0.0016034740256145597,0.009620844386518002,-0.00038177953683771193
1771682511468553000,4.913552978515625,-0.0009926267666742206,-0.004428642801940441,0.002061609411612153
1771682511478911200,4.9239111328125,0.00022906772210262716,0.005955760832875967,-0.0016034740256145597
1771682511489269500,4.93426953125,0.0008399150101467967,-0.004428642801940441,0.0008399150101467967
1771682511499628000,4.9446279296875,0.0008399150101467967,-0.0038177953101694584,0.0008399150101467967
1771682511509986300,4.954986328125,-0.0009926267666742206,0.0022906772792339325,-0.00038177953683771193
1771682511520344600,4.965344482421875,-0.0022143214009702206,0.007177455350756645,-0.00038177953683771193
1771682511530702800,4.975702880859375,-0.0016034740256145597,0.0029015245381742716,0.0014507622690871358
1771682511541061000,4.98606103515625,-0.00038177953683771193,0.0004581354442052543,0.0014507622690871358
1771682511551419400,4.99641943359375,0.0008399150101467967,-0.001374406274408102,0.0014507622690871358
1771682511561777700,5.006777587890625,0.0014507622690871358,0.0016798300202935934,-0.00038177953683771193
1771682511572136000,5.017135986328125,0.00022906772210262716,-0.0032069480512291193,-0.00038177953683771193
1771682511582494200,5.027494140625,-0.0009926267666742206,-0.001374406274408102,0.00022906772210262716
1771682511592852500,5.0378525390625,-0.0022143214009702206,0.007788302376866341,0.0014507622690871358
1771682511603210800,5.048210693359375,-0.0009926267666742206,0.007177455350756645,0.00022906772210262716
1771682511613569000,5.058569091796875,-0.00038177953683771193,-0.0050394898280501366,0.0014507622690871358
1771682511623927300,5.06892724609375,0.00022906772210262716,0.008399149402976036,-0.0016034740256145597
1771682511634285600,5.07928564453125,0.0008399150101467967,-0.015423892997205257,0.0008399150101467967
1771682511644643800,5.089643798828125,0.00022906772210262716,0.01572931744158268,-0.0016034740256145597
1771682511655002000,5.100002197265625,-0.0016034740256145597,-0.00992626789957285,0.0014507622690871358
1771682511665360400,5.1103603515625,-0.0016034740256145597,0.019394399598240852,-0.00038177953683771193
1771682511675718700,5.12071875,-0.0016034740256145597,-0.017867282032966614,0.002672456670552492
1771682511686077000,5.131076904296875,0.00022906772210262716,0.02733541466295719,0.00022906772210262716
1771682511696435200,5.141435302734375,0.0014507622690871358,-0.02886253222823143,0.002672456670552492
1771682511706793500,5.15179345703125,0.0014507622690871358,0.019394399598240852,-0.0009926267666742206
1771682511717151700,5.16215185546875,0.00022906772210262716,-0.012369656935334206,0.00022906772210262716
1771682511727510000,5.172510009765625,-0.0009926267666742206,0.012064233422279358,0.0008399150101467967
1771682511737868300,5.182868408203125,-0.0016034740256145597,0.0010689827613532543,-0.00038177953683771193
1771682511748226600,5.1932265625,-0.0009926267666742206,0.0035123717971146107,0.002061609411612153
1771682511758584800,5.203584716796875,0.00022906772210262716,0.004734066314995289,-0.0009926267666742206
1771682511768943000,5.213943115234375,0.0008399150101467967,-0.01175880990922451,0.002061609411612153
1771682511779301400,5.22430126953125,0.0008399150101467967,0.009620844386518002,-0.0034360159188508987
1771682511789659600,5.23465966796875,0.00022906772210262716,-0.012369656935334206,0.0032833039294928312
1771682511800018000,5.245017822265625,-0.0009926267666742206,0.01817270554602146,-0.0028251686599105597
1771682511810376200,5.255376220703125,-0.0016034740256145597,-0.012369656935334206,0.0038941511884331703
1771682511820734500,5.265734375,0.00022906772210262716,0.01695101149380207,-0.0022143214009702206
1771682511831092700,5.2760927734375,0.0008399150101467967,-0.017867282032966614,0.0032833039294928312
1771682511841451000,5.286450927734375,0.002672456670552492,0.01511846948415041,-0.0034360159188508987
1771682511851809300,5.296809326171875,0.00022906772210262716,-0.02214321307837963,0.002672456670552492
1771682511862167600,5.30716748046875,-0.00038177953683771193,0.02244863659143448,-0.0034360159188508987
1771682511872525800,5.31752587890625,-0.0009926267666742206,-0.02214321307837963,0.004504998680204153
1771682511882884000,5.327884033203125,-0.0016034740256145597,0.028557108715176582,-0.0022143214009702206
1771682511893242400,5.338242431640625,-0.00038177953683771193,-0.01969982497394085,0.0051158457063138485
1771682511903600600,5.3486005859375,0.00022906772210262716,0.020616095513105392,-0.0034360159188508987
1771682511913959000,5.358958984375,0.0008399150101467967,-0.025808297097682953,0.002672456670552492
1771682511924317200,5.369317138671875,0.00022906772210262716,0.019394399598240852,-0.0034360159188508987
1771682511934675500,5.379675537109375,-0.0016034740256145597,-0.01725643500685692,0.002672456670552492
1771682511945033700,5.39003369140625,-0.0022143214009702206,0.018783552572131157,-0.0016034740256145597
1771682511955392000,5.40039208984375,-0.0022143214009702206,-0.01175880990922451,0.002672456670552492
1771682511965750300,5.410750244140625,-0.0009926267666742206,0.01511846948415041,-0.00038177953683771193
1771682511976108500,5.421108642578125,0.0014507622690871358,-0.01725643500685692,0.002672456670552492
1771682511986466800,5.431466796875,0.002061609411612153,0.01511846948415041,-0.0028251686599105597
1771682511996825000,5.4418251953125,0.00022906772210262716,-0.021532366052269936,0.002672456670552492
1771682512007183400,5.452183349609375,-0.0009926267666742206,0.02244863659143448,-0.0022143214009702206
1771682512017541600,5.462541748046875,-0.0028251686599105597,-0.017867282032966614,0.0038941511884331703
1771682512027900000,5.47289990234375,-0.0022143214009702206,0.0261137206107378,-0.0016034740256145597
1771682512038258200,5.483258056640625,-0.0009926267666742206,-0.020310672000050545,0.0038941511884331703
1771682512048616400,5.493616455078125,0.0008399150101467967,0.017561858519911766,-0.004046862944960594
1771682512058974700,5.503974609375,0.0014507622690871358,-0.016645587980747223,0.002672456670552492
1771682512069333000,5.5143330078125,0.0008399150101467967,0.007788302376866341,-0.0016034740256145597
1771682512079691300,5.524691162109375,-0.00038177953683771193,-0.006261184345930815,0.0014507622690871358
1771682512090049500,5.535049560546875,-0.0016034740256145597,0.014507622458040714,-0.00038177953683771193
1771682512100407800,5.54540771484375,-0.0022143214009702206,-0.008704573847353458,0.002061609411612153
1771682512110766000,5.55576611328125,-0.00038177953683771193,0.01511846948415041,0.00022906772210262716
1771682512121124400,5.566124267578125,0.00022906772210262716,-0.012980503961443901,0.0014507622690871358
1771682512131482600,5.576482666015625,0.002061609411612153,0.0065666078589856625,0.00022906772210262716
1771682512141841000,5.5868408203125,0.0008399150101467967,-0.00992626789957285,-0.0009926267666742206
1771682512152199200,5.59719921875,-0.0009926267666742206,0.012064233422279358,0.0014507622690871358
1771682512162557400,5.607557373046875,-0.0016034740256145597,-0.0038177953101694584,-0.00038177953683771193
1771682512172915700,5.617915771484375,-0.0009926267666742206,0.005955760832875967,0.0032833039294928312
1771682512183274000,5.62827392578125,0.00022906772210262716,0.011453386396169662,-0.0022143214009702206
1771682512193632300,5.63863232421875,0.00022906772210262716,-0.022754060104489326,0.002672456670552492
1771682512203990500,5.648990478515625,0.002672456670552492,0.023059483617544174,-0.004046862944960594
1771682512214348800,5.659348876953125,0.0008399150101467967,-0.03374931216239929,0.004504998680204153
1771682512224707000,5.66970703125,-0.0009926267666742206,0.043828289955854416,-0.005268557462841272
1771682512235065300,5.6800654296875,-0.0016034740256145597,-0.04230117425322533,0.006337540224194527
1771682512245423600,5.690423583984375,-0.0016034740256145597,0.05115845799446106,-0.004657710436731577
1771682512255782000,5.700781982421875,0.00022906772210262716,-0.046577103435993195,0.007559234742075205
1771682512266140200,5.71114013671875,0.002061609411612153,0.03833066672086716,-0.004046862944960594
1771682512276498400,5.72149853515625,0.0014507622690871358,-0.038636088371276855,0.004504998680204153
1771682512286856700,5.731856689453125,0.00022906772210262716,0.03161134570837021,-0.004657710436731577
1771682512297215000,5.742215087890625,-0.0009926267666742206,-0.03374931216239929,0.005726693198084831
1771682512307573200,5.7525732421875,-0.0022143214009702206,0.042606595903635025,-0.0034360159188508987
1771682512317931800,5.762931884765625,-0.0009926267666742206,-0.031916771084070206,0.005726693198084831
1771682512328290000,5.7732900390625,-0.00038177953683771193,0.03161134570837021,-0.0028251686599105597
1771682512338648300,5.7836484375,0.0014507622690871358,-0.027029991149902344,0.002061609411612153
1771682512349006300,5.79400634765625,0.0008399150101467967,0.014507622458040714,-0.0016034740256145597
1771682512359364600,5.804364501953125,0.00022906772210262716,-0.013591351918876171,0.0008399150101467967
1771682512369723100,5.81472314453125,-0.0016034740256145597,0.016340164467692375,-0.0009926267666742206
1771682512380081400,5.825081298828125,-0.0016034740256145597,-0.007482878863811493,0.0014507622690871358
1771682512390439700,5.835439697265625,-0.0016034740256145597,0.01511846948415041,0.0008399150101467967
1771682512400798000,5.8457978515625,0.0008399150101467967,-0.012980503961443901,0.0014507622690871358
1771682512411156200,5.85615625,0.002061609411612153,0.009009997360408306,-0.00038177953683771193
1771682512421514200,5.86651416015625,0.0014507622690871358,-0.011147962883114815,0.00022906772210262716
1771682512431872800,5.876872802734375,-0.0016034740256145597,0.007788302376866341,0.00022906772210262716
1771682512442231000,5.88723095703125,-0.0016034740256145597,-0.0007635590736754239,0.0008399150101467967
1771682512452589300,5.89758935546875,-0.0022143214009702206,0.009620844386518002,0.0014507622690871358
1771682512462947600,5.907947509765625,-0.00038177953683771193,0.005344913341104984,-0.00038177953683771193
1771682512473305900,5.918305908203125,-0.00038177953683771193,-0.0038177953101694584,0.0014507622690871358
1771682512483664100,5.9286640625,0.002061609411612153,-0.00015271181473508477,-0.0009926267666742206
1771682512494022400,5.9390224609375,0.002061609411612153,-0.004428642801940441,-0.0009926267666742206
1771682512504380700,5.949380615234375,0.00022906772210262716,-0.00259610079228878,0.0008399150101467967
1771682512514739000,5.959739013671875,-0.0009926267666742206,0.007788302376866341,-0.0016034740256145597
1771682512525097200,5.97009716796875,-0.0022143214009702206,-0.0007635590736754239,0.0008399150101467967
1771682512535455500,5.98045556640625,0.00022906772210262716,0.0022906772792339325,-0.00038177953683771193
1771682512545813800,5.990813720703125,0.0008399150101467967,0.0016798300202935934,-0.0009926267666742206
1771682512556172000,6.001172119140625,0.002061609411612153,-0.005650337319821119,-0.00038177953683771193
1771682512566530300,6.0115302734375,0.0008399150101467967,-0.008093725889921188,-0.0009926267666742206
1771682512576888600,6.021888671875,-0.0009926267666742206,0.009620844386518002,-0.00038177953683771193
1771682512587246800,6.032246826171875,-0.0016034740256145597,-0.0038177953101694584,-0.0009926267666742206
1771682512597605000,6.042605224609375,-0.0016034740256145597,0.0065666078589856625,0.0014507622690871358
1771682512607963400,6.05296337890625,-0.0016034740256145597,0.009620844386518002,-0.0009926267666742206
1771682512618321700,6.06332177734375,0.0008399150101467967,-0.008704573847353458,0.0014507622690871358
1771682512628680000,6.073679931640625,0.0014507622690871358,0.008399149402976036,-0.0034360159188508987
1771682512639038200,6.0840380859375,0.0008399150101467967,-0.02092151902616024,0.0038941511884331703
1771682512649396500,6.094396484375,0.00022906772210262716,0.032222192734479904,-0.004046862944960594
1771682512659754800,6.104754638671875,-0.0016034740256145597,-0.03924693539738655,0.006337540224194527
1771682512670113000,6.115113037109375,-0.0022143214009702206,0.05604523420333862,-0.005268557462841272
1771682512680471300,6.12547119140625,0.00022906772210262716,-0.051463883370161057,0.008170082233846188
1771682512690829600,6.13582958984375,0.0014507622690871358,0.0462716780602932,-0.004657710436731577
1771682512701187800,6.146187744140625,0.002061609411612153,-0.047798797488212585,0.005726693198084831
1771682512711546000,6.156546142578125,0.00022906772210262716,0.037108972668647766,-0.004046862944960594
1771682512721904400,6.166904296875,-0.0016034740256145597,-0.030695075169205666,0.0032833039294928312
1771682512732262700,6.1772626953125,-0.0022143214009702206,0.02367033064365387,-0.00038177953683771193
1771682512742621000,6.187620849609375,-0.0022143214009702206,-0.006261184345930815,0.002672456670552492
1771682512752979200,6.197979248046875,-0.00038177953683771193,0.010231691412627697,0.00022906772210262716
1771682512763337500,6.20833740234375,-0.00038177953683771193,-0.009315420873463154,0.00022906772210262716
1771682512773695700,6.21869580078125,0.0008399150101467967,0.0065666078589856625,-0.00038177953683771193
1771682512784054000,6.229053955078125,0.0008399150101467967,-0.016645587980747223,0.0008399150101467967
1771682512794412300,6.239412353515625,-0.00038177953683771193,0.016340164467692375,0.00022906772210262716
1771682512804770600,6.2497705078125,-0.0016034740256145597,-0.0068720318377017975,0.0008399150101467967
1771682512815128800,6.26012890625,-0.0022143214009702206,0.010842538438737392,0.0008399150101467967
1771682512825487000,6.270487060546875,-0.00038177953683771193,-0.001985253533348441,0.0008399150101467967
1771682512835845400,6.280845458984375,0.0008399150101467967,0.0016798300202935934,0.00022906772210262716
1771682512846203600,6.29120361328125,0.002061609411612153,-0.0050394898280501366,-0.00038177953683771193
1771682512856562000,6.30156201171875,0.00022906772210262716,-0.0032069480512291193,0.00022906772210262716
1771682512866920200,6.311920166015625,0.00022906772210262716,0.004734066314995289,-0.00038177953683771193
1771682512877278500,6.322278564453125,-0.0016034740256145597,-0.001374406274408102,0.002061609411612153
1771682512887636700,6.33263671875,-0.0016034740256145597,0.013285927474498749,-0.0009926267666742206
1771682512897995000,6.3429951171875,0.00022906772210262716,-0.0038177953101694584,0.002061609411612153
1771682512908353300,6.353353271484375,0.00022906772210262716,0.0022906772792339325,-0.0022143214009702206
1771682512918711600,6.363711669921875,0.0014507622690871358,-0.00015271181473508477,-0.00038177953683771193
1771682512929069800,6.37406982421875,0.0008399150101467967,-0.008704573847353458,0.00022906772210262716
1771682512939428000,6.384427978515625,-0.0016034740256145597,0.011453386396169662,-0.0009926267666742206
1771682512949786400,6.394786376953125,-0.0022143214009702206,-0.001985253533348441,0.0008399150101467967
1771682512960144600,6.40514453125,-0.0016034740256145597,0.010231691412627697,0.00022906772210262716
1771682512970503000,6.4155029296875,-0.00038177953683771193,-0.0032069480512291193,0.002061609411612153
1771682512980861200,6.425861083984375,0.0014507622690871358,0.0029015245381742716,0.00022906772210262716
1771682512991219500,6.436219482421875,0.002061609411612153,-0.0068720318377017975,0.00022906772210262716
1771682513001577700,6.44657763671875,0.00022906772210262716,-0.0007635590736754239,-0.00038177953683771193
1771682513011936000,6.45693603515625,-0.0009926267666742206,0.005955760832875967,0.00022906772210262716
1771682513022294300,6.467294189453125,-0.0022143214009702206,-0.0038177953101694584,0.002061609411612153
1771682513032652500,6.477652587890625,-0.0016034740256145597,0.013896775431931019,0.00022906772210262716
1771682513043010800,6.4880107421875,0.00022906772210262716,-0.00015271181473508477,0.002672456670552492
1771682513053369000,6.498369140625,0.0008399150101467967,-0.00259610079228878,-0.0016034740256145597
1771682513063727400,6.508727294921875,0.0014507622690871358,-0.006261184345930815,0.002061609411612153
1771682513074085600,6.519085693359375,0.0008399150101467967,0.005955760832875967,-0.0028251686599105597
1771682513084444000,6.52944384765625,-0.00038177953683771193,-0.010537114925682545,0.0032833039294928312
1771682513094802200,6.53980224609375,-0.0022143214009702206,0.018783552572131157,-0.0016034740256145597
1771682513105160400,6.550160400390625,-0.0022143214009702206,-0.007482878863811493,0.0032833039294928312
1771682513115518700,6.560518798828125,0.00022906772210262716,0.012675080448389053,-0.00038177953683771193
1771682513125877000,6.570876953125,0.00022906772210262716,-0.021532366052269936,0.0014507622690871358
1771682513136235300,6.5812353515625,0.002061609411612153,0.026724567636847496,-0.0022143214009702206
1771682513146593500,6.591593505859375,0.00022906772210262716,-0.04046862944960594,0.002672456670552492
1771682513156951800,6.601951904296875,-0.0009926267666742206,0.041384901851415634,-0.0028251686599105597
1771682513167310000,6.61231005859375,-0.0009926267666742206,-0.02764083817601204,0.0038941511884331703
1771682513177668400,6.62266845703125,-0.0009926267666742206,0.029778804630041122,-0.0009926267666742206
1771682513188026600,6.633026611328125,0.00022906772210262716,-0.012980503961443901,0.002061609411612153
1771682513198385000,6.643385009765625,0.0008399150101467967,0.0035123717971146107,-0.0009926267666742206
1771682513208743200,6.6537431640625,0.0014507622690871358,0.004123218823224306,-0.0016034740256145597
1771682513219101400,6.664101318359375,0.00022906772210262716,-0.025197450071573257,0.0032833039294928312
1771682513229459700,6.674459716796875,-0.0016034740256145597,0.037108972668647766,-0.004657710436731577
1771682513239818000,6.68481787109375,-0.0034360159188508987,-0.0331384651362896,0.005726693198084831
1771682513250176300,6.69517626953125,-0.0022143214009702206,0.03955236077308655,-0.004657710436731577
1771682513260534500,6.705534423828125,-0.00038177953683771193,-0.030695075169205666,0.006948387715965509
1771682513270892800,6.715892822265625,0.0008399150101467967,0.024281177669763565,-0.005268557462841272
1771682513281251000,6.7262509765625,0.002061609411612153,-0.025197450071573257,0.0038941511884331703
1771682513291609300,6.736609375,0.0008399150101467967,0.014507622458040714,-0.0028251686599105597
1771682513301967600,6.746967529296875,-0.0009926267666742206,-0.007482878863811493,0.0014507622690871358
1771682513312326000,6.757325927734375,-0.0022143214009702206,0.012675080448389053,0.0008399150101467967
1771682513322684200,6.76768408203125,-0.0009926267666742206,0.0029015245381742716,0.002061609411612153
1771682513333042400,6.77804248046875,0.00022906772210262716,0.0010689827613532543,0.0008399150101467967
1771682513343400700,6.788400634765625,0.0008399150101467967,0.0010689827613532543,-0.0009926267666742206
1771682513353759000,6.798759033203125,0.0014507622690871358,-0.009315420873463154,0.0008399150101467967
1771682513364117200,6.8091171875,0.0008399150101467967,0.005955760832875967,-0.0009926267666742206
1771682513374475500,6.8194755859375,-0.0009926267666742206,-0.0038177953101694584,0.002061609411612153
1771682513384833800,6.829833740234375,-0.0022143214009702206,0.012675080448389053,-0.0016034740256145597
1771682513395192000,6.840192138671875,-0.0016034740256145597,-0.006261184345930815,0.0038941511884331703
1771682513405550300,6.85055029296875,0.00022906772210262716,0.010842538438737392,-0.00038177953683771193
1771682513415908600,6.86090869140625,0.0008399150101467967,-0.014813045971095562,0.0032833039294928312
1771682513426267000,6.871266845703125,0.0014507622690871358,0.013896775431931019,-0.0028251686599105597
1771682513436625200,6.881625244140625,0.00022906772210262716,-0.019088976085186005,0.002061609411612153
1771682513446983400,6.8919833984375,-0.0009926267666742206,0.021226942539215088,-0.0016034740256145597
1771682513457341700,6.902341796875,-0.0028251686599105597,-0.014202198944985867,0.0032833039294928312
1771682513467700000,6.912699951171875,-0.0016034740256145597,0.023059483617544174,-0.00038177953683771193
1771682513478058200,6.923058349609375,-0.00038177953683771193,-0.02092151902616024,0.002061609411612153
1771682513488416500,6.93341650390625,0.0008399150101467967,0.01817270554602146,-0.0022143214009702206
1771682513498774800,6.94377490234375,0.0008399150101467967,-0.022754060104489326,0.002061609411612153
1771682513509133000,6.954133056640625,0.00022906772210262716,0.01695101149380207,-0.0016034740256145597
1771682513519491300,6.9644912109375,-0.0009926267666742206,-0.014202198944985867,0.0032833039294928312
1771682513529849600,6.974849609375,-0.0022143214009702206,0.020616095513105392,-0.0009926267666742206
1771682513540207900,6.985207763671875,-0.0022143214009702206,-0.0038177953101694584,0.002061609411612153
1771682513550566100,6.995566162109375,-0.00038177953683771193,-0.0038177953101694584,0.0008399150101467967
1771682513560924400,7.00592431640625,0.002061609411612153,0.008399149402976036,-0.00038177953683771193
1771682513571282700,7.01628271484375,0.0014507622690871358,-0.015423892997205257,0.0008399150101467967
1771682513581641000,7.026640869140625,0.0008399150101467967,0.013285927474498749,-0.0016034740256145597
1771682513591999200,7.036999267578125,-0.0016034740256145597,-0.011147962883114815,0.002061609411612153
1771682513602357500,7.047357421875,-0.00038177953683771193,0.025502873584628105,-0.0009926267666742206
1771682513612715800,7.0577158203125,-0.00038177953683771193,-0.013591351918876171,0.0014507622690871358
1771682513623074000,7.068073974609375,0.0008399150101467967,0.013896775431931019,-0.00038177953683771193
1771682513633432300,7.078432373046875,0.0014507622690871358,-0.008093725889921188,-0.0009926267666742206
1771682513643790600,7.08879052734375,0.002061609411612153,-0.009315420873463154,0.0014507622690871358
1771682513654148900,7.09914892578125,0.0014507622690871358,0.01817270554602146,-0.0028251686599105597
1771682513664507100,7.109507080078125,-0.0016034740256145597,-0.022754060104489326,0.0038941511884331703
1771682513674865400,7.119865478515625,-0.0022143214009702206,0.037108972668647766,-0.004046862944960594
1771682513685223700,7.1302236328125,-0.00038177953683771193,-0.0331384651362896,0.006948387715965509
1771682513695582000,7.14058203125,-0.00038177953683771193,0.03527642786502838,-0.0034360159188508987
1771682513705940200,7.150940185546875,0.0008399150101467967,-0.036192700266838074,0.004504998680204153
1771682513716298500,7.161298583984375,0.00022906772210262716,0.029778804630041122,-0.004046862944960594
1771682513726656800,7.17165673828125,-0.00038177953683771193,-0.027029991149902344,0.0032833039294928312
1771682513737015000,7.18201513671875,-0.0016034740256145597,0.026724567636847496,-0.0022143214009702206
1771682513747373300,7.192373291015625,-0.0022143214009702206,-0.019088976085186005,0.004504998680204153
1771682513757731600,7.202731689453125,-0.0009926267666742206,0.029778804630041122,-0.0034360159188508987
1771682513768089900,7.21308984375,0.00022906772210262716,-0.028251685202121735,0.004504998680204153
1771682513778448100,7.2234482421875,0.0014507622690871358,0.021837789565324783,-0.004046862944960594
1771682513788806400,7.233806396484375,0.00022906772210262716,-0.025197450071573257,0.002672456670552492
1771682513799164700,7.24416455078125,-0.00038177953683771193,0.019394399598240852,-0.0016034740256145597
1771682513809523000,7.25452294921875,-0.0016034740256145597,-0.00992626789957285,0.0014507622690871358
1771682513819881200,7.264881103515625,-0.0022143214009702206,0.009620844386518002,-0.00038177953683771193
1771682513830239500,7.275239501953125,-0.00038177953683771193,-0.0038177953101694584,0.0014507622690871358
1771682513840597800,7.28559765625,0.0014507622690871358,-0.00015271181473508477,0.00022906772210262716
1771682513850956000,7.2959560546875,0.0014507622690871358,-0.001374406274408102,0.00022906772210262716
1771682513861314300,7.306314208984375,0.00022906772210262716,-0.009315420873463154,0.00022906772210262716
1771682513871672600,7.316672607421875,-0.00038177953683771193,0.010842538438737392,-0.00038177953683771193
1771682513882030800,7.32703076171875,-0.0022143214009702206,-0.00992626789957285,0.002672456670552492
1771682513892389000,7.33738916015625,-0.0022143214009702206,0.020616095513105392,0.00022906772210262716
1771682513902747400,7.347747314453125,-0.0016034740256145597,-0.013591351918876171,0.002672456670552492
1771682513913105700,7.358105712890625,0.00022906772210262716,0.012064233422279358,-0.0022143214009702206
1771682513923464000,7.3684638671875,0.0014507622690871358,-0.014813045971095562,0.0008399150101467967
1771682513933822200,7.378822265625,0.00022906772210262716,0.005955760832875967,-0.0009926267666742206
1771682513944180500,7.389180419921875,-0.00038177953683771193,-0.0038177953101694584,0.00022906772210262716
1771682513954538800,7.399538818359375,-0.0016034740256145597,0.009009997360408306,0.00022906772210262716
1771682513964897000,7.40989697265625,-0.0022143214009702206,-0.0007635590736754239,0.0008399150101467967
1771682513975255300,7.42025537109375,-0.0009926267666742206,0.0035123717971146107,0.0014507622690871358
1771682513985613600,7.430613525390625,0.0008399150101467967,-0.0038177953101694584,0.0008399150101467967
1771682513995971800,7.440971923828125,0.0014507622690871358,0.0004581354442052543,0.00022906772210262716
1771682514006330000,7.451330078125,-0.00038177953683771193,-0.004428642801940441,-0.0016034740256145597
1771682514016688400,7.4616884765625,-0.0009926267666742206,0.0016798300202935934,0.0014507622690871358
1771682514027046700,7.472046630859375,-0.0022143214009702206,0.009620844386518002,0.0008399150101467967
1771682514037405000,7.482405029296875,-0.0022143214009702206,0.0016798300202935934,0.0008399150101467967
1771682514047763200,7.49276318359375,0.00022906772210262716,0.0022906772792339325,0.0014507622690871358
1771682514058121500,7.50312158203125,0.00022906772210262716,0.0010689827613532543,-0.0016034740256145597
1771682514068479700,7.513479736328125,0.002061609411612153,-0.0068720318377017975,0.0008399150101467967
1771682514078838000,7.523838134765625,0.0008399150101467967,-0.00259610079228878,-0.0009926267666742206
1771682514089196300,7.5341962890625,-0.00038177953683771193,0.004123218823224306,0.0008399150101467967
1771682514099554600,7.544554443359375,-0.0022143214009702206,0.007788302376866341,0.00022906772210262716
1771682514109912800,7.554912841796875,-0.00038177953683771193,-0.011147962883114815,0.0038941511884331703
1771682514120271000,7.56527099609375,0.0008399150101467967,0.02733541466295719,-0.0022143214009702206
1771682514130629400,7.57562939453125,0.0014507622690871358,-0.04230117425322533,0.006337540224194527
1771682514140987600,7.585987548828125,0.002061609411612153,0.04749337583780289,-0.0064902519807219505
1771682514151346000,7.596345947265625,-0.00038177953683771193,-0.05635065957903862,0.008170082233846188
1771682514161704200,7.6067041015625,-0.00038177953683771193,0.06276455521583557,-0.007711946498602629
1771682514172062500,7.6170625,-0.0022143214009702206,-0.056961506605148315,0.009391776286065578
1771682514182420700,7.627420654296875,-0.0016034740256145597,0.06337540596723557,-0.0064902519807219505
1771682514192779000,7.637779052734375,-0.00038177953683771193,-0.05207473039627075,0.007559234742075205
1771682514203137300,7.64813720703125,0.0008399150101467967,0.042606595903635025,-0.005268557462841272
1771682514213495600,7.65849560546875,0.0008399150101467967,-0.04474456235766411,0.005726693198084831
1771682514223853800,7.668853759765625,-0.00038177953683771193,0.03588727489113808,-0.005879404954612255
1771682514234212000,7.679212158203125,-0.0028251686599105597,-0.02764083817601204,0.004504998680204153
1771682514244570400,7.6895703125,-0.0034360159188508987,0.033443886786699295,-0.0034360159188508987
1771682514254928600,7.6999287109375,-0.0016034740256145597,-0.021532366052269936,0.0038941511884331703
1771682514265287000,7.710286865234375,-0.00038177953683771193,0.017561858519911766,-0.0009926267666742206
1771682514275645200,7.720645263671875,0.0014507622690871358,-0.016034740954637527,0.0008399150101467967
1771682514286003500,7.73100341796875,0.0014507622690871358,0.009620844386518002,-0.0009926267666742206
1771682514296361700,7.74136181640625,0.00022906772210262716,-0.009315420873463154,0.0008399150101467967
1771682514306720000,7.751719970703125,-0.00038177953683771193,0.010842538438737392,0.00022906772210262716
1771682514317078300,7.762078369140625,-0.0016034740256145597,-0.0038177953101694584,0.0008399150101467967
1771682514327436500,7.7724365234375,-0.0009926267666742206,0.01695101149380207,-0.0009926267666742206
1771682514337794800,7.782794921875,-0.00038177953683771193,-0.012980503961443901,0.0008399150101467967
1771682514348153000,7.793153076171875,0.00022906772210262716,0.009620844386518002,-0.0022143214009702206
1771682514358511400,7.803511474609375,0.0008399150101467967,-0.014813045971095562,0.0008399150101467967
1771682514368869600,7.81386962890625,-0.00038177953683771193,0.01511846948415041,-0.0028251686599105597
1771682514379228000,7.824227783203125,-0.00038177953683771193,-0.006261184345930815,0.0014507622690871358
1771682514389586200,7.834586181640625,-0.0022143214009702206,0.010842538438737392,0.0008399150101467967
1771682514399944400,7.8449443359375,-0.00038177953683771193,-0.0038177953101694584,0.002061609411612153
1771682514410302700,7.855302734375,0.0008399150101467967,0.0022906772792339325,0.00022906772210262716
1771682514420661000,7.865660888671875,0.0014507622690871358,-0.00015271181473508477,-0.00038177953683771193
1771682514431019300,7.876019287109375,0.0014507622690871358,-0.008093725889921188,0.0014507622690871358
1771682514441377500,7.88637744140625,-0.00038177953683771193,0.007177455350756645,-0.00038177953683771193
1771682514451735800,7.89673583984375,-0.0009926267666742206,-0.0032069480512291193,0.002672456670552492
1771682514462094000,7.907093994140625,-0.0022143214009702206,0.010842538438737392,-0.00038177953683771193
1771682514472452400,7.917452392578125,-0.0016034740256145597,-0.0007635590736754239,0.002061609411612153
1771682514482810600,7.927810546875,-0.00038177953683771193,-0.0032069480512291193,0.00022906772210262716
1771682514493169000,7.9381689453125,0.0014507622690871358,0.005344913341104984,-0.0009926267666742206
1771682514503527200,7.948527099609375,0.0008399150101467967,-0.014202198944985867,0.0008399150101467967
1771682514513885400,7.958885498046875,-0.00038177953683771193,0.012064233422279358,0.0008399150101467967
1771682514524243500,7.969243408203125,-0.0022143214009702206,-0.004428642801940441,0.0014507622690871358
1771682514534602000,7.97960205078125,-0.0016034740256145597,0.004123218823224306,0.0008399150101467967
1771682514544960300,7.989960205078125,-0.00038177953683771193,0.008399149402976036,-0.00038177953683771193
1771682514555318500,8.000318603515625,0.00022906772210262716,-0.013591351918876171,0.002061609411612153
1771682514565676500,8.010676513671875,0.0014507622690871358,0.014507622458040714,-0.0022143214009702206
1771682514576034800,8.021034912109375,0.00022906772210262716,-0.02886253222823143,0.0038941511884331703
1771682514586393300,8.031393310546875,0.00022906772210262716,0.041384901851415634,-0.004046862944960594
1771682514596751600,8.041751708984375,-0.0022143214009702206,-0.046577103435993195,0.007559234742075205
1771682514607109600,8.052109619140625,-0.0016034740256145597,0.060932014137506485,-0.005268557462841272
1771682514617468000,8.062468017578125,-0.00038177953683771193,-0.05207473039627075,0.006948387715965509
1771682514627826200,8.072826171875,0.0008399150101467967,0.04443913698196411,-0.005268557462841272
1771682514638184400,8.083184326171875,0.0014507622690871358,-0.04107947647571564,0.0038941511884331703
1771682514648543000,8.09354296875,0.00022906772210262716,0.031000498682260513,-0.0034360159188508987
1771682514658901000,8.10390087890625,-0.0009926267666742206,-0.01847812905907631,0.0014507622690871358
1771682514669259300,8.11425927734375,-0.0022143214009702206,0.013896775431931019,0.0008399150101467967
1771682514679617500,8.124617431640624,-0.0016034740256145597,0.0035123717971146107,-0.00038177953683771193
1771682514689975800,8.134975830078124,0.00022906772210262716,-0.001985253533348441,0.002061609411612153
1771682514700334000,8.145333984375,0.0008399150101467967,0.0010689827613532543,-0.0009926267666742206
1771682514710692400,8.1556923828125,0.0008399150101467967,-0.0038177953101694584,0.0008399150101467967
1771682514721050600,8.166050537109374,-0.00038177953683771193,-0.0007635590736754239,-0.0016034740256145597
1771682514731409000,8.176408935546876,-0.0016034740256145597,0.0029015245381742716,0.0014507622690871358
1771682514741767200,8.18676708984375,-0.0016034740256145597,0.0035123717971146107,0.00022906772210262716
1771682514752125400,8.19712548828125,-0.0016034740256145597,0.007788302376866341,0.0014507622690871358
1771682514762483700,8.207483642578126,0.0008399150101467967,-0.0038177953101694584,-0.00038177953683771193
1771682514772842000,8.217842041015626,0.0008399150101467967,0.0004581354442052543,-0.00038177953683771193
1771682514783200300,8.2282001953125,0.002061609411612153,-0.00259610079228878,-0.0022143214009702206
1771682514793558500,8.23855859375,-0.00038177953683771193,-0.00259610079228878,0.0014507622690871358
1771682514803916800,8.248916748046875,-0.0009926267666742206,0.007177455350756645,-0.0009926267666742206
1771682514814275000,8.259275146484375,-0.0028251686599105597,-0.004428642801940441,0.0032833039294928312
1771682514824633300,8.26963330078125,-0.0016034740256145597,0.012675080448389053,-0.0009926267666742206
1771682514834991600,8.27999169921875,0.00022906772210262716,-0.010537114925682545,0.0032833039294928312
1771682514845350000,8.290349853515625,0.0014507622690871358,0.005344913341104984,-0.0009926267666742206
1771682514855708200,8.300708251953125,0.0014507622690871358,-0.01175880990922451,0.002061609411612153
1771682514866066400,8.31106640625,0.00022906772210262716,0.010231691412627697,-0.0016034740256145597
1771682514876424700,8.3214248046875,-0.0009926267666742206,-0.0032069480512291193,0.002672456670552492
1771682514886783000,8.331782958984375,-0.0016034740256145597,0.0065666078589856625,0.0008399150101467967
1771682514897141200,8.342141357421875,-0.0009926267666742206,0.0016798300202935934,0.002061609411612153
1771682514907499500,8.35249951171875,0.00022906772210262716,-0.0007635590736754239,0.0008399150101467967
1771682514917857800,8.36285791015625,0.0014507622690871358,-0.001374406274408102,-0.00038177953683771193
1771682514928216000,8.373216064453125,0.0008399150101467967,-0.0068720318377017975,0.0008399150101467967
1771682514938574300,8.38357421875,0.00022906772210262716,0.0029015245381742716,-0.00038177953683771193
1771682514948932600,8.3939326171875,-0.0016034740256145597,0.0016798300202935934,0.0008399150101467967
1771682514959291000,8.404290771484375,-0.0022143214009702206,0.008399149402976036,-0.00038177953683771193
1771682514969649200,8.414649169921875,-0.00038177953683771193,-0.001985253533348441,0.0014507622690871358
1771682514980007400,8.42500732421875,0.0008399150101467967,-0.00015271181473508477,0.0014507622690871358
1771682514990365700,8.43536572265625,0.0008399150101467967,0.0035123717971146107,-0.0016034740256145597
1771682515000724000,8.445723876953124,0.0008399150101467967,-0.015423892997205257,0.002061609411612153
1771682515011082200,8.456082275390624,-0.0009926267666742206,0.020005248486995697,-0.0028251686599105597
1771682515021440500,8.4664404296875,-0.0022143214009702206,-0.020310672000050545,0.004504998680204153
1771682515031798800,8.476798828125,-0.0022143214009702206,0.028557108715176582,-0.0022143214009702206
1771682515042157000,8.487156982421874,-0.0016034740256145597,-0.016034740954637527,0.002672456670552492
1771682515052515300,8.497515380859374,0.00022906772210262716,0.019394399598240852,-0.0016034740256145597
1771682515062873600,8.50787353515625,0.00022906772210262716,-0.025197450071573257,0.00022906772210262716
1771682515073232000,8.51823193359375,0.0008399150101467967,0.023059483617544174,-0.0009926267666742206
1771682515083590100,8.528590087890626,0.00022906772210262716,-0.022754060104489326,0.002061609411612153
1771682515093948400,8.538948486328126,-0.00038177953683771193,0.02367033064365387,-0.00038177953683771193
1771682515104306700,8.549306640625,-0.0022143214009702206,-0.007482878863811493,0.0014507622690871358
1771682515114665000,8.5596650390625,-0.0009926267666742206,0.005955760832875967,0.0008399150101467967
1771682515125023200,8.570023193359376,0.0008399150101467967,-0.001985253533348441,-0.00038177953683771193
1771682515135381500,8.580381591796876,0.0014507622690871358,-0.008704573847353458,0.0008399150101467967
1771682515145739800,8.59073974609375,0.0008399150101467967,0.012064233422279358,-0.0028251686599105597
1771682515156098000,8.60109814453125,-0.00038177953683771193,-0.020310672000050545,0.0038941511884331703
1771682515166456300,8.611456298828125,-0.0009926267666742206,0.02489202655851841,-0.0022143214009702206
1771682515176814600,8.621814697265625,-0.0022143214009702206,-0.014813045971095562,0.0051158457063138485
1771682515187172900,8.6321728515625,-0.00038177953683771193,0.026724567636847496,-0.004046862944960594
1771682515197531100,8.64253125,-0.00038177953683771193,-0.02764083817601204,0.005726693198084831
1771682515207889400,8.652889404296875,0.0008399150101467967,0.0261137206107378,-0.0064902519807219505
1771682515218247700,8.66324755859375,0.00022906772210262716,-0.0325276181101799,0.006337540224194527
1771682515228605700,8.673605712890625,0.00022906772210262716,0.03405473381280899,-0.005879404954612255
1771682515238964200,8.683964111328125,-0.0016034740256145597,-0.024586603045463562,0.0051158457063138485
1771682515249322500,8.694322509765625,-0.0009926267666742206,0.029167955741286278,-0.0028251686599105597
1771682515259680500,8.704680419921875,0.00022906772210262716,-0.021532366052269936,0.0051158457063138485
1771682515270038800,8.715038818359375,0.0014507622690871358,0.01695101149380207,-0.0022143214009702206
1771682515280397000,8.72539697265625,0.002061609411612153,-0.016645587980747223,0.002061609411612153
1771682515290755600,8.735755615234375,0.00022906772210262716,0.011453386396169662,-0.0022143214009702206
1771682515301113900,8.74611376953125,-0.0009926267666742206,-0.011147962883114815,0.002672456670552492
1771682515311471900,8.756471923828125,-0.0022143214009702206,0.013896775431931019,-0.0009926267666742206
1771682515321830100,8.766830078125,-0.0016034740256145597,-0.0007635590736754239,0.002061609411612153
1771682515332188400,8.7771884765625,-0.00038177953683771193,0.007788302376866341,-0.00038177953683771193
1771682515342546700,8.787546630859374,0.0008399150101467967,-0.010537114925682545,0.0014507622690871358
1771682515352905000,8.797905029296874,0.0014507622690871358,0.004123218823224306,-0.0016034740256145597
1771682515363263200,8.80826318359375,-0.00038177953683771193,-0.005650337319821119,0.0008399150101467967
1771682515373621500,8.81862158203125,-0.0009926267666742206,0.009009997360408306,-0.0009926267666742206
1771682515383979800,8.828979736328124,-0.0022143214009702206,-0.004428642801940441,0.002672456670552492
1771682515394338000,8.839338134765624,-0.0009926267666742206,0.012675080448389053,-0.00038177953683771193
1771682515404696300,8.8496962890625,0.00022906772210262716,-0.006261184345930815,0.002672456670552492
1771682515415054600,8.8600546875,0.0008399150101467967,0.004123218823224306,-0.0009926267666742206
1771682515425412900,8.870412841796876,0.002061609411612153,-0.0068720318377017975,0.0008399150101467967
1771682515435771100,8.880771240234376,-0.00038177953683771193,0.0016798300202935934,-0.00038177953683771193
1771682515446129400,8.89112939453125,-0.0009926267666742206,0.004734066314995289,0.0014507622690871358
1771682515456487700,8.90148779296875,-0.0022143214009702206,0.0022906772792339325,0.0008399150101467967
1771682515466846000,8.911845947265626,-0.0016034740256145597,0.0065666078589856625,0.0008399150101467967
1771682515477204200,8.922204345703125,-0.00038177953683771193,0.0035123717971146107,-0.00038177953683771193
1771682515487562500,8.9325625,0.0008399150101467967,-0.009315420873463154,-0.0009926267666742206
1771682515497920800,8.942920654296875,0.0008399150101467967,0.008399149402976036,-0.0009926267666742206
1771682515508279000,8.953279052734375,-0.00038177953683771193,-0.014813045971095562,-0.00038177953683771193
1771682515518637300,8.96363720703125,-0.0009926267666742206,0.014507622458040714,-0.00038177953683771193
1771682515528995600,8.97399560546875,-0.0022143214009702206,-0.007482878863811493,0.0014507622690871358
1771682515539353900,8.984353759765625,-0.0016034740256145597,0.01511846948415041,0.0014507622690871358
1771682515549712100,8.994712158203125,0.00022906772210262716,-0.012980503961443901,0.0008399150101467967
1771682515560070400,9.0050703125,0.0008399150101467967,0.004734066314995289,0.00022906772210262716
1771682515570428700,9.0154287109375,0.0008399150101467967,0.0035123717971146107,-0.0009926267666742206
1771682515580787000,9.025786865234375,-0.0009926267666742206,-0.02092151902616024,0.002672456670552492
1771682515591145200,9.036145263671875,-0.0016034740256145597,0.034665580838918686,-0.0022143214009702206
1771682515601503500,9.04650341796875,-0.0022143214009702206,-0.036192700266838074,0.006948387715965509
1771682515611861800,9.05686181640625,-0.0009926267666742206,0.050547610968351364,-0.0064902519807219505
1771682515622220000,9.067219970703125,-0.00038177953683771193,-0.05268557742238045,0.009391776286065578
1771682515632578300,9.077578369140625,0.0008399150101467967,0.050547610968351364,-0.008322793990373611
1771682515642936600,9.0879365234375,0.0014507622690871358,-0.051463883370161057,0.007559234742075205
1771682515653294800,9.098294921875,0.0008399150101467967,0.04077405482530594,-0.0064902519807219505
1771682515663653000,9.108653076171874,-0.0009926267666742206,-0.02886253222823143,0.0051158457063138485
1771682515674011400,9.119011474609374,-0.0016034740256145597,0.0328330397605896,-0.0034360159188508987
1771682515684369700,9.12936962890625,-0.0009926267666742206,-0.025197450071573257,0.005726693198084831
1771682515694728000,9.13972802734375,0.0008399150101467967,0.025502873584628105,-0.0028251686599105597
1771682515705086200,9.150086181640624,0.002061609411612153,-0.03008422814309597,0.0038941511884331703
1771682515715444500,9.160444580078124,0.0014507622690871358,0.02733541466295719,-0.0034360159188508987
1771682515725802800,9.170802734375,-0.00038177953683771193,-0.03008422814309597,0.0038941511884331703
1771682515736161000,9.1811611328125,-0.0016034740256145597,0.03405473381280899,-0.0034360159188508987
1771682515746519000,9.19151904296875,-0.0022143214009702206,-0.024586603045463562,0.0051158457063138485
1771682515756877300,9.201877197265626,-0.0016034740256145597,0.03405473381280899,-0.0028251686599105597
1771682515767235800,9.21223583984375,0.00022906772210262716,-0.03130592033267021,0.0032833039294928312
1771682515777593900,9.22259375,0.00022906772210262716,0.0261137206107378,-0.0034360159188508987
1771682515787952000,9.2329521484375,0.0008399150101467967,-0.02886253222823143,0.0032833039294928312
1771682515798310400,9.243310302734375,-0.00038177953683771193,0.02244863659143448,-0.0028251686599105597
1771682515808668700,9.253668701171875,-0.0016034740256145597,-0.00992626789957285,0.002672456670552492
1771682515819027000,9.26402685546875,-0.0028251686599105597,0.013285927474498749,-0.00038177953683771193
1771682515829385200,9.27438525390625,0.00022906772210262716,-0.001374406274408102,0.0008399150101467967
1771682515839743500,9.284743408203125,0.0008399150101467967,-0.00259610079228878,0.0008399150101467967
1771682515850101800,9.295101806640625,0.002061609411612153,-0.0007635590736754239,-0.0009926267666742206
1771682515860460000,9.3054599609375,0.0008399150101467967,-0.0038177953101694584,0.00022906772210262716
1771682515870818300,9.315818359375,-0.0009926267666742206,0.0004581354442052543,0.00022906772210262716
1771682515881176600,9.326176513671875,-0.0016034740256145597,0.0065666078589856625,0.0014507622690871358
1771682515891534800,9.336534912109375,-0.0022143214009702206,0.0010689827613532543,0.002061609411612153
1771682515901893000,9.34689306640625,-0.00038177953683771193,0.009009997360408306,0.00022906772210262716
1771682515912251400,9.35725146484375,0.00022906772210262716,-0.010537114925682545,0.0014507622690871358
1771682515922609700,9.367609619140625,0.002061609411612153,0.005344913341104984,-0.00038177953683771193
1771682515932968000,9.377968017578125,0.0008399150101467967,-0.008704573847353458,0.0008399150101467967
1771682515943326200,9.388326171875,-0.00038177953683771193,0.012675080448389053,-0.0009926267666742206
1771682515953684500,9.3986845703125,-0.0022143214009702206,-0.00992626789957285,0.002672456670552492
1771682515964042800,9.409042724609375,-0.0022143214009702206,0.01511846948415041,0.0008399150101467967
1771682515974401000,9.419401123046875,-0.00038177953683771193,-0.006261184345930815,0.0014507622690871358
1771682515984759300,9.42975927734375,0.0008399150101467967,0.0004581354442052543,0.0014507622690871358
1771682515995117600,9.44011767578125,0.0008399150101467967,0.0016798300202935934,-0.0009926267666742206
1771682516005475800,9.450475830078124,0.0008399150101467967,-0.008093725889921188,0.002061609411612153
1771682516015834000,9.460834228515624,-0.00038177953683771193,0.013896775431931019,-0.0016034740256145597
1771682516026192400,9.4711923828125,-0.0022143214009702206,-0.016034740954637527,0.004504998680204153
1771682516036550700,9.481550537109374,-0.0009926267666742206,0.03833066672086716,-0.004046862944960594
1771682516046909000,9.491908935546874,-0.00038177953683771193,-0.04291202127933502,0.005726693198084831
1771682516057267200,9.50226708984375,0.0008399150101467967,0.04871506989002228,-0.007101099472492933
1771682516067625500,9.51262548828125,0.0008399150101467967,-0.056961506605148315,0.006337540224194527
1771682516077983700,9.522983642578126,0.00022906772210262716,0.050547610968351364,-0.005879404954612255
1771682516088342000,9.533342041015626,-0.0016034740256145597,-0.045355409383773804,0.006337540224194527
1771682516098700300,9.5437001953125,-0.0016034740256145597,0.050547610968351364,-0.004046862944960594
1771682516109058600,9.55405859375,-0.0016034740256145597,-0.04046862944960594,0.0051158457063138485
1771682516119416800,9.564416748046876,0.00022906772210262716,0.03649812191724777,-0.0034360159188508987
1771682516129775000,9.574775146484376,0.0008399150101467967,-0.03008422814309597,0.0032833039294928312
1771682516140133400,9.58513330078125,0.0008399150101467967,0.018783552572131157,-0.0022143214009702206
1771682516150491400,9.595491455078125,-0.00038177953683771193,-0.019088976085186005,0.0014507622690871358
1771682516160849700,9.605849609375,-0.0009926267666742206,0.021226942539215088,-0.0009926267666742206
1771682516171208000,9.6162080078125,-0.0028251686599105597,-0.016645587980747223,0.002672456670552492
1771682516181566200,9.626566162109375,-0.0022143214009702206,0.025502873584628105,-0.00038177953683771193
1771682516191924500,9.636924560546875,-0.00038177953683771193,-0.017867282032966614,0.002061609411612153
1771682516202282800,9.64728271484375,0.00022906772210262716,0.010842538438737392,-0.0009926267666742206
1771682516212641000,9.65764111328125,0.002061609411612153,-0.009315420873463154,-0.00038177953683771193
1771682516222999300,9.667999267578125,-0.00038177953683771193,-0.00015271181473508477,0.00022906772210262716
1771682516233357600,9.678357666015625,-0.0009926267666742206,0.005344913341104984,-0.00038177953683771193
1771682516243715800,9.6887158203125,-0.0016034740256145597,0.0016798300202935934,0.002672456670552492
1771682516254074000,9.69907421875,-0.0009926267666742206,0.005955760832875967,-0.00038177953683771193
1771682516264432400,9.709432373046875,0.0008399150101467967,-0.006261184345930815,0.004504998680204153
1771682516274790700,9.719790771484375,0.002061609411612153,0.005955760832875967,-0.0016034740256145597
1771682516285149000,9.73014892578125,0.0014507622690871358,-0.00992626789957285,0.002061609411612153
1771682516295507200,9.740507080078125,0.00022906772210262716,0.0035123717971146107,-0.0016034740256145597
1771682516305865500,9.750865478515625,-0.0016034740256145597,0.004123218823224306,0.0014507622690871358
1771682516316223700,9.7612236328125,-0.0016034740256145597,0.0010689827613532543,0.0014507622690871358
1771682516326582000,9.77158203125,-0.00038177953683771193,0.012064233422279358,0.0008399150101467967
1771682516336940300,9.781940185546874,0.0008399150101467967,-0.004428642801940441,0.00022906772210262716
1771682516347298600,9.792298583984374,0.0014507622690871358,-0.00015271181473508477,-0.00038177953683771193
1771682516357656800,9.80265673828125,0.002061609411612153,-0.005650337319821119,0.00022906772210262716
1771682516368015000,9.81301513671875,0.00022906772210262716,0.004123218823224306,-0.0009926267666742206
1771682516378373400,9.823373291015624,-0.0016034740256145597,-0.00015271181473508477,-0.00038177953683771193
1771682516388731600,9.833731689453124,-0.0022143214009702206,0.007177455350756645,0.0008399150101467967
1771682516399090000,9.84408984375,-0.0009926267666742206,0.005955760832875967,-0.00038177953683771193
1771682516409448200,9.8544482421875,0.0008399150101467967,-0.005650337319821119,0.0014507622690871358
1771682516419806500,9.864806396484376,0.0014507622690871358,0.0004581354442052543,-0.0016034740256145597
1771682516430164700,9.875164794921876,0.0014507622690871358,0.0010689827613532543,-0.0009926267666742206
1771682516440523000,9.88552294921875,-0.00038177953683771193,-0.004428642801940441,0.00022906772210262716
1771682516450881300,9.89588134765625,-0.00038177953683771193,0.0016798300202935934,0.002672456670552492
1771682516461239600,9.906239501953126,-0.0022143214009702206,0.014507622458040714,-0.00038177953683771193
1771682516471597800,9.916597900390625,-0.0009926267666742206,-0.014813045971095562,0.004504998680204153
1771682516481956000,9.9269560546875,0.0008399150101467967,0.020005248486995697,-0.0028251686599105597
1771682516492314400,9.937314453125,0.00022906772210262716,-0.023975754156708717,0.002672456670552492
1771682516502672600,9.947672607421875,0.0008399150101467967,0.02367033064365387,-0.0034360159188508987
1771682516513030700,9.95803076171875,-0.0009926267666742206,-0.03130592033267021,0.0038941511884331703
1771682516523389000,9.968388916015625,-0.0016034740256145597,0.04749337583780289,-0.0034360159188508987
1771682516533747200,9.978747314453125,-0.0016034740256145597,-0.04840964451432228,0.006948387715965509
1771682516544105500,9.98910546875,0.00022906772210262716,0.04810422286391258,-0.0034360159188508987
1771682516554463700,9.999463623046875,0.002061609411612153,-0.04107947647571564,0.005726693198084831
1771682516564822000,10.009822021484375,0.0014507622690871358,0.029778804630041122,-0.0034360159188508987
1771682516575180300,10.02018017578125,0.00022906772210262716,-0.027029991149902344,0.002672456670552492
1771682516585538600,10.03053857421875,-0.00038177953683771193,0.017561858519911766,-0.00038177953683771193
1771682516595896800,10.040896728515625,-0.0016034740256145597,0.0004581354442052543,-0.0009926267666742206
1771682516606255000,10.051255126953125,-0.0016034740256145597,-0.00259610079228878,0.0032833039294928312
1771682516616613400,10.06161328125,-0.00038177953683771193,0.011453386396169662,-0.0022143214009702206
1771682516626971600,10.0719716796875,0.0014507622690871358,-0.012980503961443901,0.002061609411612153
1771682516637330000,10.082329833984375,0.002061609411612153,0.009009997360408306,-0.0028251686599105597
1771682516647688200,10.092688232421875,-0.00038177953683771193,-0.011147962883114815,0.002672456670552492
1771682516658046500,10.10304638671875,-0.00038177953683771193,0.021837789565324783,-0.004046862944960594
1771682516668404700,10.11340478515625,-0.0028251686599105597,-0.021532366052269936,0.0051158457063138485
1771682516678763000,10.123762939453124,0.00022906772210262716,0.02733541466295719,-0.004046862944960594
1771682516689121300,10.134121337890624,0.00022906772210262716,-0.025197450071573257,0.0051158457063138485
1771682516699479600,10.1444794921875,0.002061609411612153,0.02367033064365387,-0.004046862944960594
1771682516709837800,10.154837890625,0.00022906772210262716,-0.027029991149902344,0.0032833039294928312
1771682516720196000,10.165196044921874,-0.00038177953683771193,0.023059483617544174,-0.004046862944960594
1771682516730554400,10.175554443359376,-0.0016034740256145597,-0.019088976085186005,0.004504998680204153
1771682516740912600,10.18591259765625,-0.0022143214009702206,0.032222192734479904,-0.0016034740256145597
1771682516751271000,10.19627099609375,-0.0009926267666742206,-0.02886253222823143,0.0051158457063138485
1771682516761629200,10.206629150390626,-0.00038177953683771193,0.025502873584628105,-0.0034360159188508987
1771682516771987500,10.216987548828126,0.00022906772210262716,-0.023364907130599022,0.0038941511884331703
1771682516782345700,10.227345703125,0.0008399150101467967,0.013896775431931019,-0.0028251686599105597
1771682516792704000,10.2377041015625,-0.0009926267666742206,-0.00992626789957285,0.0032833039294928312
1771682516803062300,10.248062255859375,-0.0028251686599105597,0.013285927474498749,-0.0009926267666742206
1771682516813420300,10.258420166015625,-0.0009926267666742206,-0.009315420873463154,0.0032833039294928312
1771682516823778600,10.268778564453125,-0.00038177953683771193,0.009009997360408306,0.0008399150101467967
1771682516834137000,10.27913720703125,0.0014507622690871358,-0.00259610079228878,0.0032833039294928312
1771682516844495000,10.2894951171875,0.0008399150101467967,-0.008093725889921188,0.00022906772210262716
1771682516854853400,10.299853271484375,0.00022906772210262716,0.008399149402976036,0.00022906772210262716
1771682516865211600,10.310211669921875,-0.0009926267666742206,-0.006261184345930815,0.002061609411612153
1771682516875570000,10.32056982421875,-0.0016034740256145597,0.009009997360408306,0.00022906772210262716
1771682516885928200,10.33092822265625,-0.00038177953683771193,0.0029015245381742716,0.00022906772210262716
1771682516896286500,10.341286376953125,0.0008399150101467967,-0.001374406274408102,0.0008399150101467967
1771682516906644700,10.351644775390625,0.0008399150101467967,-0.0007635590736754239,-0.0009926267666742206
1771682516917003000,10.3620029296875,0.0008399150101467967,-0.00259610079228878,0.0008399150101467967
1771682516927361300,10.372361328125,-0.0016034740256145597,0.013285927474498749,-0.0028251686599105597
1771682516937719600,10.382719482421875,-0.0022143214009702206,-0.016034740954637527,0.0008399150101467967
1771682516948077800,10.393077880859375,-0.0022143214009702206,0.026724567636847496,-0.0016034740256145597
1771682516958436000,10.40343603515625,-0.00038177953683771193,-0.022754060104489326,0.0032833039294928312
1771682516968794400,10.41379443359375,0.00022906772210262716,0.019394399598240852,-0.00038177953683771193
1771682516979152600,10.424152587890624,0.0014507622690871358,-0.01969982497394085,0.0014507622690871358
1771682516989511000,10.434510986328124,-0.00038177953683771193,0.021837789565324783,-0.0022143214009702206
1771682516999869200,10.444869140625,-0.0009926267666742206,-0.02641914412379265,0.002672456670552492
1771682517010227500,10.4552275390625,-0.0016034740256145597,0.029167955741286278,-0.0016034740256145597
1771682517020585700,10.465585693359374,0.00022906772210262716,-0.006261184345930815,0.0014507622690871358
1771682517030944000,10.475944091796874,-0.0009926267666742206,-0.008704573847353458,0.0014507622690871358
1771682517041302300,10.48630224609375,0.0008399150101467967,0.018783552572131157,-0.004046862944960594
1771682517051660500,10.49666064453125,0.0014507622690871358,-0.03436015918850899,0.0038941511884331703
1771682517062018800,10.507018798828126,-0.0009926267666742206,0.03955236077308655,-0.005879404954612255
1771682517072377000,10.517377197265626,-0.0009926267666742206,-0.04474456235766411,0.005726693198084831
1771682517082735400,10.5277353515625,-0.0028251686599105597,0.05115845799446106,-0.004046862944960594
1771682517093093600,10.53809375,0.00022906772210262716,-0.0459662564098835,0.007559234742075205
1771682517103452000,10.548451904296876,0.00022906772210262716,0.04199574887752533,-0.004046862944960594
1771682517113810200,10.55881005859375,0.0014507622690871358,-0.04107947647571564,0.006337540224194527
1771682517124168400,10.56916845703125,-0.00038177953683771193,0.032222192734479904,-0.004657710436731577
1771682517134526700,10.579526611328125,0.00022906772210262716,-0.02886253222823143,0.005726693198084831
1771682517144885000,10.589885009765625,-0.0009926267666742206,0.029167955741286278,-0.0034360159188508987
1771682517155243000,10.600242919921875,-0.0009926267666742206,-0.016034740954637527,0.004504998680204153
1771682517165601300,10.610601318359375,0.00022906772210262716,0.014507622458040714,-0.0016034740256145597
1771682517175959600,10.62095947265625,0.0008399150101467967,-0.00992626789957285,0.0014507622690871358
1771682517186317800,10.63131787109375,0.00022906772210262716,0.0010689827613532543,0.0008399150101467967
1771682517196676000,10.641676025390625,-0.00038177953683771193,0.004123218823224306,-0.0009926267666742206
1771682517207034400,10.652034423828125,-0.0009926267666742206,-0.001985253533348441,0.00022906772210262716
1771682517217392600,10.662392578125,-0.0022143214009702206,0.007788302376866341,0.00022906772210262716
1771682517227751000,10.6727509765625,-0.0009926267666742206,-0.0038177953101694584,0.002672456670552492
1771682517238109200,10.683109130859375,0.00022906772210262716,0.005344913341104984,-0.00038177953683771193
1771682517248467500,10.693467529296875,0.0008399150101467967,-0.007482878863811493,0.002061609411612153
1771682517258825700,10.70382568359375,0.00022906772210262716,0.0029015245381742716,-0.0016034740256145597
1771682517269184000,10.71418408203125,-0.0016034740256145597,0.0010689827613532543,0.0008399150101467967
1771682517279542300,10.724542236328125,-0.0022143214009702206,0.0022906772792339325,0.00022906772210262716
1771682517289900500,10.734900634765625,-0.0022143214009702206,0.007177455350756645,0.00022906772210262716
1771682517300258800,10.7452587890625,-0.00038177953683771193,0.0004581354442052543,0.0014507622690871358
1771682517310617000,10.7556171875,-0.00038177953683771193,-0.001985253533348441,-0.0009926267666742206
1771682517320975400,10.765975341796874,0.002061609411612153,0.0010689827613532543,0.0008399150101467967
1771682517331333600,10.776333740234374,0.00022906772210262716,-0.0032069480512291193,0.00022906772210262716
1771682517341692000,10.78669189453125,-0.0009926267666742206,0.007177455350756645,0.00022906772210262716
1771682517352050200,10.79705029296875,-0.0022143214009702206,-0.00259610079228878,0.0008399150101467967
1771682517362408400,10.807408447265624,-0.0009926267666742206,0.008399149402976036,0.00022906772210262716
1771682517372766700,10.8177666015625,0.0008399150101467967,-0.008704573847353458,0.002061609411612153
1771682517383125000,10.828125,0.0014507622690871358,0.009620844386518002,0.0008399150101467967
1771682517393483300,10.838483154296876,0.0014507622690871358,-0.011147962883114815,0.00022906772210262716
1771682517403841500,10.848841552734376,-0.00038177953683771193,0.0022906772792339325,0.0008399150101467967
1771682517414199800,10.85919970703125,-0.00038177953683771193,0.004123218823224306,0.0014507622690871358
1771682517424558000,10.86955810546875,-0.0009926267666742206,0.0010689827613532543,0.0008399150101467967
1771682517434916400,10.879916259765626,0.0008399150101467967,0.008399149402976036,0.0014507622690871358
1771682517445274400,10.8902744140625,-0.00038177953683771193,-0.0068720318377017975,-0.00038177953683771193
1771682517455632600,10.900632568359375,0.0014507622690871358,0.0016798300202935934,0.00022906772210262716
1771682517465991000,10.910990966796875,0.00022906772210262716,-0.007482878863811493,-0.00038177953683771193
1771682517476349200,10.92134912109375,-0.0009926267666742206,0.009620844386518002,0.00022906772210262716
1771682517486707500,10.93170751953125,-0.0009926267666742206,-0.001374406274408102,-0.0009926267666742206
1771682517497065700,10.942065673828125,-0.0022143214009702206,-0.005650337319821119,0.0032833039294928312
1771682517507424000,10.952424072265625,0.00022906772210262716,0.02244863659143448,-0.0016034740256145597
1771682517517782300,10.9627822265625,0.00022906772210262716,-0.03130592033267021,0.0051158457063138485
1771682517528140500,10.973140625,0.002061609411612153,0.03161134570837021,-0.0034360159188508987
1771682517538498800,10.983498779296875,-0.00038177953683771193,-0.037414394319057465,0.0038941511884331703
1771682517548857000,10.993857177734375,-0.0009926267666742206,0.03649812191724777,-0.0034360159188508987
1771682517559215400,11.00421533203125,-0.0016034740256145597,-0.02764083817601204,0.0032833039294928312
1771682517569573600,11.01457373046875,-0.00038177953683771193,0.030389651656150818,-0.0016034740256145597
1771682517579932000,11.024931884765625,-0.00038177953683771193,-0.020310672000050545,0.0014507622690871358
1771682517590290200,11.035290283203125,0.00022906772210262716,0.012675080448389053,-0.0009926267666742206
1771682517600648400,11.0456484375,0.0008399150101467967,-0.012980503961443901,0.0008399150101467967
1771682517611006700,11.0560068359375,0.00022906772210262716,0.014507622458040714,-0.0009926267666742206
1771682517621365000,11.066364990234375,-0.0016034740256145597,-0.010537114925682545,0.00022906772210262716
1771682517631723300,11.07672314453125,-0.0022143214009702206,0.01695101149380207,-0.00038177953683771193
1771682517642081500,11.08708154296875,0.0008399150101467967,-0.013591351918876171,0.002672456670552492
1771682517652439800,11.097439697265624,0.00022906772210262716,0.01572931744158268,-0.0009926267666742206
1771682517662798000,11.107798095703124,0.00022906772210262716,-0.015423892997205257,0.0014507622690871358
1771682517673156400,11.11815625,-0.00038177953683771193,0.008399149402976036,-0.0016034740256145597
1771682517683514600,11.1285146484375,0.00022906772210262716,-0.004428642801940441,0.0008399150101467967
1771682517693873000,11.138872802734374,-0.0022143214009702206,0.010231691412627697,0.00022906772210262716
1771682517704231000,11.14923095703125,-0.0016034740256145597,0.0004581354442052543,0.002672456670552492
1771682517714589200,11.159589111328126,-0.0016034740256145597,-0.0007635590736754239,0.00022906772210262716
1771682517724947700,11.16994775390625,0.00022906772210262716,0.0004581354442052543,0.0008399150101467967
1771682517735305700,11.1803056640625,0.0014507622690871358,-0.0050394898280501366,0.0008399150101467967
1771682517745664000,11.1906640625,-0.00038177953683771193,0.0029015245381742716,0.00022906772210262716
1771682517756022300,11.201022216796876,-0.0016034740256145597,0.0029015245381742716,-0.0009926267666742206
1771682517766380500,11.211380615234376,-0.0022143214009702206,0.0004581354442052543,0.002061609411612153
1771682517776738800,11.22173876953125,-0.00038177953683771193,0.005344913341104984,-0.0009926267666742206
1771682517787097000,11.23209716796875,0.00022906772210262716,-0.004428642801940441,0.002672456670552492
1771682517797455400,11.242455322265625,0.0014507622690871358,0.0035123717971146107,-0.00038177953683771193
1771682517807813600,11.252813720703125,-0.00038177953683771193,-0.00992626789957285,0.0008399150101467967
1771682517818172000,11.263171875,-0.0009926267666742206,0.011453386396169662,-0.00038177953683771193
1771682517828530200,11.2735302734375,-0.0022143214009702206,-0.008704573847353458,0.002061609411612153
1771682517838888400,11.283888427734375,-0.0016034740256145597,0.018783552572131157,-0.0009926267666742206
1771682517849246700,11.294246826171875,-0.00038177953683771193,-0.016034740954637527,0.002672456670552492
1771682517859605000,11.30460498046875,0.0008399150101467967,0.016340164467692375,-0.0028251686599105597
1771682517869963300,11.31496337890625,0.0008399150101467967,-0.019088976085186005,0.002672456670552492
1771682517880321500,11.325321533203125,0.0008399150101467967,0.014507622458040714,-0.0022143214009702206
1771682517890679800,11.3356796875,-0.00038177953683771193,-0.008704573847353458,0.00022906772210262716
1771682517901038000,11.3460380859375,-0.0016034740256145597,0.011453386396169662,-0.0009926267666742206
1771682517911396400,11.356396240234375,-0.00038177953683771193,-0.00015271181473508477,0.00022906772210262716
1771682517921754600,11.366754638671875,0.00022906772210262716,-0.00259610079228878,0.002061609411612153
1771682517932113000,11.37711279296875,0.0008399150101467967,0.0029015245381742716,-0.0009926267666742206
1771682517942471200,11.38747119140625,0.0008399150101467967,-0.0068720318377017975,0.0008399150101467967
1771682517952829400,11.397829345703125,-0.00038177953683771193,0.007788302376866341,-0.0016034740256145597
1771682517963187700,11.408187744140625,-0.00038177953683771193,-0.009315420873463154,0.002672456670552492
1771682517973546000,11.4185458984375,-0.0009926267666742206,0.01572931744158268,-0.00038177953683771193
1771682517983904300,11.428904296875,-0.00038177953683771193,-0.001985253533348441,0.0014507622690871358
1771682517994262300,11.43926220703125,-0.00038177953683771193,0.0029015245381742716,-0.00038177953683771193
1771682518004620500,11.44962060546875,0.0014507622690871358,-0.0068720318377017975,0.0014507622690871358
1771682518014978800,11.459978759765624,0.00022906772210262716,-0.0007635590736754239,0.00022906772210262716
1771682518025337000,11.470337158203124,-0.00038177953683771193,0.0065666078589856625,-0.00038177953683771193
1771682518035695400,11.4806953125,-0.0016034740256145597,-0.001985253533348441,0.00022906772210262716
1771682518046053600,11.4910537109375,-0.00038177953683771193,0.008399149402976036,0.0008399150101467967
1771682518056412000,11.501411865234376,0.00022906772210262716,-0.006261184345930815,0.002672456670552492
1771682518066770200,11.511770263671876,0.0008399150101467967,0.007177455350756645,-0.00038177953683771193
1771682518077128400,11.52212841796875,0.0014507622690871358,-0.007482878863811493,0.0008399150101467967
1771682518087486700,11.53248681640625,-0.00038177953683771193,0.0022906772792339325,-0.00038177953683771193
1771682518097845000,11.542844970703126,-0.0009926267666742206,-0.0007635590736754239,0.0014507622690871358
1771682518108203300,11.553203369140626,-0.0022143214009702206,0.005344913341104984,0.00022906772210262716
1771682518118561500,11.5635615234375,-0.0009926267666742206,0.009009997360408306,0.0008399150101467967
1771682518128919800,11.573919921875,-0.00038177953683771193,-0.007482878863811493,0.00022906772210262716
1771682518139278000,11.584278076171875,0.0008399150101467967,0.005344913341104984,-0.0009926267666742206
1771682518149636400,11.59463623046875,0.0014507622690871358,-0.012980503961443901,0.002061609411612153
1771682518159994600,11.60499462890625,0.00022906772210262716,0.017561858519911766,-0.0022143214009702206
1771682518170353000,11.615352783203125,-0.0009926267666742206,-0.012369656935334206,0.0014507622690871358
1771682518180711200,11.625711181640625,-0.0022143214009702206,0.012675080448389053,-0.0009926267666742206
1771682518191069400,11.6360693359375,-0.00038177953683771193,-0.005650337319821119,0.002672456670552492
1771682518201427700,11.646427734375,0.00022906772210262716,0.0029015245381742716,0.00022906772210262716
1771682518211786000,11.656785888671875,0.0014507622690871358,-0.005650337319821119,0.0008399150101467967
1771682518222144300,11.667144287109375,0.00022906772210262716,-0.00015271181473508477,-0.00038177953683771193
1771682518232502300,11.677502197265625,-0.00038177953683771193,0.0004581354442052543,0.00022906772210262716
1771682518242860500,11.687860595703125,-0.0016034740256145597,0.0004581354442052543,0.0014507622690871358
1771682518253219000,11.698218994140625,-0.0016034740256145597,0.012675080448389053,0.00022906772210262716
1771682518263577000,11.7085771484375,-0.00038177953683771193,-0.006261184345930815,0.0014507622690871358
1771682518273935400,11.718935302734375,0.0008399150101467967,0.004123218823224306,-0.00038177953683771193
1771682518284293600,11.729293701171875,0.002061609411612153,-0.010537114925682545,0.002672456670552492
1771682518294652000,11.73965185546875,-0.00038177953683771193,0.009620844386518002,-0.0022143214009702206
1771682518305010200,11.75001025390625,-0.0009926267666742206,-0.005650337319821119,0.0014507622690871358
1771682518315368400,11.760368408203124,-0.0016034740256145597,0.008399149402976036,-0.00038177953683771193
1771682518325726700,11.770726806640624,-0.00038177953683771193,-0.004428642801940441,0.002061609411612153
1771682518336085000,11.7810849609375,-0.00038177953683771193,0.004734066314995289,-0.00038177953683771193
1771682518346443300,11.791443359375,0.0014507622690871358,-0.001374406274408102,0.0008399150101467967
1771682518356801500,11.801801513671874,0.0008399150101467967,-0.0038177953101694584,0.00022906772210262716
1771682518367159800,11.812159912109376,-0.00038177953683771193,0.0016798300202935934,0.00022906772210262716
1771682518377518000,11.82251806640625,-0.0009926267666742206,-0.001374406274408102,0.0014507622690871358
1771682518387876400,11.83287646484375,-0.0009926267666742206,0.013896775431931019,-0.00038177953683771193
1771682518398234600,11.843234619140626,-0.00038177953683771193,-0.0050394898280501366,0.002061609411612153
1771682518408593000,11.853593017578126,-0.00038177953683771193,0.0022906772792339325,-0.00038177953683771193
1771682518418951200,11.863951171875,0.0008399150101467967,0.0004581354442052543,0.0008399150101467967
1771682518429309400,11.874309326171876,0.00022906772210262716,-0.00259610079228878,-0.00038177953683771193
1771682518439667700,11.884667724609375,-0.0009926267666742206,0.0035123717971146107,-0.00038177953683771193
1771682518450026000,11.89502587890625,-0.0028251686599105597,-0.0007635590736754239,-0.00038177953683771193
1771682518460384300,11.90538427734375,-0.0016034740256145597,0.010842538438737392,0.00022906772210262716
1771682518470742500,11.915742431640625,0.00022906772210262716,-0.007482878863811493,0.002672456670552492
1771682518481100500,11.9261005859375,0.00022906772210262716,0.007788302376866341,-0.00038177953683771193
1771682518491459000,11.936458984375,0.002061609411612153,-0.0068720318377017975,0.0014507622690871358
1771682518501817300,11.9468173828125,0.0008399150101467967,0.004123218823224306,-0.0022143214009702206
1771682518512175400,11.95717529296875,0.00022906772210262716,-0.004428642801940441,0.002061609411612153
1771682518522533600,11.96753369140625,-0.0009926267666742206,0.007177455350756645,-0.0009926267666742206
1771682518532892000,11.977891845703125,-0.0016034740256145597,0.008399149402976036,0.0008399150101467967
1771682518543250200,11.988250244140625,-0.00038177953683771193,-0.008093725889921188,0.0008399150101467967
1771682518553608400,11.9986083984375,0.0008399150101467967,0.005955760832875967,-0.00038177953683771193
1771682518563966700,12.008966796875,0.0014507622690871358,-0.01175880990922451,0.0014507622690871358
1771682518574325000,12.019324951171875,0.00022906772210262716,0.012675080448389053,-0.0022143214009702206
1771682518584683300,12.029683349609375,-0.0016034740256145597,-0.008093725889921188,0.0032833039294928312
1771682518595041500,12.04004150390625,-0.0028251686599105597,0.009620844386518002,-0.0022143214009702206
1771682518605399800,12.05039990234375,0.00022906772210262716,-0.001985253533348441,0.002672456670552492
1771682518615758000,12.060758056640625,0.00022906772210262716,0.004734066314995289,0.00022906772210262716
1771682518626116400,12.071116455078124,0.0014507622690871358,-0.0032069480512291193,0.0014507622690871358
1771682518636474600,12.081474609375,0.00022906772210262716,-0.005650337319821119,0.00022906772210262716
1771682518646833000,12.0918330078125,-0.0009926267666742206,0.007177455350756645,-0.00038177953683771193
1771682518657191200,12.102191162109374,-0.0016034740256145597,-0.00259610079228878,0.0014507622690871358
