time,seconds_elapsed,z,y,x
1771683721331199500,0.150199462890625,9.595218658447266,0.40677985548973083,0.6364908218383789
1771683721351914500,0.17091455078125,9.765109062194824,0.5910272002220154,0.5623133182525635
1771683721362272000,0.18127197265625,9.973284721374512,0.5431707501411438,0.1746760457754135
1771683721372629500,0.19162939453125,9.805787086486816,0.6005984544754028,-0.11724831163883209
1771683721382987000,0.201987060546875,9.604789733886719,0.4307080805301666,0.2153540402650833
1771683721393344500,0.212344482421875,9.91825008392334,0.4331009089946747,0.3852444589138031
1771683721403702000,0.222701904296875,9.832108497619629,0.5144568681716919,0.6771687865257263
1771683721414059500,0.2330595703125,10.126425743103027,0.5096712112426758,0.5670989751815796
1771683721424417000,0.2434169921875,9.789037704467773,0.4378865361213684,0.47617170214653015
1771683721434774500,0.2537744140625,9.91825008392334,0.46420758962631226,0.2273181527853012
1771683721445132000,0.264132080078125,9.930213928222656,0.48574298620224,0.22013968229293823
1771683721455489500,0.274489501953125,9.616754531860352,0.46420758962631226,0.04546362906694412
1771683721465847000,0.284846923828125,9.954142570495605,0.5264210104942322,0.4043870270252228
1771683721476204500,0.29520458984375,9.805787086486816,0.2679961323738098,0.6675975322723389
1771683721486562000,0.30556201171875,10.109675407409668,0.519242525100708,0.763310432434082
1771683721496919600,0.31591943359375,9.927821159362793,0.4953143000602722,0.5670989751815796
1771683721507277000,0.326277099609375,9.961320877075195,0.5240281820297241,0.11724831163883209
1771683721517634600,0.336634521484375,9.712467193603516,0.5288137793540955,0.09092725813388824
1771683721527992000,0.346991943359375,9.884750366210938,0.3206382393836975,0.21774685382843018
1771683721538349600,0.357349609375,9.985248565673828,0.4833501875400543,0.5383850932121277
1771683721548707000,0.36770703125,9.829715728759766,0.3158525824546814,0.6963114142417908
1771683721559064600,0.378064697265625,10.119247436523438,0.5120640397071838,0.4833501875400543
1771683721569422000,0.388422119140625,9.803394317626953,0.5096712112426758,0.47617170214653015
1771683721579779600,0.398779541015625,9.958928108215332,0.43549370765686035,0.2967100143432617
1771683721590137000,0.40913720703125,9.681360244750977,0.5168496966362,0.17706887423992157
1771683721600494600,0.41949462890625,9.937392234802246,0.4953143000602722,0.10049854964017868
1771683721610852000,0.42985205078125,9.671789169311523,0.47617170214653015,0.3756731450557709
1771683721621209600,0.440209716796875,9.985248565673828,0.30149564146995544,0.7226324677467346
1771683721631567000,0.450567138671875,9.836894035339355,0.47617170214653015,0.760917603969574
1771683721641924600,0.460924560546875,10.061819076538086,0.5599204897880554,0.4905286431312561
1771683721652282000,0.4712822265625,9.789037704467773,0.5288137793540955,0.035892341285943985
1771683721662639600,0.4816396484375,9.628718376159668,0.5335994362831116,0.05024927482008934
1771683721672997000,0.4919970703125,9.820143699645996,0.3517449200153351,0.1866401731967926
1771683721683354600,0.502354736328125,9.980463027954102,0.4977070987224579,0.5144568681716919
1771683721693712100,0.512712158203125,9.858428955078125,0.45942193269729614,0.6269195079803467
1771683721704070000,0.52306982421875,10.100104331970215,0.5264210104942322,0.5000999569892883
1771683721714427400,0.533427490234375,9.652647018432617,0.43549370765686035,0.4570291340351105
1771683721724785000,0.543784912109375,9.899106979370117,0.37806597352027893,0.33499518036842346
1771683721735142400,0.554142333984375,9.789037704467773,0.605384111404419,0.1579262912273407
1771683721745500000,0.5645,9.717252731323242,0.4713860750198364,0.04546362906694412
1771683721755857400,0.574857421875,9.899106979370117,0.4833501875400543,0.34217363595962524
1771683721766215000,0.58521484375,9.812965393066406,0.32303106784820557,0.760917603969574
1771683721776572400,0.595572509765625,10.12881851196289,0.42831525206565857,0.760917603969574
1771683721786930000,0.605929931640625,9.848857879638672,0.5000999569892883,0.5551348328590393
1771683721797287400,0.616287353515625,9.93260669708252,0.5934200286865234,0.09810572862625122
1771683721807645000,0.62664501953125,9.674181938171387,0.4953143000602722,-0.06699903309345245
1771683721818002400,0.63700244140625,9.686145782470703,0.3756731450557709,0.2225325107574463
1771683721828360000,0.64735986328125,9.992427825927734,0.5431707501411438,0.5479564070701599
1771683721838717400,0.657717529296875,9.896714210510254,0.46899324655532837,0.6221339106559753
1771683721849075000,0.668074951171875,10.100104331970215,0.6771687865257263,0.5718846321105957
1771683721859432400,0.678432373046875,9.798608779907227,1.1820544004440308,0.8183453679084778
1771683721869790000,0.6887900390625,10.41356372833252,1.2849457263946533,0.4163511395454407
1771683721880147500,0.6991474609375,9.518648147583008,0.363709032535553,0.10289137065410614
1771683721890505000,0.7095048828125,9.966106414794922,-0.02392822690308094,-0.37806597352027893
1771683721900862500,0.719862548828125,9.812965393066406,0.9020941257476807,-0.08614161610603333
1771683721911220000,0.730219970703125,10.224531173706055,1.3495519161224365,0.5575276613235474
1771683721921577500,0.740577392578125,10.078569412231445,0.37806597352027893,1.0552347898483276
1771683721931935000,0.75093505859375,9.377471923828125,0.09092725813388824,1.1940184831619263
1771683721942292500,0.76129248046875,9.915857315063477,0.8374879360198975,0.5024927258491516
1771683721952650000,0.77164990234375,9.695717811584473,1.3663017749786377,0.05024927482008934
1771683721963007500,0.782007568359375,9.107083320617676,0.8111668825149536,-0.1459621787071228
1771683721973365000,0.792364990234375,10.04985523223877,0.8446664214134216,0.02153540402650833
1771683721983722500,0.802722412109375,9.896714210510254,0.9667003750801086,0.49292147159576416
1771683721994080000,0.813080078125,10.191031455993652,0.42831525206565857,0.5670989751815796
1771683722004437500,0.8234375,10.372885704040527,0.7345965504646301,0.5670989751815796
1771683722014795000,0.833794921875,9.635896682739258,0.849452018737793,0.7345965504646301
1771683722025152500,0.844152587890625,9.949356079101562,0.6580262184143066,0.5216353535652161
1771683722035510000,0.854510009765625,9.233902931213379,0.882951557636261,0.22971096634864807
1771683722045867500,0.864867431640625,9.592825889587402,1.1341979503631592,0.01196411345154047
1771683722056225000,0.87522509765625,9.707681655883789,1.0791629552841187,0.16271193325519562
1771683722066582500,0.88558251953125,9.616754531860352,0.9475577473640442,0.7058826684951782
1771683722076940000,0.89593994140625,10.198209762573242,0.5551348328590393,0.8374879360198975
1771683722087297500,0.906297607421875,9.80817985534668,0.3732803463935852,0.5838487148284912
1771683722097655000,0.916655029296875,10.013962745666504,0.5623133182525635,0.24885354936122894
1771683722108012500,0.927012451171875,10.12881851196289,1.1222338676452637,-0.02153540402650833
1771683722118370000,0.9373701171875,9.980463027954102,1.2993026971817017,0.05503492057323456
1771683722128727600,0.9477275390625,9.614361763000488,0.5144568681716919,0.5335994362831116
1771683722139085000,0.9580849609375,9.702896118164062,0.34217363595962524,0.7226324677467346
1771683722149442600,0.968442626953125,9.76989459991455,0.9882357716560364,0.8159525394439697
1771683722159800000,0.978800048828125,9.92542839050293,0.9188438653945923,0.397208571434021
1771683722170157600,0.989157470703125,9.686145782470703,1.3399807214736938,0.23210379481315613
1771683722180515300,0.999515380859375,10.01156997680664,1.2538390159606934,0.2584248483181
1771683722190872800,1.009872802734375,9.580862045288086,0.16271193325519562,0.4331009089946747
1771683722201230300,1.020230224609375,9.882357597351074,0.11724831163883209,0.39960137009620667
1771683722211587600,1.030587646484375,10.224531173706055,0.7776673436164856,0.2871387302875519
1771683722221945000,1.040945068359375,10.310672760009766,1.1461620330810547,0.064606212079525
1771683722232302600,1.051302490234375,9.978070259094238,1.710868239402771,0.4546363055706024
1771683722242660000,1.06166015625,9.987641334533691,0.9379864931106567,0.8422735929489136
1771683722253017900,1.072017822265625,9.147761344909668,-0.1052841991186142,0.8877372145652771
1771683722263375400,1.082375244140625,9.365508079528809,0.4211367964744568,0.5958128571510315
1771683722273732900,1.09273291015625,10.279565811157227,1.057627558708191,-0.09092725813388824
1771683722284090400,1.10309033203125,9.556933403015137,1.3040883541107178,-0.2512463629245758
1771683722294447900,1.11344775390625,10.351350784301758,1.7491533756256104,0.004785645287483931
1771683722304805400,1.123805419921875,10.116853713989258,0.727418065071106,0.9451649188995361
1771683722315163000,1.134162841796875,9.475577354431152,-0.5790630578994751,0.8255237936973572
1771683722325520400,1.144520263671875,10.236495018005371,0.4618147611618042,0.8135597109794617
1771683722335878000,1.1548779296875,10.01874828338623,1.215553879737854,0.11485548317432404
1771683722346235400,1.1652353515625,9.554540634155273,2.03629207611084,-0.08374879509210587
1771683722356593000,1.175593017578125,10.061819076538086,1.4572290182113647,0.26560330390930176
1771683722366950400,1.185950439453125,9.243474006652832,0.038285162299871445,0.8422735929489136
1771683722377308000,1.196307861328125,8.49452018737793,-0.3445664644241333,0.7704889178276062
1771683722387665400,1.20666552734375,11.12183952331543,1.2658032178878784,0.10049854964017868
1771683722398023000,1.21702294921875,9.556933403015137,1.6893328428268433,0.11006984114646912
1771683722408380400,1.22738037109375,10.028319358825684,1.6582261323928833,0.5048855543136597
1771683722418738000,1.237738037109375,10.676774978637695,0.8901300430297852,0.8997012972831726
1771683722429095400,1.248095458984375,9.145368576049805,-0.031106693670153618,0.6317051649093628
1771683722439453000,1.258452880859375,9.712467193603516,0.07657032459974289,0.37088751792907715
1771683722449810400,1.268810546875,10.571490287780762,1.2059825658798218,-0.1579262912273407
1771683722460168000,1.27916796875,9.214759826660156,2.342573404312134,0.23449662327766418
1771683722470525400,1.289525390625,10.593026161193848,1.1078768968582153,0.5862415432929993
1771683722480883000,1.299883056640625,9.245866775512695,0.5024927258491516,1.0480563640594482
1771683722491240400,1.310240478515625,9.06401252746582,0.6149554252624512,0.6604190468788147
1771683722501598000,1.320597900390625,10.621739387512207,0.8805587291717529,0.5048855543136597
1771683722511955500,1.33095556640625,9.387042999267578,1.5936198234558105,0.08614161610603333
1771683722522313000,1.34131298828125,10.131211280822754,0.9475577473640442,0.4043870270252228
1771683722532670500,1.35167041015625,10.231709480285645,0.6867401003837585,0.2632105052471161
1771683722543028000,1.362028076171875,9.157332420349121,1.222732424736023,0.3206382393836975
1771683722553385500,1.372385498046875,10.231709480285645,1.0719845294952393,0.397208571434021
1771683722563743000,1.382742919921875,9.81535816192627,1.5170495510101318,0.9834501147270203
1771683722574100500,1.3931005859375,9.556933403015137,1.0145567655563354,0.7752745151519775
1771683722584458000,1.4034580078125,9.774680137634277,0.638883650302887,0.5120640397071838
1771683722594815500,1.4138154296875,9.358329772949219,1.1365907192230225,0.03349951654672623
1771683722605173000,1.424173095703125,9.961320877075195,1.4093725681304932,-0.0023928226437419653
1771683722615530500,1.434530517578125,9.963713645935059,1.098305583000183,0.4737788736820221
1771683722625888000,1.444887939453125,9.978070259094238,0.8183453679084778,0.605384111404419
1771683722636245500,1.45524560546875,9.879964828491211,0.6939185857772827,0.8422735929489136
1771683722646603000,1.46560302734375,10.059426307678223,1.2921242713928223,0.5120640397071838
1771683722656960500,1.47596044921875,9.999606132507324,1.679761528968811,0.5216353535652161
1771683722667318000,1.486318115234375,9.693324089050293,0.8685946464538574,0.6293123364448547
1771683722677675500,1.496675537109375,9.492327690124512,0.45942193269729614,-0.031106693670153618
1771683722688033000,1.507032958984375,9.332008361816406,1.0432707071304321,0.31824541091918945
1771683722698390500,1.517390625,10.054640769958496,1.5337992906570435,0.02871387079358101
1771683722708748000,1.527748046875,9.879964828491211,1.5744773149490356,0.9499505758285522
1771683722719105500,1.53810546875,9.913464546203613,0.4977070987224579,0.7322037220001221
1771683722729463000,1.548463134765625,9.980463027954102,0.9786644577980042,0.763310432434082
1771683722739820500,1.558820556640625,9.664610862731934,1.1461620330810547,0.016749758273363113
1771683722750178000,1.569177978515625,10.284351348876953,1.5649060010910034,0.02871387079358101
1771683722760535600,1.57953564453125,9.851250648498535,1.2011969089508057,0.08853443711996078
1771683722770893000,1.58989306640625,9.4660062789917,0.397208571434021,0.607776939868927
1771683722781250600,1.60025048828125,10.107282638549805,0.973878800868988,0.8662018179893494
1771683722791608000,1.610608154296875,9.585647583007812,1.5433706045150757,0.6867401003837585
1771683722801965600,1.620965576171875,10.296316146850586,1.3160524368286133,0.7585247755050659
1771683722812323000,1.631322998046875,9.09990406036377,0.4378865361213684,0.14835500717163086
1771683722822680600,1.6416806640625,9.736394882202148,1.1509476900100708,0.08374879509210587
1771683722833038000,1.6520380859375,9.8871431350708,1.6319050788879395,0.4091726839542389
1771683722843395600,1.6623955078125,10.147960662841797,0.9858429431915283,0.7824530005455017
1771683722853753000,1.672753173828125,9.870393753051758,0.16749759018421173,0.7561319470405579
1771683722864110600,1.683110595703125,9.518648147583008,0.851844847202301,0.5431707501411438
1771683722874468000,1.693468017578125,10.325029373168945,1.911865234375,0.18424734473228455
1771683722884825600,1.70382568359375,9.511469841003418,1.399801254272461,0.4307080805301666
1771683722895183000,1.71418310546875,9.913464546203613,0.6340979933738708,0.34695929288864136
1771683722905540600,1.72454052734375,8.93958568572998,0.5312066078186035,0.727418065071106
1771683722915898000,1.734898193359375,10.370492935180664,1.5314065217971802,0.4977070987224579
1771683722926255600,1.745255615234375,9.994820594787598,1.3591232299804688,0.5024927258491516
1771683722936613000,1.755613037109375,9.920642852783203,0.4211367964744568,0.39960137009620667
1771683722946970600,1.765970703125,9.238688468933105,0.6149554252624512,0.22971096634864807
1771683722957328100,1.776328125,10.26760196685791,1.7587246894836426,0.38763725757598877
1771683722967685600,1.786685546875,10.248459815979004,1.5242279767990112,0.7489534616470337
1771683722978043100,1.797043212890625,9.410971641540527,0.11246266216039658,0.6269195079803467
1771683722988400600,1.807400634765625,9.547362327575684,0.41156548261642456,0.48813581466674805
1771683722998758400,1.81775830078125,10.250852584838867,1.9669002294540405,0.25363919138908386
1771683723009116000,1.828115966796875,9.963713645935059,1.545763373374939,0.3924229145050049
1771683723019473400,1.838473388671875,9.602396965026855,0.09810572862625122,0.6317051649093628
1771683723029830700,1.84883056640625,9.394221305847168,0.638883650302887,0.7010970115661621
1771683723040188200,1.859188232421875,10.320243835449219,1.9094724655151367,0.5599204897880554
1771683723050545700,1.869545654296875,10.104889869689941,1.28255295753479,0.39960137009620667
1771683723060903200,1.879903076171875,9.89432144165039,0.2225325107574463,0.38285163044929504
1771683723071261000,1.890260986328125,9.260223388671875,0.7010970115661621,0.20338992774486542
1771683723081618400,1.900618408203125,10.348958015441895,1.8233308792114258,0.39481574296951294
1771683723091976000,1.910975830078125,10.193424224853516,1.31365966796875,0.5982056856155396
1771683723102333400,1.92133349609375,9.34875774383545,0.02392822690308094,0.5288137793540955
1771683723112691000,1.93169091796875,9.4061861038208,0.6843472719192505,0.3445664644241333
1771683723123048400,1.94204833984375,10.521241188049316,2.148754835128784,0.13639089465141296
1771683723133406000,1.952406005859375,10.114460945129395,1.5098711252212524,0.4211367964744568
1771683723143763500,1.962763427734375,9.363115310668945,-0.10049854964017868,0.5551348328590393
1771683723154121000,1.973120849609375,9.506684303283691,0.7704889178276062,0.5599204897880554
1771683723164478500,1.983478515625,10.310672760009766,2.1774685382843018,0.4785645306110382
1771683723174836000,1.9938359375,9.834501266479492,1.031306505203247,0.27756741642951965
1771683723185193500,2.004193359375,9.834501266479492,0.11246266216039658,0.3732803463935852
1771683723195551000,2.014551025390625,9.410971641540527,1.2059825658798218,0.2632105052471161
1771683723205908500,2.024908447265625,10.016355514526367,1.978864312171936,0.576670229434967
1771683723216266000,2.035265869140625,10.03310489654541,1.0360921621322632,0.6484549641609192
1771683723226623500,2.04562353515625,9.631111145019531,0.32542386651039124,0.5551348328590393
1771683723236981000,2.05598095703125,9.454042434692383,0.8997012972831726,0.3206382393836975
1771683723247338500,2.06633837890625,10.231709480285645,1.8711873292922974,0.08614161610603333
1771683723257696000,2.076696044921875,9.9469633102417,1.277767300605774,0.20817556977272034
1771683723268053500,2.087053466796875,9.860821723937988,0.38285163044929504,0.39960137009620667
1771683723278411000,2.097410888671875,9.329615592956543,0.8350951075553894,0.5982056856155396
1771683723288768500,2.1077685546875,10.41356372833252,1.7491533756256104,0.5383850932121277
1771683723299126000,2.1181259765625,9.77707290649414,1.3926228284835815,0.4546363055706024
1771683723309483500,2.1284833984375,9.643074989318848,0.5790630578994751,0.46899324655532837
1771683723319841000,2.138841064453125,9.44447135925293,0.973878800868988,0.062213387340307236
1771683723330198500,2.149198486328125,9.958928108215332,1.7922241687774658,0.31824541091918945
1771683723340556000,2.15955615234375,9.7005033493042,1.1892328262329102,0.4426721930503845
1771683723350913500,2.16991357421875,10.255638122558594,0.8135597109794617,0.576670229434967
1771683723361271000,2.18027099609375,9.200403213500977,0.6317051649093628,0.5862415432929993
1771683723371628500,2.190628662109375,10.088140487670898,1.3280165195465088,0.32542386651039124
1771683723381986000,2.200986083984375,9.734002113342285,1.5720844268798828,0.18424734473228455
1771683723392343600,2.211343505859375,9.868000984191895,1.196411371231079,0.42352959513664246
1771683723402701000,2.221701171875,9.497113227844238,0.605384111404419,0.607776939868927
1771683723413058600,2.23205859375,9.824930191040039,1.3280165195465088,0.6915257573127747
1771683723423416000,2.242416015625,10.073782920837402,1.404586911201477,0.6556333899497986
1771683723433773600,2.252773681640625,9.757930755615234,0.9643075466156006,0.6795616149902344
1771683723444131000,2.263131103515625,10.013962745666504,1.0528420209884644,0.4211367964744568
1771683723454488600,2.273488525390625,9.540184020996094,1.0552347898483276,0.2225325107574463
1771683723464846000,2.28384619140625,10.028319358825684,1.0839486122131348,0.15553347766399384
1771683723475203600,2.29420361328125,9.688538551330566,1.2849457263946533,0.5144568681716919
1771683723485561000,2.30456103515625,10.53081226348877,1.0959128141403198,0.7776673436164856
1771683723495918600,2.314918701171875,9.729216575622559,0.6125625967979431,0.9523434042930603
1771683723506276000,2.325276123046875,9.89432144165039,1.1150553226470947,0.6652047038078308
1771683723516633600,2.335633544921875,10.01874828338623,1.397408366203308,0.1986042857170105
1771683723526991000,2.3459912109375,9.731609344482422,1.3782658576965332,0.3445664644241333
1771683723537348600,2.3563486328125,9.791430473327637,0.8685946464538574,0.3278166949748993
1771683723547706000,2.3667060546875,9.762716293334961,0.8111668825149536,0.7513462901115417
1771683723558063600,2.377063720703125,9.784252166748047,0.9667003750801086,0.6699903607368469
1771683723568421000,2.387421142578125,10.40638542175293,1.3184453248977661,0.48095735907554626
1771683723578788000,2.3977880859375,10.04985523223877,1.3280165195465088,0.6269195079803467
1771683723589136100,2.40813623046875,9.844072341918945,0.6556333899497986,0.5623133182525635
1771683723599511800,2.41851171875,9.753145217895508,0.9786644577980042,0.27756741642951965
1771683723609851100,2.42885107421875,9.626325607299805,1.275374412536621,0.040677983313798904
1771683723620235300,2.4392353515625,9.975677490234375,1.3663017749786377,0.23688943684101105
1771683723630643000,2.449642822265625,9.631111145019531,1.2490534782409668,0.9643075466156006
1771683723640928500,2.459928466796875,9.860821723937988,0.8614161610603333,1.007378339767456
1771683723651305500,2.470305419921875,9.525827407836914,0.8279166221618652,0.8805587291717529
1771683723661652200,2.48065234375,9.896714210510254,1.0791629552841187,0.2727817893028259
1771683723671998700,2.490998779296875,9.824930191040039,1.6845471858978271,-0.06699903309345245
1771683723682353700,2.501353759765625,9.772287368774414,1.4500504732131958,-0.02153540402650833
1771683723692722400,2.511722412109375,9.961320877075195,0.9092726111412048,0.5838487148284912
1771683723703068700,2.522068603515625,9.53061294555664,0.9044869542121887,0.8566305041313171
1771683723713446000,2.53244580078125,10.023533821105957,0.7872386574745178,0.7800601720809937
1771683723723783700,2.54278369140625,9.865608215332031,1.6510475873947144,0.31106695532798767
1771683723734141200,2.55314111328125,9.968499183654785,2.342573404312134,0.13878370821475983
1771683723744498700,2.563498779296875,9.45164966583252,0.6915257573127747,0.35892340540885925
1771683723754862800,2.57386279296875,9.193224906921387,0.7417750358581543,0.1866401731967926
1771683723765213700,2.584213623046875,10.071390151977539,1.210768222808838,0.09571290761232376
1771683723775586300,2.59458642578125,9.638289451599121,0.9834501147270203,-0.0023928226437419653
1771683723785928700,2.6049287109375,10.308279991149902,2.2683959007263184,-0.004785645287483931
1771683723796310000,2.61531005859375,10.497312545776367,1.9860427379608154,0.8135597109794617
1771683723806643700,2.625643798828125,8.733802795410156,0,1.1748759746551514
1771683723817003300,2.636003173828125,9.501898765563965,0.5359922647476196,0.14117653667926788
1771683723827358700,2.646358642578125,10.468599319458008,1.5960127115249634,0.16031911969184875
1771683723837726700,2.656726806640625,8.872586250305176,2.146361827850342,-0.9284151792526245
1771683723848073700,2.66707373046875,10.956734657287598,2.289931297302246,0.014356935396790504
1771683723858450400,2.677450439453125,9.06401252746582,0.6149554252624512,1.2969099283218384
1771683723868797000,2.687796875,9.253045082092285,0.7154539823532104,0.8327022790908813
1771683723879174100,2.698174072265625,10.916056632995605,0.28953152894973755,0.7010970115661621
1771683723889503700,2.708503662109375,9.025727272033691,1.6031911373138428,0.06699903309345245
1771683723899867100,2.7188671875,10.449456214904785,3.589233875274658,-0.2919243574142456
1771683723910218800,2.72921875,10.50209903717041,1.6773686408996582,0.9308080077171326
1771683723920590800,2.7395908203125,7.537391185760498,-0.5048855543136597,0.8398807644844055
1771683723930937300,2.749937255859375,10.097711563110352,0.672383189201355,-0.28953152894973755
1771683723941314600,2.760314453125,11.413763999938965,1.7563318014144897,0.4307080805301666
1771683723951661000,2.7706611328125,7.740781307220459,2.7182464599609375,0.007178467698395252
1771683723962006500,2.781006591796875,13.153346061706543,1.828116536140442,0.39960137009620667
1771683723972384800,2.791384765625,8.257631301879883,0.3445664644241333,1.5625132322311401
1771683723982721300,2.80172119140625,7.860422611236572,-0.13160525262355804,0.05024927482008934
1771683723993108500,2.8121083984375,11.933006286621094,0.9499505758285522,-0.31106695532798767
1771683724003436300,2.822436279296875,8.042277336120605,3.067598581314087,0.11485548317432404
1771683724013801500,2.832801513671875,10.72702407836914,2.998206853866577,-0.35413774847984314
1771683724024151300,2.8431513671875,10.638489723205566,0.8063812255859375,1.1772687435150146
1771683724034525200,2.853525146484375,7.231110095977783,0.519242525100708,0.9020941257476807
1771683724044866300,2.8638662109375,11.382657051086426,0.41156548261642456,0.064606212079525
1771683724055249000,2.874248779296875,9.355937004089355,1.734796404838562,0.24167509377002716
1771683724065581600,2.88458154296875,9.664610862731934,2.2779672145843506,-0.7154539823532104
1771683724075942000,2.89494189453125,10.834700584411621,0.8374879360198975,0.14117653667926788
1771683724086296600,2.905296630859375,8.116454124450684,1.25144624710083,0.3684946894645691
1771683724096665600,2.91566552734375,10.37767219543457,2.5363919734954834,0.32542386651039124
1771683724107011600,2.926011474609375,9.956535339355469,2.342573404312134,0.9523434042930603
1771683724117389300,2.936389404296875,9.324830055236816,0.23688943684101105,-0.0933200865983963
1771683724127726600,2.9467265625,9.650253295898438,0.5024927258491516,-0.12442677468061447
1771683724138112800,2.95711279296875,10.49970531463623,2.2229323387145996,-0.5216353535652161
1771683724148441600,2.967441650390625,9.80817985534668,1.923829436302185,0.04307080805301666
1771683724158806000,2.977805908203125,9.207581520080566,0.4666004180908203,0.7704889178276062
1771683724169156600,2.988156494140625,10.593026161193848,1.2346965074539185,0.45942193269729614
1771683724179529700,2.99852978515625,9.114261627197266,2.3784656524658203,0.45942193269729614
1771683724189876200,3.008876220703125,10.310672760009766,2.455035924911499,0.02871387079358101
1771683724200253200,3.019253173828125,9.291330337524414,1.4524433612823486,0.30628129839897156
1771683724210630400,3.02963037109375,8.630910873413086,0.40677985548973083,0.040677983313798904
1771683724220946400,3.039946533203125,10.722238540649414,0.6556333899497986,-0.6675975322723389
1771683724231301600,3.050301513671875,9.183652877807617,1.8807586431503296,0.4785645306110382
1771683724241670100,3.060670166015625,10.77966594696045,2.038684844970703,0.35892340540885925
1771683724252016600,3.0710166015625,10.920842170715332,1.399801254272461,0.9379864931106567
1771683724262374100,3.0813740234375,7.759923934936523,0.6939185857772827,0.6747759580612183
1771683724272740400,3.091740234375,10.794022560119629,1.6151553392410278,0.1459621787071228
1771683724283089200,3.102089111328125,9.233902931213379,2.667997360229492,0.12203395366668701
1771683724293463800,3.1124638671875,9.509077072143555,2.1750757694244385,-0.22013968229293823
1771683724303804200,3.12280419921875,9.80100154876709,-0.23449662327766418,-0.064606212079525
1771683724314187500,3.1331875,9.628718376159668,1.5026925802230835,0.7896314859390259
1771683724324519200,3.143519287109375,10.17428207397461,1.545763373374939,0.4546363055706024
1771683724334880800,3.153880859375,10.39202880859375,1.275374412536621,0.6221339106559753
1771683724345234200,3.164234130859375,9.93260669708252,1.4883357286453247,0.17706887423992157
1771683724355604200,3.174604248046875,9.42772102355957,1.6199408769607544,0.07178468257188797
1771683724365949200,3.18494921875,10.236495018005371,2.311466693878174,-0.1459621787071228
1771683724376328000,3.195327880859375,9.006584167480469,2.4741785526275635,0.6269195079803467
1771683724386664200,3.205664306640625,9.760323524475098,0.672383189201355,0.5359922647476196
1771683724397051600,3.2160517578125,9.281759262084961,-0.37088751792907715,0.11485548317432404
1771683724407379200,3.226379150390625,10.327422142028809,1.923829436302185,-0.5168496966362
1771683724417744600,3.23674462890625,10.226923942565918,2.012363910675049,0.1746760457754135
1771683724428094200,3.24709423828125,10.545169830322266,1.1868400573730469,0.33738797903060913
1771683724438468400,3.25746826171875,8.559126853942871,0.8733802437782288,0.5886343717575073
1771683724448814800,3.26781494140625,10.39920711517334,2.282752752304077,0.47617170214653015
1771683724459192000,3.278192138671875,9.403793334960938,2.6560330390930176,0.5312066078186035
1771683724469538600,3.28853857421875,10.222138404846191,2.0243279933929443,0.27756741642951965
1771683724479881700,3.2988818359375,8.425128936767578,-0.6532405614852905,-0.397208571434021
1771683724490262300,3.30926220703125,10.047462463378906,1.7252250909805298,-0.2679961323738098
1771683724500608800,3.31960888671875,10.171889305114746,2.3617160320281982,0.6173482537269592
1771683724510955300,3.329955322265625,10.06421184539795,0.6101697683334351,0.2799602448940277
1771683724521332500,3.34033251953125,10.380064964294434,0.5718846321105957,0.4570291340351105
1771683724531679000,3.350678955078125,9.829715728759766,2.2133610248565674,0.9475577473640442
1771683724542026800,3.36102685546875,10.016355514526367,2.2779672145843506,0.5647061467170715
1771683724552402700,3.371402587890625,9.403793334960938,2.007578134536743,0.5670989751815796
1771683724562741800,3.38174169921875,9.43489933013916,1.552941918373108,0.2273181527853012
1771683724573126400,3.39212646484375,8.798408508300781,0.15314064919948578,0.6101697683334351
1771683724583456800,3.402456787109375,10.939985275268555,1.950150489807129,0.10289137065410614
1771683724593819400,3.4128193359375,10.198209762573242,1.7491533756256104,0.45224347710609436
1771683724604171800,3.423171875,10.1814603805542,-0.15074782073497772,0.1339980661869049
1771683724614543000,3.433543212890625,9.353543281555176,0.794417142868042,0.380458801984787
1771683724624886800,3.44388671875,10.40638542175293,2.1918256282806396,0.5335994362831116
1771683724635266800,3.454266845703125,9.54496955871582,2.2301106452941895,0.8614161610603333
1771683724645601800,3.464601806640625,9.592825889587402,1.7012969255447388,0.8422735929489136
1771683724655959800,3.474959716796875,9.509077072143555,1.6079767942428589,0.4785645306110382
1771683724666316800,3.48531689453125,9.34157943725586,2.060220241546631,-0.4307080805301666
1771683724676683500,3.49568359375,10.01874828338623,1.4141582250595093,0.14356936514377594
1771683724687031800,3.50603173828125,10.116853713989258,0.7585247755050659,0.3086741268634796
1771683724697407200,3.5164072265625,9.229117393493652,0.23688943684101105,0.4259224236011505
1771683724707746800,3.526746826171875,10.348958015441895,1.832902193069458,0.760917603969574
1771683724718130700,3.537130615234375,9.934999465942383,2.7182464599609375,0.6125625967979431
1771683724728461800,3.5474619140625,9.588040351867676,1.0265209674835205,0.6245267391204834
1771683724738824000,3.557823974609375,8.307880401611328,-0.12681959569454193,0.5024927258491516
1771683724749176800,3.5681767578125,8.884550094604492,1.7563318014144897,0.4546363055706024
1771683724759547600,3.578547607421875,9.638289451599121,1.423729419708252,0.40677985548973083
1771683724769891800,3.588891845703125,8.95394229888916,-0.641276478767395,0.2273181527853012
1771683724780271000,3.59927099609375,9.966106414794922,-0.6652047038078308,0.2967100143432617
1771683724790648300,3.6096484375,9.784252166748047,0.9379864931106567,0.21774685382843018
1771683724800994800,3.619994873046875,10.279565811157227,0.6317051649093628,-0.0023928226437419653
1771683724811341300,3.63034130859375,10.459028244018555,0.9284151792526245,0.5072783827781677
1771683724821688000,3.64068798828125,10.284351348876953,0.7680960893630981,0.7776673436164856
1771683724832065000,3.65106494140625,9.279366493225098,-0.22971096634864807,0.5312066078186035
1771683724842394400,3.661394287109375,9.513862609863281,0.7680960893630981,0.7058826684951782
1771683724852758300,3.67175830078125,10.219745635986328,1.0600204467773438,0.1986042857170105
1771683724863109400,3.682109375,8.695517539978027,-0.09092725813388824,0.019142581149935722
1771683724873481700,3.692481689453125,9.150154113769531,-0.9092726111412048,0.11485548317432404
1771683724883824400,3.702824462890625,10.432706832885742,1.301695466041565,0.48574298620224
1771683724894205400,3.713205322265625,10.269994735717773,0.5551348328590393,0.7489534616470337
1771683724904539400,3.723539306640625,10.607382774353027,-0.849452018737793,0.672383189201355
1771683724914898700,3.733898681640625,10.17428207397461,0.6269195079803467,0.7776673436164856
1771683724925254400,3.74425439453125,11.018948554992676,0.7728816866874695,0.1986042857170105
1771683724935622100,3.7546220703125,9.734002113342285,0.23449662327766418,0.04785645380616188
1771683724945969400,3.764969482421875,9.633503913879395,-0.07178468257188797,0.39960137009620667
1771683724956345900,3.775345947265625,10.100104331970215,0.5479564070701599,0.05503492057323456
1771683724966684400,3.785684326171875,9.729216575622559,0.29431718587875366,0.7058826684951782
1771683724977069600,3.796069580078125,10.325029373168945,-0.05742774158716202,0.5288137793540955
1771683724987399400,3.8063994140625,9.994820594787598,0.3397808074951172,1.0671988725662231
1771683724997762600,3.816762451171875,10.849058151245117,0.07178468257188797,0.28235307335853577
1771683725008114400,3.827114501953125,10.100104331970215,0.062213387340307236,0.23449662327766418
1771683725018486300,3.837486328125,10.657631874084473,0.08135596662759781,0.34217363595962524
1771683725028832800,3.847832763671875,9.78664493560791,0.363709032535553,0.12681959569454193
1771683725039210000,3.8582099609375,10.329814910888672,0.5958128571510315,0.007178467698395252
1771683725049544400,3.86854443359375,9.279366493225098,0.18903298676013947,0.7034898400306702
1771683725059903000,3.878903076171875,9.674181938171387,0.5431707501411438,0.6005984544754028
1771683725070259500,3.889259521484375,10.090533256530762,0.7178468108177185,0.33020952343940735
1771683725080626700,3.899626708984375,9.07119083404541,0.6173482537269592,0.916451096534729
1771683725091004000,3.91000390625,9.616754531860352,-0.2871387302875519,0.5910272002220154
1771683725101350400,3.920350341796875,9.994820594787598,0.550349235534668,0.7800601720809937
1771683725111697000,3.93069677734375,9.745966911315918,0.8446664214134216,0.05024927482008934
1771683725122047000,3.941046875,9.391828536987305,-0.2727817893028259,0.5264210104942322
1771683725132420600,3.951420654296875,9.822537422180176,0.5024927258491516,-0.17946170270442963
1771683725142762000,3.961761962890625,9.889535903930664,1.2346965074539185,0.09810572862625122
1771683725153144300,3.972144287109375,9.382257461547852,0.397208571434021,0.9499505758285522
1771683725163477000,3.98247705078125,9.623932838439941,-0.12681959569454193,0.19381862878799438
1771683725173837300,3.99283740234375,9.408578872680664,0.9332008361816406,0.5599204897880554
1771683725184192000,4.00319189453125,9.906285285949707,1.1413763761520386,0.5120640397071838
1771683725194561000,4.01356103515625,8.863015174865723,-0.7034898400306702,0.4043870270252228
1771683725204907000,4.023906982421875,10.26760196685791,0.5718846321105957,0.576670229434967
1771683725215284700,4.03428466796875,9.710074424743652,0.5479564070701599,0.2991028428077698
1771683725225622000,4.0446220703125,10.449456214904785,0.13160525262355804,-0.016749758273363113
1771683725235979500,4.0549794921875,9.41336441040039,0.007178467698395252,-0.016749758273363113
1771683725246337000,4.0653369140625,10.365707397460938,0.7058826684951782,0.17228323221206665
1771683725256701400,4.075701416015625,9.956535339355469,1.3208380937576294,0.5599204897880554
1771683725267052000,4.086052001953125,9.9469633102417,-0.27756741642951965,0.1746760457754135
1771683725277425200,4.096425048828125,9.65503978729248,-0.3086741268634796,-0.15553347766399384
1771683725287767000,4.10676708984375,11.0835542678833,1.3280165195465088,0.16510476171970367
1771683725298148600,4.117148681640625,8.492127418518066,-0.07178468257188797,-0.30628129839897156
1771683725308482300,4.127482421875,11.68893814086914,0.24646073579788208,0.4713860750198364
1771683725318841900,4.137841796875,9.020941734313965,0.2967100143432617,0.18903298676013947
1771683725329218800,4.14821875,11.181660652160645,0.19621145725250244,0.02871387079358101
1771683725339565600,4.158565673828125,8.863015174865723,-0.05024927482008934,0.2512463629245758
1771683725349942500,4.168942626953125,10.636096954345703,1.0959128141403198,0.2273181527853012
1771683725360289000,4.1792890625,10.092926025390625,0.6819544434547424,0.4211367964744568
1771683725370627000,4.189626953125,9.083154678344727,-0.32542386651039124,0.10289137065410614
1771683725381012700,4.2000126953125,9.755537986755371,0.3397808074951172,0.26560330390930176
1771683725391359200,4.210359130859375,10.078569412231445,1.2179467678070068,0.17946170270442963
1771683725401706000,4.2207060546875,9.863214492797852,0.3565305769443512,0.6843472719192505
1771683725412083000,4.2310830078125,9.54496955871582,-0.763310432434082,0.4977070987224579
1771683725422414800,4.241414794921875,10.41356372833252,0.6197410821914673,1.0049854516983032
1771683725432776200,4.251776123046875,10.01874828338623,0.4378865361213684,0.41156548261642456
1771683725443129900,4.2621298828125,8.889336585998535,-0.14835500717163086,0.48574298620224
1771683725453499600,4.272499755859375,10.581061363220215,0.0933200865983963,0.42831525206565857
1771683725463844900,4.282844970703125,9.511469841003418,0.5264210104942322,0.5599204897880554
1771683725474223400,4.293223388671875,9.554540634155273,-0.03349951654672623,0.9020941257476807
1771683725484560000,4.303559814453125,9.884750366210938,-0.41874396800994873,0.5312066078186035
1771683725494947000,4.313947021484375,10.028319358825684,0.7178468108177185,0.6580262184143066
1771683725505275000,4.32427490234375,9.600004196166992,-0.13160525262355804,0.38763725757598877
1771683725515640000,4.33464013671875,9.535398483276367,-0.4833501875400543,0.38763725757598877
1771683725525990000,4.344989990234375,10.023533821105957,0.19142581522464752,0.6867401003837585
1771683725536363800,4.35536376953125,9.779465675354004,-0.16510476171970367,0.760917603969574
1771683725546705000,4.365704833984375,10.066604614257812,-0.2632105052471161,0.4163511395454407
1771683725557087500,4.37608740234375,9.841679573059082,-0.4091726839542389,0.23210379481315613
1771683725567420000,4.386419921875,10.38485050201416,0.6699903607368469,0.2273181527853012
1771683725577780500,4.396780517578125,9.332008361816406,-0.6867401003837585,0.849452018737793
1771683725588135000,4.407135009765625,10.255638122558594,-0.9834501147270203,-0.07896314561367035
1771683725598504200,4.417504150390625,9.516255378723145,0.13878370821475983,0.4833501875400543
1771683725608850700,4.4278505859375,10.353743553161621,0.2632105052471161,-0.49292147159576416
1771683725619228000,4.438227783203125,9.250652313232422,-0.9523434042930603,0.5288137793540955
1771683725629565000,4.44856494140625,10.38485050201416,-0.7657032608985901,0.17706887423992157
1771683725639951600,4.45895166015625,10.437492370605469,0.014356935396790504,0.8422735929489136
1771683725650280000,4.469280029296875,10.451848983764648,-0.5718846321105957,0.1052841991186142
1771683725660644600,4.47964453125,9.561718940734863,-0.5862415432929993,0.3852444589138031
1771683725671021800,4.490021728515625,10.006784439086914,-0.02153540402650833,0.3158525824546814
1771683725681368300,4.500368408203125,9.810572624206543,-0.4546363055706024,0.9332008361816406
1771683725691714800,4.51071484375,9.674181938171387,-0.607776939868927,0.31106695532798767
1771683725702067500,4.5210673828125,10.095318794250488,-0.37088751792907715,0.6532405614852905
1771683725712438500,4.5314384765625,10.557133674621582,-0.33499518036842346,0.1052841991186142
1771683725722782500,4.541782470703125,9.262616157531738,-0.8805587291717529,-0.04307080805301666
1771683725733140000,4.552139892578125,10.03549861907959,-0.5288137793540955,0.38763725757598877
1771683725743497500,4.56249755859375,10.195816993713379,-0.24406790733337402,0.6891329288482666
1771683725753855200,4.572855224609375,9.729216575622559,-0.8973084688186646,0.33738797903060913
1771683725764212500,4.58321240234375,9.978070259094238,-0.763310432434082,0.5168496966362
1771683725774579000,4.593578857421875,10.028319358825684,-0.26081767678260803,0.5623133182525635
1771683725784927500,4.603927490234375,10.073782920837402,-0.6843472719192505,0.4043870270252228
1771683725795302700,4.614302734375,10.009177207946777,-0.6101697683334351,0.28235307335853577
1771683725805642500,4.624642578125,10.001998901367188,-0.5575276613235474,0.6747759580612183
1771683725816026000,4.635026123046875,9.999606132507324,-1.2299108505249023,0.5216353535652161
1771683725826357500,4.645357421875,10.047462463378906,-0.40677985548973083,0.28953152894973755
1771683725836719400,4.65571923828125,9.812965393066406,-0.576670229434967,0.5048855543136597
1771683725847072500,4.666072509765625,9.966106414794922,-1.0121639966964722,0.5575276613235474
1771683725857443000,4.676443115234375,9.781859397888184,-0.9882357716560364,0.4570291340351105
1771683725867787500,4.68678759765625,10.451848983764648,-0.349352091550827,0.6508477330207825
1771683725878166500,4.69716650390625,9.604789733886719,-0.9667003750801086,0.18903298676013947
1771683725888502500,4.70750244140625,9.846465110778809,-1.0887342691421509,0.09810572862625122
1771683725898890200,4.71789013671875,10.119247436523438,-0.09571290761232376,0.4139583110809326
1771683725909217500,4.728217529296875,9.791430473327637,-0.6197410821914673,0.5455635786056519
1771683725919583500,4.73858349609375,9.578469276428223,-1.1030912399291992,0.4953143000602722
1771683725929932500,4.7489326171875,9.631111145019531,-0.5670989751815796,0.48813581466674805
1771683725940307000,4.759306884765625,10.171889305114746,-0.23449662327766418,0.30149564146995544
1771683725950647600,4.7696474609375,9.432506561279297,-1.3663017749786377,0.2871387302875519
1771683725961030700,4.78003076171875,10.604990005493164,-0.6628118753433228,0.380458801984787
1771683725971377200,4.790377197265625,8.937192916870117,-0.6245267391204834,0.7489534616470337
1771683725981720000,4.800719970703125,11.10030460357666,-0.9332008361816406,0.5814558863639832
1771683725992100900,4.811100830078125,9.9469633102417,-0.9068797826766968,0.34695929288864136
1771683726002435000,4.82143505859375,10.576275825500488,-0.23449662327766418,0.5000999569892883
1771683726012794000,4.831794189453125,9.810572624206543,-0.7848458290100098,0.519242525100708
1771683726023150000,4.842150146484375,10.04985523223877,-0.6436693072319031,0.7345965504646301
1771683726033517600,4.852517578125,10.621739387512207,-0.46420758962631226,0.6508477330207825
1771683726043865000,4.862864990234375,9.604789733886719,-0.9044869542121887,0.47617170214653015
1771683726054241300,4.8732412109375,10.176674842834473,-1.1054840087890625,0.23210379481315613
1771683726064580000,4.883580078125,9.554540634155273,-1.0001999139785767,0.35413774847984314
1771683726074965000,4.893965087890625,10.059426307678223,-1.2179467678070068,0.4211367964744568
1771683726085295000,4.904295166015625,9.980463027954102,-0.14835500717163086,0.4139583110809326
1771683726095658000,4.914657958984375,10.607382774353027,0.3278166949748993,0.7465606927871704
1771683726106010000,4.925010009765625,9.734002113342285,-0.7992027401924133,0.3397808074951172
1771683726116381700,4.935381591796875,9.595218658447266,-0.15314064919948578,0.46899324655532837
1771683726126725000,4.94572509765625,10.76530933380127,0.19621145725250244,0.3900300860404968
1771683726137105400,4.95610546875,9.779465675354004,-0.014356935396790504,0.9906286001205444
1771683726147440000,4.966440185546875,10.138389587402344,-0.3326023519039154,0.4019941985607147
1771683726157798400,4.97679833984375,10.13599681854248,0.363709032535553,0.39960137009620667
1771683726168155100,4.987155029296875,10.023533821105957,0.41156548261642456,0.32303106784820557
1771683726178522000,4.997522216796875,9.812965393066406,0.08853443711996078,0.07417750358581543
1771683726188899300,5.0078994140625,9.7005033493042,0.39960137009620667,0.32542386651039124
1771683726199245800,5.018245849609375,10.234102249145508,0.07896314561367035,0.5144568681716919
1771683726209585200,5.028585205078125,9.425328254699707,0.2584248483181,0.43549370765686035
1771683726219969500,5.038969482421875,10.140782356262207,0.3397808074951172,0.1339980661869049
1771683726230300200,5.049300048828125,9.705288887023926,0.13878370821475983,0.15553347766399384
1771683726240662500,5.05966259765625,10.243673324584961,0.2560320198535919,0.20817556977272034
1771683726251039700,5.070039794921875,9.889535903930664,0.4450650215148926,0.2105683982372284
1771683726261386200,5.08038623046875,9.705288887023926,0.20817556977272034,0.6269195079803467
1771683726271732700,5.090732666015625,9.903892517089844,-0.09571290761232376,0.35413774847984314
1771683726292456400,5.11145654296875,9.643074989318848,0.4043870270252228,-0.007178467698395252
1771683726302802700,5.121802734375,9.470791816711426,0.16271193325519562,0.062213387340307236
1771683726313180200,5.13218017578125,10.389636039733887,0.6915257573127747,0.23210379481315613
1771683726323517700,5.142517578125,9.506684303283691,0.02153540402650833,0.2799602448940277
1771683726333903600,5.152903564453125,9.927821159362793,0.13160525262355804,0.13639089465141296
1771683726344232700,5.163232666015625,9.76989459991455,0.7154539823532104,-0.22971096634864807
1771683726354596900,5.173596923828125,9.997213363647461,0.550349235534668,0.059820566326379776
1771683726364947700,5.18394775390625,9.695717811584473,-0.007178467698395252,0.1746760457754135
1771683726375320600,5.194320556640625,9.705288887023926,0.27756741642951965,0.2919243574142456
1771683726385662700,5.204662841796875,10.095318794250488,0.3756731450557709,0.3517449200153351
1771683726396044000,5.2150439453125,9.722038269042969,0.2991028428077698,-0.009571290574967861
1771683726406378000,5.2253779296875,9.956535339355469,0.6101697683334351,-0.1052841991186142
1771683726416737300,5.2357373046875,9.69093132019043,0.19142581522464752,0.11485548317432404
1771683726427093000,5.246093017578125,9.710074424743652,0.24885354936122894,0.42831525206565857
1771683726437461000,5.2564609375,10.50927734375,0.4737788736820221,0.46899324655532837
1771683726447807700,5.266807861328125,9.652647018432617,0.2225325107574463,0.397208571434021
1771683726458184400,5.277184326171875,10.179067611694336,0.064606212079525,0.2967100143432617
1771683726468561700,5.287561767578125,10.164710998535156,0.4378865361213684,0.28953152894973755
1771683726478908200,5.297908203125,10.202995300292969,0.9092726111412048,0.34695929288864136
1771683726489238000,5.308238037109375,9.791430473327637,-0.1579262912273407,0.672383189201355
1771683726499601400,5.318601318359375,9.829715728759766,-0.009571290574967861,0.6675975322723389
1771683726509953000,5.328953125,10.382457733154297,0.7513462901115417,0.3852444589138031
1771683726520324900,5.339324951171875,9.55214786529541,0.5910272002220154,0.34695929288864136
1771683726530668000,5.34966796875,9.475577354431152,0.18903298676013947,0.17946170270442963
1771683726541048600,5.360048583984375,9.915857315063477,0.4019941985607147,0.6628118753433228
1771683726551395000,5.37039501953125,10.49252700805664,0.2584248483181,0.7752745151519775
1771683726561741800,5.380741943359375,9.559326171875,0.16749759018421173,0.5575276613235474
1771683726572118800,5.391118896484375,9.891928672790527,0.5288137793540955,0.14835500717163086
1771683726582455600,5.40145556640625,10.016355514526367,1.0959128141403198,0.34695929288864136
1771683726592842500,5.411842529296875,10.643275260925293,2.675175666809082,0.7369893789291382
1771683726603170600,5.422170654296875,9.516255378723145,-1.2323036193847656,0.48095735907554626
1771683726613535500,5.432535400390625,8.970691680908203,-1.7156537771224976,0.18424734473228455
1771683726623885600,5.442885498046875,9.123832702636719,1.34476637840271,0.4378865361213684
1771683726634259200,5.45325927734375,12.375679016113281,2.5292134284973145,-0.07657032459974289
1771683726644600600,5.4636005859375,9.755537986755371,2.029113531112671,0.7393822073936462
1771683726654983000,5.47398291015625,9.126225471496582,-1.2705888748168945,0.8901300430297852
1771683726665315600,5.484315673828125,9.284152030944824,-0.8949156403541565,0.3326023519039154
1771683726675676000,5.494676025390625,9.750752449035645,2.053041934967041,0.4019941985607147
1771683726686030600,5.505030517578125,10.279565811157227,2.1750757694244385,0.24646073579788208
1771683726696399600,5.515399658203125,9.343972206115723,-0.34217363595962524,-0.2512463629245758
1771683726706745600,5.52574560546875,9.454042434692383,-0.22492532432079315,-0.2991028428077698
1771683726717123300,5.536123291015625,10.691131591796875,1.0911271572113037,0.5575276613235474
1771683726727460600,5.546460693359375,9.45164966583252,0.8279166221618652,0.397208571434021
1771683726737847000,5.556846923828125,10.356136322021484,1.6295121908187866,0.6029912829399109
1771683726748175600,5.567175537109375,9.57607650756836,0.28953152894973755,0.7824530005455017
1771683726758540000,5.5775400390625,9.032905578613281,-0.4450650215148926,0.05742774158716202
1771683726768917200,5.587917236328125,9.154939651489258,1.0719845294952393,-0.19621145725250244
1771683726779263700,5.598263671875,10.518848419189453,2.60339093208313,-0.1698904037475586
1771683726789610200,5.6086103515625,8.96112060546875,0.9858429431915283,0.794417142868042
1771683726799987500,5.618987548828125,9.980463027954102,-1.25144624710083,0.6029912829399109
1771683726810320600,5.629320556640625,9.238688468933105,0.2871387302875519,0.6771687865257263
1771683726820680400,5.639680419921875,11.081161499023438,2.4837498664855957,0.13878370821475983
1771683726831057700,5.6500576171875,9.913464546203613,1.5242279767990112,0.30149564146995544
1771683726841404200,5.660404052734375,9.430113792419434,-0.6699903607368469,0.08853443711996078
1771683726851750700,5.670750732421875,8.992227554321289,0.4618147611618042,0.550349235534668
1771683726862108200,5.681108154296875,10.767702102661133,2.251646041870117,0.6460621356964111
1771683726872474400,5.691474365234375,9.312865257263184,1.1461620330810547,0.6628118753433228
1771683726882823200,5.7018232421875,9.640682220458984,0.26560330390930176,0.44745782017707825
1771683726893198000,5.712197998046875,9.564111709594727,0.6556333899497986,0.5383850932121277
1771683726903538200,5.7225380859375,9.970891952514648,0.6939185857772827,0.42352959513664246
1771683726913921500,5.732921630859375,10.052248001098633,1.1724830865859985,0.2225325107574463
1771683726924253200,5.743253173828125,10.578668594360352,1.3902299404144287,0.7800601720809937
1771683726934614800,5.75361474609375,9.650253295898438,0.2871387302875519,0.9020941257476807
1771683726944968200,5.76396826171875,10.023533821105957,0.5335994362831116,0.7824530005455017
1771683726955338500,5.77433837890625,9.681360244750977,1.2394821643829346,0.5359922647476196
1771683726965683200,5.78468310546875,10.581061363220215,1.7228323221206665,-0.0526420995593071
1771683726976062000,5.79506201171875,9.162117958068848,0.849452018737793,0.2991028428077698
1771683726986398200,5.805398193359375,9.851250648498535,-0.2512463629245758,0.45224347710609436
1771683726996785700,5.81578564453125,9.363115310668945,0.8063812255859375,0.7058826684951782
1771683727007113200,5.82611328125,10.856236457824707,2.313859462738037,0.9978070259094238
1771683727017479000,5.83647900390625,10.552348136901855,1.5864413976669312,0.45942193269729614
1771683727027828200,5.846828125,9.93260669708252,0.13160525262355804,-0.12203395366668701
1771683727038202400,5.857202392578125,8.884550094604492,-0.6556333899497986,0.33499518036842346
1771683727048549000,5.867549072265625,10.557133674621582,1.4189438819885254,0.038285162299871445
1771683727058926000,5.877926025390625,9.18843936920166,2.249253273010254,0.15553347766399384
1771683727069258200,5.88825830078125,10.978270530700684,1.6199408769607544,0.13639089465141296
1771683727079619300,5.898619384765625,9.528220176696777,0.5288137793540955,0.07896314561367035
1771683727089973200,5.90897314453125,9.7938232421875,-0.12921242415905,0.004785645287483931
1771683727100342800,5.9193427734375,9.784252166748047,0.7752745151519775,0.45942193269729614
1771683727110689500,5.929689453125,9.851250648498535,2.0865414142608643,0.42831525206565857
1771683727121066500,5.94006640625,10.226923942565918,2.029113531112671,0.38285163044929504
1771683727131413000,5.9504130859375,9.293723106384277,0.6843472719192505,0.12442677468061447
1771683727141790200,5.960790283203125,9.588040351867676,0.4450650215148926,-0.34217363595962524
1771683727152136700,5.97113671875,10.29870891571045,1.5337992906570435,-0.40677985548973083
1771683727162475800,5.981475830078125,9.762716293334961,1.2538390159606934,-0.009571290574967861
1771683727172860400,5.9918603515625,9.592825889587402,0.5982056856155396,0.8566305041313171
1771683727183190800,6.002190673828125,9.281759262084961,1.2969099283218384,1.0289137363433838
1771683727193553400,6.012553466796875,9.281759262084961,2.3497519493103027,0.8422735929489136
1771683727203905800,6.02290576171875,10.234102249145508,2.00518536567688,-0.08853443711996078
1771683727214277000,6.033277099609375,8.793622970581055,0.7322037220001221,-0.380458801984787
1771683727224621000,6.04362109375,10.710273742675781,1.0169496536254883,-0.9643075466156006
1771683727234978600,6.053978515625,10.001998901367188,-0.14117653667926788,-0.26081767678260803
1771683727245336000,6.064336181640625,9.157332420349121,0.3206382393836975,0.8877372145652771
1771683727255693800,6.07469384765625,10.25324535369873,2.5770699977874756,1.3567304611206055
1771683727266050800,6.08505078125,10.315458297729492,1.5409778356552124,1.007378339767456
1771683727276417500,6.09541748046875,7.106683254241943,-0.37806597352027893,1.1054840087890625
1771683727286766000,6.10576611328125,9.798608779907227,0.8279166221618652,-0.3565305769443512
1771683727297141200,6.116141357421875,11.210373878479004,3.6945180892944336,-0.5168496966362
1771683727307481000,6.126481201171875,9.915857315063477,2.486142635345459,-0.5048855543136597
1771683727317865000,6.136864990234375,11.028519630432129,-1.399801254272461,0.1746760457754135
1771683727328196000,6.147196044921875,9.817750930786133,-1.129412293434143,0.6963114142417908
1771683727338558000,6.157557861328125,9.219545364379883,0.21296121180057526,1.5146567821502686
1771683727348911000,6.1679111328125,11.078768730163574,2.806781053543091,0.8901300430297852
1771683727359281700,6.17828173828125,9.382257461547852,2.108076810836792,-0.009571290574967861
1771683727369626000,6.188626220703125,7.3986077308654785,-0.4019941985607147,0.17706887423992157
1771683727380005400,6.19900537109375,9.315258979797363,0.07657032459974289,0.48095735907554626
1771683727390341000,6.209341064453125,11.542976379394531,3.046063184738159,0.5527420043945312
1771683727400728800,6.219728759765625,10.566704750061035,2.495713949203491,0.2847459018230438
1771683727411075600,6.23007568359375,10.894521713256836,-0.5958128571510315,0.3038884699344635
1771683727421422000,6.240422119140625,10.078569412231445,-0.17946170270442963,0.3852444589138031
1771683727431799000,6.250799072265625,11.152946472167969,2.6225335597991943,0.6508477330207825
1771683727442128600,6.261128662109375,9.109476089477539,-0.5886343717575073,0.4019941985607147
1771683727452492300,6.2714921875,9.757930755615234,1.576870083808899,-0.19381862878799438
1771683727462843600,6.28184375,8.774480819702148,1.7395820617675781,0.5958128571510315
1771683727473216000,6.292216064453125,9.236295700073242,0.9092726111412048,0.9930213689804077
1771683727483558700,6.30255859375,8.291130065917969,0.8135597109794617,1.3615161180496216
1771683727493939500,6.312939453125,11.406585693359375,2.895315408706665,0.33738797903060913
1771683727504273700,6.323273681640625,8.535198211669922,0.6628118753433228,0.11724831163883209
1771683727514632700,6.3336328125,11.009376525878906,0.3158525824546814,-0.2991028428077698
1771683727524988700,6.34398876953125,10.360921859741211,1.5050854682922363,0.698704183101654
1771683727535356400,6.3543564453125,10.829915046691895,0.763310432434082,0.5742774605751038
1771683727545703700,6.36470361328125,9.805787086486816,0.973878800868988,0.6843472719192505
1771683727556079900,6.375079833984375,9.595218658447266,1.2562319040298462,0.3924229145050049
1771683727566418700,6.385418701171875,8.958727836608887,0.6628118753433228,0.22492532432079315
1771683727576803600,6.395803466796875,8.85344409942627,1.28255295753479,0.5144568681716919
1771683727587133700,6.4061337890625,8.958727836608887,2.5148565769195557,0.6556333899497986
1771683727597496800,6.416496826171875,10.097711563110352,1.6773686408996582,0.2847459018230438
1771683727607848700,6.4268486328125,8.85344409942627,0.27038896083831787,-0.059820566326379776
1771683727618220300,6.43722021484375,10.526026725769043,0.9451649188995361,0.3158525824546814
1771683727628567000,6.447567138671875,10.86580753326416,1.3399807214736938,0.4498506486415863
1771683727638944000,6.457944091796875,10.593026161193848,0.8327022790908813,0.35413774847984314
1771683727649278700,6.46827880859375,9.640682220458984,-0.2273181527853012,0.062213387340307236
1771683727659637200,6.47863720703125,9.812965393066406,0.5335994362831116,0.05024927482008934
1771683727670014200,6.48901416015625,9.267401695251465,1.1748759746551514,0.30628129839897156
1771683727680360700,6.499360595703125,8.726624488830566,1.6366907358169556,0.2967100143432617
1771683727690738000,6.509738037109375,10.092926025390625,1.8161523342132568,0.4043870270252228
1771683727701084400,6.52008447265625,9.059226989746094,0.7465606927871704,0.20817556977272034
1771683727711431000,6.530430908203125,10.205389022827148,1.0600204467773438,0.05024927482008934
1771683727721808100,6.54080810546875,10.995019912719727,1.0839486122131348,-0.031106693670153618
1771683727732138800,6.551138671875,10.74855899810791,0.8542376756668091,0.851844847202301
1771683727742496300,6.561496337890625,10.212567329406738,-0.14835500717163086,-0.2584248483181
1771683727752878300,6.57187841796875,9.896714210510254,0.7130611538887024,0.3756731450557709
1771683727763211300,6.582211181640625,9.870393753051758,1.8305093050003052,0.05742774158716202
1771683727773571300,6.5925712890625,11.578868865966797,3.91705060005188,-0.2153540402650833
1771683727783926300,6.60292626953125,8.999405860900879,2.4023938179016113,0.016749758273363113
1771683727794295000,6.613294921875,10.241280555725098,0.4331009089946747,0.3852444589138031
1771683727804641300,6.623641357421875,9.712467193603516,0.08135596662759781,-0.2153540402650833
1771683727815018800,6.634018798828125,9.674181938171387,0.40677985548973083,0.6747759580612183
1771683727825356300,6.644356201171875,9.298508644104004,1.5840486288070679,0.3924229145050049
1771683727835742500,6.654742431640625,10.090533256530762,0.729810893535614,0.4977070987224579
1771683727846071300,6.6650712890625,9.212367057800293,0.34217363595962524,0.5168496966362
1771683727856435500,6.675435546875,9.741181373596191,1.6510475873947144,0.8638089895248413
1771683727866786600,6.68578662109375,11.062019348144531,3.7471601963043213,-0.1459621787071228
1771683727877159200,6.6961591796875,9.284152030944824,2.431107759475708,0.2847459018230438
1771683727887501600,6.70650146484375,8.647661209106445,-0.25363919138908386,-0.7513462901115417
1771683727897883000,6.7168828125,10.152746200561523,0.5527420043945312,0.638883650302887
1771683727908216600,6.727216552734375,9.229117393493652,1.7419748306274414,0.9595218896865845
1771683727918575900,6.737575927734375,9.56889820098877,0.20817556977272034,1.2035897970199585
1771683727928931600,6.747931640625,8.583054542541504,0.5958128571510315,0.8685946464538574
1771683727939299600,6.758299560546875,10.693524360656738,3.1250264644622803,-0.19621145725250244
1771683727949646600,6.768646484375,9.66221809387207,3.1680972576141357,0.32303106784820557
1771683727960023300,6.779023193359375,9.832108497619629,1.9860427379608154,-0.0933200865983963
1771683727970361600,6.789361572265625,9.611968994140625,1.4165509939193726,0.7776673436164856
1771683727980719000,6.799718994140625,10.140782356262207,-0.12442677468061447,0.4737788736820221
1771683727991093500,6.810093505859375,9.686145782470703,1.3471591472625732,0.9619147181510925
1771683728001440000,6.82043994140625,9.702896118164062,0.5694918036460876,1.0600204467773438
1771683728011817000,6.83081689453125,8.518448829650879,-0.7393822073936462,0.8063812255859375
1771683728022149000,6.841149169921875,10.372885704040527,1.8711873292922974,0.5431707501411438
1771683728032510200,6.85151025390625,9.497113227844238,2.5698914527893066,1.0145567655563354
1771683728042864000,6.861864013671875,10.191031455993652,2.313859462738037,0.607776939868927
1771683728053234000,6.87223388671875,9.377471923828125,2.1655044555664062,0.5024927258491516
1771683728063579100,6.8825791015625,9.607182502746582,0.08853443711996078,0.1746760457754135
1771683728073957400,6.892957275390625,9.80100154876709,0.031106693670153618,1.0001999139785767
1771683728084294100,6.903294189453125,10.176674842834473,-0.040677983313798904,0.5240281820297241
1771683728094681000,6.91368115234375,8.080561637878418,-0.05503492057323456,1.428515076637268
1771683728105009200,6.924009033203125,11.23908805847168,2.366501569747925,0.9020941257476807
1771683728115374300,6.934374267578125,11.535798072814941,3.7950167655944824,0.46420758962631226
1771683728125724200,6.94472412109375,10.193424224853516,3.146561861038208,0.15074782073497772
1771683728136097800,6.955097900390625,9.274580955505371,0.9260223507881165,-0.27756741642951965
1771683728146439200,6.965439208984375,11.547761917114258,0.4211367964744568,0.05024927482008934
1771683728156821500,6.975821533203125,7.70249605178833,0.1459621787071228,0.5240281820297241
1771683728167154200,6.986154296875,9.93260669708252,-0.363709032535553,0.5958128571510315
1771683728177514800,6.9965146484375,9.09272575378418,0.6173482537269592,1.1581261157989502
1771683728187869200,7.006869140625,11.023734092712402,2.9383862018585205,0.7680960893630981
1771683728198238200,7.01723828125,10.171889305114746,2.8833513259887695,-0.13878370821475983
1771683728208615400,7.027615478515625,10.703095436096191,3.0891339778900146,-0.5048855543136597
1771683728218962000,7.0379619140625,9.418149948120117,1.4739787578582764,0.09810572862625122
1771683728229299200,7.04829931640625,9.104690551757812,1.0671988725662231,0.20817556977272034
1771683728239685600,7.058685546875,9.123832702636719,-0.44745782017707825,0.11964113265275955
1771683728250014200,7.06901416015625,9.57607650756836,-0.23688943684101105,0.9667003750801086
1771683728260378600,7.079378662109375,9.757930755615234,0.8542376756668091,0.7130611538887024
1771683728270729200,7.089729248046875,10.03310489654541,2.53399920463562,0.4785645306110382
1771683728281102300,7.100102294921875,9.384650230407715,2.1272194385528564,-0.13160525262355804
1771683728291448800,7.11044873046875,11.0835542678833,2.4335005283355713,-0.19621145725250244
1771683728301826000,7.120825927734375,8.288737297058105,0.6843472719192505,0.760917603969574
1771683728312172500,7.131172607421875,10.451848983764648,-0.31345975399017334,0.09810572862625122
1771683728322517000,7.14151708984375,9.384650230407715,0.09092725813388824,1.2993026971817017
1771683728332896300,7.151896240234375,10.77966594696045,2.4047868251800537,0.23688943684101105
1771683728343232000,7.16223193359375,9.750752449035645,2.2444677352905273,0.9930213689804077
1771683728353620000,7.172619873046875,11.418549537658691,2.0793628692626953,-0.31345975399017334
1771683728363946800,7.18294677734375,8.848658561706543,1.2418749332427979,1.1054840087890625
1771683728374313000,7.19331298828125,9.944570541381836,1.1988041400909424,0.47617170214653015
1771683728384662000,7.203662109375,7.987242221832275,-0.064606212079525,1.2394821643829346
1771683728395036700,7.21403662109375,10.097711563110352,1.3854442834854126,1.0600204467773438
1771683728405377000,7.224376953125,10.626524925231934,2.768495798110962,0.32542386651039124
1771683728415760400,7.234760498046875,9.597611427307129,1.9286150932312012,0.7848458290100098
1771683728426092000,7.245092041015625,10.514062881469727,0.9906286001205444,0.4546363055706024
1771683728436453400,7.255453369140625,9.308079719543457,1.1054840087890625,0.5862415432929993
1771683728446807000,7.26580712890625,9.396614074707031,0.7872386574745178,1.3663017749786377
1771683728457177000,7.276177001953125,8.10688304901123,-0.03349951654672623,1.0600204467773438
1771683728467522000,7.28652197265625,11.676974296569824,3.0029923915863037,-0.3900300860404968
1771683728477900800,7.29690087890625,8.798408508300781,2.7972097396850586,0.6149554252624512
1771683728488237000,7.307237060546875,10.080962181091309,0.6340979933738708,-0.15553347766399384
1771683728498624300,7.317624267578125,9.073583602905273,1.057627558708191,1.3423734903335571
1771683728508952000,7.3279521484375,10.277173042297363,1.4572290182113647,1.007378339767456
1771683728519317500,7.3383173828125,8.391629219055176,-0.3206382393836975,1.1724830865859985
1771683728529667000,7.3486669921875,10.415956497192383,1.2203395366668701,0.12442677468061447
1771683728540041200,7.359041259765625,11.073983192443848,3.562912940979004,-0.4498506486415863
1771683728550382000,7.369382080078125,9.367900848388672,2.122433662414551,0.2919243574142456
1771683728560764700,7.3797646484375,11.554940223693848,0.6221339106559753,-0.6436693072319031
1771683728571111400,7.390111328125,8.360522270202637,1.0815558433532715,0.5455635786056519
1771683728581458000,7.4004580078125,9.767501831054688,0.6197410821914673,1.0815558433532715
1771683728591835000,7.4108349609375,8.484949111938477,0.6436693072319031,0.6580262184143066
1771683728602169600,7.421169677734375,11.124232292175293,3.517449378967285,-0.2632105052471161
1771683728612528000,7.431528076171875,8.518448829650879,2.0817556381225586,-0.20099709928035736
1771683728622884600,7.441884521484375,10.645668029785156,0.8781659007072449,-0.5814558863639832
1771683728633251800,7.452251953125,9.671789169311523,1.6773686408996582,0.5407779216766357
1771683728643599600,7.462599609375,9.573683738708496,-0.16510476171970367,0.3756731450557709
1771683728653975300,7.472975341796875,10.155138969421387,1.4165509939193726,0.9690931439399719
1771683728664314600,7.483314697265625,10.612168312072754,2.50289249420166,0.4091726839542389
1771683728674699000,7.493698974609375,9.803394317626953,1.3902299404144287,-0.4378865361213684
1771683728685029600,7.504029541015625,10.39920711517334,1.1772687435150146,-0.35413774847984314
1771683728695392300,7.514392333984375,9.332008361816406,1.1485549211502075,0.10049854964017868
1771683728705744600,7.52474462890625,9.006584167480469,-0.18903298676013947,0.6508477330207825
1771683728716115700,7.53511572265625,8.757730484008789,0.9858429431915283,0.4378865361213684
1771683728726459600,7.545459716796875,12.947563171386719,3.38105845451355,-0.21774685382843018
1771683728736839400,7.55583935546875,8.477770805358887,1.397408366203308,0.2560320198535919
1771683728747174700,7.566174560546875,12.863814353942871,0.4570291340351105,-0.8159525394439697
1771683728757532700,7.57653271484375,10.50927734375,1.0863415002822876,0.4905286431312561
1771683728767889700,7.5868896484375,8.544769287109375,-0.4498506486415863,0.8183453679084778
1771683728778256100,7.597256103515625,9.346364974975586,0.6293123364448547,1.9286150932312012
1771683728788633300,7.60763330078125,13.081561088562012,4.0079779624938965,-0.6771687865257263
1771683728798979800,7.617979736328125,6.57547664642334,1.1102696657180786,0.7776673436164856
1771683728809326300,7.628326416015625,11.432906150817871,0.42352959513664246,-1.1485549211502075
1771683728819703600,7.63870361328125,10.722238540649414,1.6366907358169556,0.5288137793540955
1771683728830035000,7.649034912109375,7.910671710968018,0.2991028428077698,1.3902299404144287
1771683728840396500,7.659396484375,9.580862045288086,1.28255295753479,1.0480563640594482
1771683728850773800,7.669773681640625,13.785051345825195,3.9672999382019043,0.7992027401924133
1771683728861120300,7.680120361328125,6.338587284088135,1.0528420209884644,0.5742774605751038
1771683728871466800,7.690466796875,10.504491806030273,0.16510476171970367,-1.6366907358169556
1771683728881844000,7.700843994140625,10.193424224853516,1.0169496536254883,0.7657032608985901
1771683728892190500,7.7111904296875,6.379265308380127,1.3040883541107178,1.0480563640594482
1771683728902537500,7.721537353515625,10.717453002929688,3.761517286300659,0.45942193269729614
1771683728912914200,7.7319140625,11.586047172546387,3.2997024059295654,0.27038896083831787
1771683728923252500,7.74225244140625,5.1876397132873535,-0.09810572862625122,0.06939185410737991
1771683728933637600,7.7526376953125,13.569697380065918,0.9690931439399719,0.38285163044929504
1771683728943967500,7.762967529296875,8.784051895141602,1.1820544004440308,0.6293123364448547
1771683728954331000,7.773330810546875,7.6666035652160645,1.0911271572113037,0.97148597240448
1771683728964682500,7.7836826171875,12.294322967529297,3.476771354675293,0.5934200286865234
1771683728975054600,7.7940546875,10.604990005493164,2.196611166000366,-0.5670989751815796
1771683728985397500,7.8043974609375,4.807180881500244,0.31345975399017334,-0.8542376756668091
1771683728995778300,7.8147783203125,13.720444679260254,-0.19142581522464752,-0.2919243574142456
1771683729006112500,7.825112548828125,8.551948547363281,2.0099709033966064,0.8973084688186646
1771683729016471300,7.83547119140625,7.288537979125977,2.691925525665283,1.277767300605774
1771683729026827500,7.84582763671875,13.691731452941895,2.9144580364227295,-0.4498506486415863
1771683729037195000,7.856195068359375,6.403193473815918,0.26081767678260803,1.1940184831619263
1771683729047542500,7.86654248046875,10.815558433532715,1.4380863904953003,-0.8685946464538574
1771683729057918700,7.876918701171875,11.425727844238281,-0.12203395366668701,0.39481574296951294
1771683729068257500,7.887257568359375,7.733603000640869,2.5914268493652344,1.4859428405761719
1771683729078642200,7.89764208984375,10.930414199829102,3.3643085956573486,0.7106683254241943
1771683729088972500,7.90797265625,12.495320320129395,1.8233308792114258,-0.20099709928035736
1771683729099335400,7.91833544921875,5.0225348472595215,-0.11006984114646912,0.7250252366065979
1771683729109687600,7.9286875,12.021540641784668,-0.42831525206565857,0.8590233325958252
1771683729120059100,7.93905908203125,11.906685829162598,2.9168508052825928,0.6340979933738708
1771683729130402600,7.949402587890625,6.472585201263428,2.0578274726867676,1.2634103298187256
1771683729140782600,7.959782470703125,12.710674285888672,1.2370892763137817,0.3038884699344635
1771683729151129300,7.97012939453125,9.109476089477539,1.5002998113632202,0.3900300860404968
1771683729161475800,7.980475830078125,9.68375301361084,0.7441678643226624,0.27756741642951965
1771683729171852800,7.990852783203125,12.059825897216797,1.373480200767517,1.0839486122131348
1771683729182190000,8.001190185546875,9.09272575378418,3.0628130435943604,1.5601203441619873
1771683729192576500,8.011576416015625,10.1814603805542,2.2396819591522217,0.5982056856155396
1771683729202905000,8.021905029296875,8.752944946289062,-0.12442677468061447,1.0552347898483276
1771683729213269800,8.032269775390626,8.195417404174805,-0.23449662327766418,0.9930213689804077
1771683729223620000,8.0426201171875,13.12702465057373,3.326023578643799,-0.02392822690308094
1771683729233977600,8.0529775390625,7.712067604064941,2.1822543144226074,0.8446664214134216
1771683729244335000,8.063335205078126,10.738987922668457,1.428515076637268,-0.8111668825149536
1771683729254717000,8.073717041015625,9.250652313232422,0.4043870270252228,0.6364908218383789
1771683729265050400,8.08405029296875,9.066405296325684,0.7154539823532104,0.5312066078186035
1771683729275410200,8.09441015625,10.454241752624512,2.641676187515259,0.5670989751815796
1771683729285765400,8.104765380859375,9.748359680175781,3.3332018852233887,-0.08135596662759781
1771683729296133600,8.115133544921875,8.949156761169434,0.4905286431312561,-0.9044869542121887
1771683729306480400,8.12548046875,9.559326171875,0.20338992774486542,-0.22013968229293823
1771683729316838000,8.135837890625,8.508877754211426,2.1918256282806396,0.7106683254241943
1771683729327195400,8.1461953125,11.519047737121582,3.4408788681030273,0.8805587291717529
1771683729337581000,8.1565810546875,8.334200859069824,1.031306505203247,0.8542376756668091
1771683729347910400,8.166910400390625,10.236495018005371,0.39960137009620667,-0.727418065071106
1771683729358274000,8.177274169921875,9.198010444641113,0.37088751792907715,0.16510476171970367
1771683729368651300,8.1876513671875,9.521040916442871,2.0338993072509766,0.14117653667926788
1771683729378997800,8.197997802734376,11.767901420593262,4.161118507385254,0.059820566326379776
1771683729389344300,8.20834423828125,7.606783390045166,1.8616160154342651,-0.5431707501411438
1771683729399721500,8.218721435546875,10.789237022399902,0.7896314859390259,-0.24885354936122894
1771683729410055400,8.229055419921876,7.410571575164795,0.3565305769443512,0.5264210104942322
1771683729420414500,8.23941455078125,12.07896900177002,2.8737800121307373,1.3423734903335571
1771683729430791700,8.249791748046874,9.698110580444336,2.823530673980713,0.14356936514377594
1771683729441138200,8.26013818359375,9.281759262084961,1.6319050788879395,-0.1579262912273407
1771683729451515100,8.27051513671875,9.956535339355469,0.26081767678260803,-0.6604190468788147
1771683729461862000,8.28086181640625,9.372686386108398,0.9858429431915283,0.22971096634864807
1771683729472208400,8.29120849609375,11.11466121673584,3.651447296142578,-0.040677983313798904
1771683729482558000,8.301557861328124,9.999606132507324,2.445464849472046,0.40677985548973083
1771683729492932000,8.31193212890625,8.310273170471191,0.1746760457754135,0.11964113265275955
1771683729503273000,8.32227294921875,9.078369140625,0.5144568681716919,0.02871387079358101
1771683729513655600,8.332655517578125,10.272387504577637,2.196611166000366,0.44027936458587646
1771683729523988000,8.342988037109375,10.50209903717041,3.7160534858703613,0.11006984114646912
1771683729534348800,8.353348876953126,8.767302513122559,1.1868400573730469,-0.41874396800994873
1771683729544703000,8.363702880859375,10.243673324584961,-0.28235307335853577,0.19142581522464752
1771683729555072500,8.374072509765625,9.521040916442871,0.275174617767334,0.8709874153137207
1771683729565418000,8.38441796875,11.547761917114258,3.696911096572876,0.064606212079525
1771683729575796000,8.3947958984375,8.846264839172363,2.799602508544922,0.5144568681716919
1771683729586133000,8.405133056640626,8.685946464538574,-0.031106693670153618,-0.2273181527853012
1771683729596519700,8.415519775390624,10.17428207397461,-0.12203395366668701,0.08614161610603333
1771683729606848000,8.425847900390625,10.427921295166016,2.9144580364227295,0.275174617767334
1771683729617213000,8.436212890625,11.169695854187012,3.428914785385132,0.14835500717163086
1771683729627563000,8.44656298828125,7.094718933105469,0.4618147611618042,0.25363919138908386
1771683729637936400,8.456936279296874,10.62413215637207,0.20099709928035736,0.14835500717163086
1771683729648278000,8.467278076171874,10.552348136901855,2.744567632675171,0.519242525100708
1771683729658660000,8.47766015625,11.140982627868652,3.2614171504974365,0.20817556977272034
1771683729668993300,8.4879931640625,10.186245918273926,1.4452649354934692,-0.7680960893630981
1771683729679353300,8.498353271484374,9.255437850952148,0.04307080805301666,0.12203395366668701
1771683729689708300,8.508708251953125,12.346964836120605,-0.3158525824546814,1.0480563640594482
1771683729700076800,8.519076904296876,9.664610862731934,2.5674986839294434,0.6604190468788147
1771683729710423300,8.52942333984375,9.875179290771484,2.816352367401123,0.2153540402650833
1771683729720800500,8.539800537109375,7.759923934936523,0.5527420043945312,0.4091726839542389
1771683729731138300,8.55013818359375,8.57348346710205,0.6747759580612183,0.48095735907554626
1771683729741524200,8.560524169921875,12.562318801879883,3.4552359580993652,0.7657032608985901
1771683729751870700,8.57087060546875,7.678567886352539,2.414358139038086,0.397208571434021
1771683729762210800,8.5812109375,8.499305725097656,0.4450650215148926,0.7345965504646301
1771683729772594400,8.591594482421876,11.01416301727295,0.09810572862625122,0.5814558863639832
1771683729782925800,8.60192578125,10.29870891571045,2.940778970718384,0.46899324655532837
1771683729793287700,8.61228759765625,10.39920711517334,2.7397818565368652,0.32542386651039124
1771683729803640800,8.622640869140625,8.157132148742676,0.4259224236011505,0.42831525206565857
1771683729814011100,8.63301123046875,8.37727165222168,0.11246266216039658,0.363709032535553
1771683729824355800,8.64335595703125,11.258230209350586,2.8283164501190186,1.1629117727279663
1771683729834734800,8.65373486328125,9.030512809753418,3.136990547180176,0.31345975399017334
1771683729845070800,8.66407080078125,7.566105365753174,0.8470591902732849,0.1746760457754135
1771683729855458600,8.67445849609375,10.322636604309082,0.45224347710609436,0.06699903309345245
1771683729865785900,8.684785888671875,11.035697937011719,2.0195422172546387,0.17228323221206665
1771683729876151600,8.695151611328125,11.420942306518555,3.22552490234375,0.2225325107574463
1771683729886500900,8.7055009765625,9.032905578613281,0.6005984544754028,-0.016749758273363113
1771683729896875300,8.715875244140625,10.241280555725098,0.3756731450557709,-0.12681959569454193
1771683729907216000,8.7262158203125,10.39920711517334,2.4095723628997803,0.2392822653055191
1771683729917599000,8.736598876953124,9.891928672790527,3.16331148147583,0.24167509377002716
1771683729927931000,8.746930908203124,7.501499176025391,1.0336993932724,0.1698904037475586
1771683729938292000,8.7572919921875,10.437492370605469,-0.040677983313798904,0.040677983313798904
1771683729948669200,8.767669189453125,10.827522277832031,2.218146562576294,0.2273181527853012
1771683729959015700,8.778015625,8.805587768554688,2.754138946533203,0.05742774158716202
1771683729969361000,8.78836083984375,9.870393753051758,1.155733346939087,-0.38763725757598877
1771683729979718400,8.798718505859375,10.296316146850586,0,-0.2225325107574463
1771683729990076000,8.809075927734375,10.293923377990723,1.5744773149490356,0.6939185857772827
1771683730000462800,8.819462890625,11.392229080200195,2.998206853866577,0.1459621787071228
1771683730010809600,8.8298095703125,7.759923934936523,0.8542376756668091,0.19621145725250244
1771683730021156000,8.840156005859376,9.542576789855957,-0.6197410821914673,0.6532405614852905
1771683730031533000,8.850532958984376,11.12901782989502,1.9262222051620483,0.8757730722427368
1771683730041879800,8.8608798828125,10.427921295166016,2.7326035499572754,0.6963114142417908
1771683730052226300,8.871226318359374,6.240481376647949,1.0217353105545044,-0.18424734473228455
1771683730062578400,8.881578369140625,13.5242338180542,-0.6005984544754028,0.17706887423992157
1771683730072950000,8.891949951171876,11.650653839111328,2.524427890777588,0.33738797903060913
1771683730083293700,8.902293701171875,8.901300430297852,2.4981069564819336,0.23210379481315613
1771683730093673500,8.912673583984375,8.24566650390625,0.6843472719192505,-0.5742774605751038
1771683730104008700,8.9230087890625,11.385049819946289,0.6125625967979431,-0.7178468108177185
1771683730114366700,8.93336669921875,8.599804878234863,2.801995277404785,-0.19381862878799438
1771683730124723700,8.9437236328125,10.171889305114746,2.4430718421936035,0.4570291340351105
1771683730135090400,8.95409033203125,9.449256896972656,0.22492532432079315,-0.059820566326379776
1771683730145438700,8.964438720703125,10.104889869689941,2.3018953800201416,-0.6915257573127747
1771683730155814000,8.97481396484375,8.85344409942627,2.737389087677002,0.28235307335853577
1771683730166153700,8.98515380859375,7.927421569824219,1.94297194480896,0.4331009089946747
1771683730176537600,8.99553759765625,10.612168312072754,0.6580262184143066,0.8662018179893494
1771683730186868700,9.00586865234375,10.317851066589355,3.1417760848999023,0.46899324655532837
1771683730197230800,9.01623095703125,9.789037704467773,2.3162522315979004,1.196411371231079
1771683730207583700,9.026583740234376,8.551948547363281,0.48095735907554626,0.7992027401924133
1771683730217954300,9.036954345703125,11.839686393737793,1.8137595653533936,0.15314064919948578
1771683730228298800,9.047298828125,9.681360244750977,2.5986053943634033,1.2658032178878784
1771683730238678000,9.057677978515626,7.501499176025391,0.698704183101654,0.7441678643226624
1771683730249013800,9.068013671875,11.066804885864258,0.009571290574967861,0.4259224236011505
1771683730259401700,9.078401611328125,11.24626636505127,3.0628130435943604,0.5407779216766357
1771683730269728800,9.088728759765624,8.504091262817383,2.7278177738189697,-0.0526420995593071
1771683730280094700,9.0990947265625,9.075976371765137,0.0023928226437419653,0.5790630578994751
1771683730290443800,9.10944384765625,11.655439376831055,1.674975872039795,0.8231309652328491
1771683730300818400,9.119818359375,10.346565246582031,2.785245656967163,0.5288137793540955
1771683730311165000,9.1301650390625,9.57607650756836,0.0526420995593071,0.9355936646461487
1771683730321542100,9.140542236328125,10.01874828338623,-0.08614161610603333,-0.4307080805301666
1771683730331888600,9.150888671875,10.535597801208496,3.1800613403320312,0.9690931439399719
1771683730342231300,9.161231201171875,10.346565246582031,2.761317253112793,1.0528420209884644
1771683730352612400,9.1716123046875,7.8795647621154785,-0.07417750358581543,1.1653046607971191
1771683730362946300,9.1819462890625,11.038090705871582,0.08135596662759781,1.00259268283844
1771683730373305300,9.192305419921874,9.578469276428223,2.368894338607788,1.2370892763137817
1771683730383661300,9.202661376953126,11.181660652160645,2.4047868251800537,1.1653046607971191
1771683730394029000,9.213029052734376,8.061419486999512,-0.38285163044929504,0.760917603969574
1771683730404376300,9.223376220703125,11.550154685974121,2.4335005283355713,0.4019941985607147
1771683730414752800,9.233752685546875,7.64028263092041,2.2229323387145996,0.4331009089946747
1771683730425091300,9.24409130859375,10.17428207397461,0.7082754969596863,0.09092725813388824
1771683730435476500,9.2544765625,9.559326171875,1.6558332443237305,0.19381862878799438
1771683730445806300,9.264806396484374,8.760123252868652,2.586641311645508,0.5790630578994751
1771683730456169500,9.27516943359375,8.051848411560059,0.6245267391204834,-0.05503492057323456
1771683730466521300,9.285521240234376,10.746166229248047,1.495514154434204,-0.5288137793540955
1771683730476893200,9.29589306640625,10.301101684570312,3.2231321334838867,0.26081767678260803
1771683730487236600,9.306236572265625,9.317651748657227,0.5886343717575073,-0.019142581149935722
1771683730497617000,9.316616943359374,9.846465110778809,-0.15553347766399384,1.2394821643829346
1771683730507951600,9.32695166015625,12.07179069519043,3.5126636028289795,-0.21774685382843018
1771683730518310000,9.337309814453125,7.977670669555664,2.337787628173828,1.576870083808899
1771683730528687000,9.34768701171875,9.506684303283691,0.02392822690308094,-0.6173482537269592
1771683730539033600,9.35803369140625,9.008976936340332,1.459621787071228,0.7178468108177185
1771683730549381600,9.368381591796876,11.030912399291992,4.225724697113037,0.07657032459974289
1771683730559757300,9.37875732421875,8.676374435424805,0.30628129839897156,0.3086741268634796
1771683730570103800,9.389103759765625,9.602396965026855,0.3086741268634796,-0.27038896083831787
1771683730580480800,9.399480712890625,11.760723114013672,3.0652058124542236,-0.09571290761232376
1771683730590827500,9.40982763671875,8.066205024719238,1.5672988891601562,0.12681959569454193
1771683730601174000,9.420174072265626,9.379864692687988,-0.35892340540885925,0.17228323221206665
1771683730611551000,9.430551025390624,12.471391677856445,2.6297121047973633,0.5838487148284912
1771683730621897700,9.440897705078125,8.00638484954834,2.4095723628997803,0.729810893535614
1771683730632244200,9.451244140625,10.51645565032959,-0.21296121180057526,-0.5024927258491516
1771683730642599200,9.46159912109375,10.547562599182129,1.00259268283844,0.31345975399017334
1771683730652968000,9.471968017578124,10.193424224853516,3.476771354675293,-0.35413774847984314
1771683730663314200,9.482314208984375,10.001998901367188,0.8685946464538574,0.019142581149935722
1771683730673691400,9.49269140625,8.001599311828613,-0.2584248483181,-0.4498506486415863
1771683730684029200,9.503029296875,11.734402656555176,2.6943182945251465,-0.8805587291717529
1771683730694415000,9.5134150390625,8.602197647094727,0.5670989751815796,0.605384111404419
1771683730704744200,9.523744140625,11.47119140625,-0.5120640397071838,0.08614161610603333
1771683730715108400,9.5341083984375,10.822736740112305,1.4572290182113647,0.8231309652328491
1771683730725459200,9.544459228515626,10.822736740112305,1.5122638940811157,-0.0526420995593071
1771683730735816700,9.554816650390626,8.394021987915039,-0.06699903309345245,-0.42831525206565857
1771683730746174200,9.56517431640625,9.061619758605957,1.495514154434204,-0.6891329288482666
1771683730756555500,9.575555419921875,10.50209903717041,3.1657042503356934,0.9212366938591003
1771683730766889200,9.58588916015625,8.047062873840332,0.007178467698395252,0.18903298676013947
1771683730777248800,9.596248779296875,10.75813102722168,1.2394821643829346,-0.05024927482008934
1771683730787604200,9.606604248046875,10.588240623474121,2.342573404312134,0.7106683254241943
1771683730797972200,9.61697216796875,9.355937004089355,-0.02392822690308094,-0.672383189201355
1771683730808319200,9.6273193359375,11.526226997375488,1.5314065217971802,0.8805587291717529
1771683730818696000,9.637696044921874,9.734002113342285,3.1178479194641113,-0.8925228714942932
1771683730829034200,9.6480341796875,7.688138961791992,-0.14117653667926788,1.4859428405761719
1771683730839419600,9.658419677734376,10.49970531463623,1.2538390159606934,-0.7106683254241943
1771683730849749200,9.668749267578125,9.970891952514648,2.8139593601226807,1.1437692642211914
1771683730860112600,9.679112548828124,8.571090698242188,-0.06939185410737991,0.42352959513664246
1771683730870464300,9.68946435546875,10.939985275268555,2.964707374572754,-0.08135596662759781
1771683730880836400,9.69983642578125,9.803394317626953,3.404986619949341,0.2727817893028259
1771683730891182800,9.710182861328125,6.776473522186279,-0.1052841991186142,0.7848458290100098
1771683730901560000,9.72056005859375,12.32542896270752,0.7226324677467346,1.2083754539489746
1771683730911906600,9.730906494140624,10.511670112609863,3.5054850578308105,-0.009571290574967861
1771683730922252000,9.741251953125,7.6498541831970215,1.9908283948898315,0.8662018179893494
1771683730932630300,9.75163037109375,10.315458297729492,-0.15314064919948578,0.5000999569892883
1771683730942967000,9.761967041015625,11.45683479309082,3.084348440170288,0.4139583110809326
1771683730953354000,9.77235400390625,7.362715244293213,2.0554347038269043,0.349352091550827
1771683730963682000,9.78268212890625,7.389036178588867,0.7872386574745178,0.8231309652328491
1771683730974047000,9.793046875,12.820743560791016,2.5603201389312744,0.6771687865257263
1771683730984397000,9.80339697265625,6.798008918762207,2.6727828979492188,-0.5575276613235474
1771683730994770700,9.813770751953125,11.23908805847168,0.8327022790908813,0.9834501147270203
1771683731005112000,9.824112060546875,12.004791259765625,0.19142581522464752,0.7992027401924133
1771683731015494400,9.834494384765625,9.554540634155273,2.7110681533813477,0.2105683982372284
1771683731025827000,9.8448271484375,10.236495018005371,1.6103696823120117,0.09571290761232376
1771683731036187400,9.8551875,9.765109062194824,2.0889341831207275,1.97407865524292
1771683731046542000,9.8655419921875,8.01356315612793,1.820937991142273,1.4715858697891235
1771683731056911000,9.8759111328125,10.786844253540039,1.1629117727279663,1.5744773149490356
1771683731067257000,9.886257080078124,11.68893814086914,2.455035924911499,0.6891329288482666
1771683731077634800,9.896634765625,8.293522834777832,1.098305583000183,0.14117653667926788
1771683731087972000,9.90697216796875,11.143375396728516,1.545763373374939,0.9643075466156006
1771683731098358300,9.917358154296876,11.485548973083496,1.9764715433120728,-0.27756741642951965
1771683731108705000,9.927705078125,4.130012035369873,1.2634103298187256,0.5886343717575073
1771683731119051500,9.938051513671875,11.861222267150879,2.3401806354522705,1.765903115272522
1771683731129402000,9.948402099609375,8.937192916870117,1.7587246894836426,0.1746760457754135
1771683731139775200,9.958775146484374,8.188239097595215,2.4287149906158447,1.0911271572113037
1771683731150117000,9.9691171875,11.157732009887695,0.5024927258491516,0.1579262912273407
1771683731160498700,9.979498779296875,10.593026161193848,3.541377544403076,0.6843472719192505
1771683731170845400,9.989845458984375,3.7782669067382812,1.3830515146255493,0.37806597352027893
1771683731181192000,10.00019189453125,15.948163032531738,0.5647061467170715,-0.727418065071106
1771683731191569000,10.01056884765625,9.76989459991455,3.2853455543518066,0.8997012972831726
1771683731201915600,10.02091552734375,5.223531723022461,0.5982056856155396,0.035892341285943985
1771683731212292600,10.031292724609376,16.019947052001953,0.6029912829399109,-0.6963114142417908
1771683731222619600,10.04161962890625,8.530412673950195,2.7637102603912354,1.2729816436767578
1771683731232977200,10.05197705078125,7.860422611236572,0.9762716293334961,0.28953152894973755
1771683731243334700,10.062334716796874,13.141382217407227,1.098305583000183,-0.31345975399017334
1771683731253709300,10.072709228515626,8.511270523071289,2.8905298709869385,-0.2392822653055191
1771683731264049700,10.083049560546876,6.003592014312744,0.8470591902732849,0.28953152894973755
1771683731274433000,10.09343310546875,16.386049270629883,1.4452649354934692,-0.8135597109794617
1771683731284764700,10.1037646484375,5.13021183013916,1.0528420209884644,-0.11724831163883209
1771683731295126300,10.114126220703126,14.947962760925293,2.579462766647339,-0.849452018737793
1771683731305480000,10.12447998046875,10.688738822937012,1.550549030303955,0.9403793215751648
1771683731315849700,10.134849609375,8.975478172302246,1.423729419708252,0.05742774158716202
1771683731326195000,10.14519482421875,10.490134239196777,0.6317051649093628,0.12442677468061447
1771683731336573400,10.155573486328125,10.040284156799316,1.97407865524292,-0.3278166949748993
1771683731346910000,10.165909912109376,7.465606689453125,2.4502503871917725,-0.6101697683334351
1771683731357297200,10.176297119140624,12.937992095947266,2.541177749633789,0.6293123364448547
1771683731367625000,10.186625,8.37009334564209,0.4785645306110382,0.42352959513664246
1771683731377990100,10.196990234375,11.801401138305664,0.17946170270442963,-0.0933200865983963
1771683731388340000,10.207340087890625,13.129417419433594,3.3164522647857666,0.08614161610603333
1771683731398713900,10.2177138671875,8.827122688293457,2.517249345779419,1.3399807214736938
1771683731409055000,10.228054931640624,10.102497100830078,0.02871387079358101,-0.48574298620224
1771683731419437600,10.2384375,10.49252700805664,2.53399920463562,-0.5216353535652161
1771683731429770000,10.24877001953125,7.9728851318359375,0.5096712112426758,0.1866401731967926
1771683731440130600,10.259130615234374,12.370893478393555,2.778067111968994,-0.9236295223236084
1771683731450485000,10.269485107421875,9.585647583007812,3.672982692718506,-0.26081767678260803
1771683731460854300,10.279854248046876,4.390829563140869,0.7585247755050659,0.363709032535553
1771683731471200800,10.29020068359375,12.17946720123291,1.2490534782409668,-0.24406790733337402
1771683731481557500,10.3005576171875,6.922435760498047,2.9144580364227295,0.8350951075553894
1771683731491924500,10.310924560546875,12.492926597595215,3.342773199081421,-0.040677983313798904
1771683731502272500,10.3212724609375,10.470992088317871,1.7060825824737549,1.3782658576965332
1771683731512648200,10.331648193359374,7.018148899078369,1.3232308626174927,0.5455635786056519
1771683731522987500,10.341987548828126,9.107083320617676,3.081955671310425,0.6747759580612183
1771683731533372000,10.352371826171876,8.109275817871094,2.383251428604126,0.8063812255859375
1771683731543702500,10.36270263671875,4.634897232055664,0.4450650215148926,-0.34217363595962524
1771683731554065000,10.37306494140625,15.610774993896484,4.386044025421143,-0.4666004180908203
1771683731564417500,10.38341748046875,4.656432628631592,1.2586246728897095,0.7250252366065979
1771683731574788600,10.39378857421875,13.971691131591797,0.4043870270252228,1.6199408769607544
1771683731585132500,10.404132568359374,8.535198211669922,2.926422119140625,1.2275179624557495
1771683731595512300,10.41451220703125,7.018148899078369,2.1439690589904785,1.2059825658798218
1771683731605847600,10.42484765625,13.658231735229492,2.746960401535034,1.828116536140442
1771683731616205300,10.435205322265626,8.441878318786621,1.5672988891601562,0.8207381963729858
1771683731626562600,10.4455625,7.657032489776611,0.7154539823532104,0.8757730722427368
1771683731636929000,10.455928955078125,15.713665962219238,3.060420274734497,1.4620146751403809
1771683731647277600,10.466277587890625,5.7547383308410645,1.7060825824737549,0.2153540402650833
1771683731657652700,10.47665283203125,14.074583053588867,1.8185452222824097,-0.4091726839542389
1771683731667992800,10.486992919921875,7.635497093200684,1.179661512374878,0.3732803463935852
1771683731678376200,10.497376220703124,9.181260108947754,2.5698914527893066,0.6675975322723389
1771683731688723000,10.507722900390625,13.811372756958008,2.7397818565368652,1.2921242713928223
1771683731699069400,10.5180693359375,6.845865726470947,1.4141582250595093,0.8781659007072449
1771683731709422600,10.528422607421875,14.81396484375,1.5098711252212524,0.062213387340307236
1771683731719793200,10.538793212890624,8.965906143188477,1.4715858697891235,1.153340458869934
1771683731730137900,10.549137939453125,8.788837432861328,1.3758729696273804,-0.16749759018421173
1771683731740516600,10.5595166015625,14.665610313415527,3.9361932277679443,-0.035892341285943985
1771683731750863400,10.56986328125,4.66361141204834,1.0480563640594482,0.32542386651039124
1771683731761240300,10.580240234375,13.009777069091797,1.947757601737976,0.4666004180908203
1771683731771586800,10.5905869140625,7.920242786407471,3.06999135017395,0.3038884699344635
1771683731781925400,10.60092529296875,8.21695327758789,2.383251428604126,0.20099709928035736
1771683731792310500,10.611310546875,13.696516990661621,2.7014968395233154,-1.0863415002822876
1771683731802640400,10.621640380859375,6.226124286651611,0.8207381963729858,0.8327022790908813
1771683731813003800,10.632003662109375,13.194024085998535,3.4169507026672363,0.3278166949748993
1771683731823355400,10.64235546875,7.09711217880249,2.823530673980713,-0.5000999569892883
1771683731833727200,10.652727294921876,8.518448829650879,0.8662018179893494,-0.380458801984787
1771683731844070400,10.6630703125,12.959527015686035,2.3569302558898926,0.38285163044929504
1771683731854451000,10.673450927734375,5.496313571929932,2.3090739250183105,-0.1698904037475586
1771683731864785400,10.683785400390626,13.277772903442383,3.6705899238586426,-1.0600204467773438
1771683731875144200,10.694144287109374,7.058826923370361,0.6939185857772827,-0.6436693072319031
1771683731885500400,10.70450048828125,8.02791976928711,1.0959128141403198,0.2392822653055191
1771683731895867600,10.71486767578125,15.029318809509277,4.0319061279296875,0.4426721930503845
1771683731906215400,10.72521533203125,3.589233875274658,0.35892340540885925,0.23449662327766418
1771683731916591400,10.73559130859375,16.180267333984375,-0.2153540402650833,0.8470591902732849
1771683731926930400,10.745930419921875,8.83669376373291,2.6799614429473877,0.8446664214134216
1771683731937315000,10.756315185546875,9.997213363647461,2.744567632675171,-0.7848458290100098
1771683731947645400,10.7666455078125,11.2247314453125,0.8255237936973572,-0.20817556977272034
1771683731958008000,10.777008056640625,7.063612461090088,-0.1698904037475586,0.7393822073936462
1771683731968360400,10.7873603515625,12.945170402526855,3.012563705444336,-0.349352091550827
1771683731978731800,10.797731689453125,4.254438877105713,1.8640087842941284,0.5120640397071838
1771683731989075500,10.808075439453125,11.693724632263184,1.6175481081008911,-0.607776939868927
1771683731999455500,10.81845556640625,8.72901725769043,2.0578274726867676,0.33738797903060913
1771683732009790500,10.82879052734375,11.952149391174316,3.5988051891326904,0.9236295223236084
1771683732020148500,10.8391484375,7.70967435836792,0.6580262184143066,-0.1339980661869049
1771683732030505500,10.84950537109375,9.511469841003418,1.2634103298187256,0.6532405614852905
1771683732040872200,10.8598720703125,11.94736385345459,2.974278450012207,1.9980069398880005
1771683732051249400,10.87024951171875,5.489135265350342,0.9260223507881165,0.07417750358581543
1771683732061596000,10.880595947265626,13.234702110290527,2.366501569747925,-0.9092726111412048
1771683732071942400,10.8909423828125,6.606583118438721,2.342573404312134,0.5407779216766357
1771683732082293000,10.90129296875,9.17886734008789,2.289931297302246,1.057627558708191
1771683732092666000,10.911666015625,8.927620887756348,2.179861545562744,0.8662018179893494
1771683732103008000,10.922008056640625,6.843472957611084,2.03629207611084,0.8901300430297852
1771683732113389800,10.932389892578126,13.660624504089355,2.7565317153930664,0.8877372145652771
1771683732123723000,10.942722900390624,6.604190349578857,0.8422735929489136,0.8255237936973572
1771683732134082800,10.953082763671874,13.351950645446777,2.895315408706665,-0.10049854964017868
1771683732144438300,10.963438232421876,6.262016773223877,1.9022940397262573,0.605384111404419
1771683732154806500,10.973806640625,10.74855899810791,1.2634103298187256,0.5718846321105957
1771683732165153300,10.9841533203125,9.734002113342285,2.4526431560516357,0.8949156403541565
1771683732175530200,10.9945302734375,7.250252723693848,0.7489534616470337,0.7082754969596863
1771683732185868300,11.004868408203125,11.12901782989502,2.6321048736572266,1.7419748306274414
1771683732196253700,11.015253662109375,7.936992645263672,1.545763373374939,1.6223337650299072
1771683732206583300,11.025583251953124,12.045469284057617,1.9525432586669922,0.8925228714942932
1771683732216947000,11.035947021484375,8.662017822265625,0.7800601720809937,1.1892328262329102
1771683732227298300,11.04629833984375,11.732009887695312,2.6608188152313232,0.7010970115661621
1771683732237670700,11.056670654296875,9.755537986755371,1.576870083808899,1.3256237506866455
1771683732248013300,11.067013427734375,7.903493404388428,1.1820544004440308,0.26081767678260803
1771683732258394000,11.07739404296875,12.394821166992188,2.311466693878174,1.4931213855743408
1771683732268740900,11.087740966796876,8.405985832214355,1.275374412536621,1.6606189012527466
1771683732279087400,11.09808740234375,11.499905586242676,2.093719720840454,0.2967100143432617
1771683732289443300,11.108443359375,10.01156997680664,2.148754835128784,1.5984054803848267
1771683732299811000,11.11881103515625,9.480362892150879,0.23688943684101105,1.098305583000183
1771683732310158300,11.129158447265626,9.360722541809082,2.2468605041503906,1.2562319040298462
1771683732320534500,11.139534423828126,12.617353439331055,2.66560435295105,1.1676974296569824
1771683732330881300,11.14988134765625,8.630910873413086,1.2658032178878784,1.0217353105545044
1771683732341258200,11.16025830078125,11.789437294006348,2.014756679534912,-0.04307080805301666
1771683732351604700,11.170604736328125,8.427521705627441,2.256431818008423,1.1653046607971191
1771683732361945900,11.18094580078125,10.636096954345703,1.9310078620910645,0.2225325107574463
1771683732372328400,11.191328369140624,8.422736167907715,0.7824530005455017,1.0959128141403198
1771683732382660900,11.201660888671874,11.315658569335938,2.423929452896118,0.12442677468061447
1771683732393021700,11.212021728515625,10.88973617553711,2.4502503871917725,1.5960127115249634
1771683732403375900,11.2223759765625,7.211967468261719,0.2727817893028259,-0.1459621787071228
1771683732413745200,11.2327451171875,14.23011589050293,1.4404792785644531,-0.3924229145050049
1771683732424091000,11.2430908203125,7.295716285705566,2.342573404312134,0.5144568681716919
1771683732434468900,11.25346875,12.799208641052246,1.4333007335662842,-0.8662018179893494
1771683732444806000,11.263805908203125,7.963313579559326,1.9094724655151367,0.40677985548973083
1771683732455192600,11.274192626953125,11.164910316467285,3.081955671310425,-0.23688943684101105
1771683732465521000,11.28452099609375,8.563912391662598,1.0121639966964722,1.5122638940811157
1771683732475885600,11.294885498046876,12.028719902038574,1.7563318014144897,1.5409778356552124
1771683732486236000,11.30523583984375,9.073583602905273,0.9260223507881165,-1.0600204467773438
1771683732496609300,11.315609375,12.447463035583496,2.9718856811523438,0.016749758273363113
1771683732506951000,11.325950927734375,10.724631309509277,1.074377417564392,-0.27038896083831787
1771683732517333000,11.3363330078125,6.58265495300293,0.9882357716560364,-0.2727817893028259
1771683732527666000,11.346666015625,14.203795433044434,3.050848960876465,-1.4141582250595093
1771683732538026000,11.35702587890625,4.082155227661133,1.0217353105545044,0.5216353535652161
1771683732548381000,11.367380859375,15.443277359008789,2.5746772289276123,-0.28235307335853577
1771683732558749700,11.377749755859375,5.986842155456543,2.407179594039917,-0.040677983313798904
1771683732569096000,11.388095947265626,11.803793907165527,1.8735800981521606,0.5407779216766357
1771683732579473400,11.398473388671874,9.834501266479492,1.129412293434143,1.3471591472625732
1771683732589811200,11.408811279296875,11.148160934448242,3.208775281906128,-0.2799602448940277
1771683732600197000,11.419197021484376,7.75753116607666,1.007378339767456,0.04307080805301666
1771683732610526200,11.429526123046875,9.817750930786133,0.6197410821914673,1.368694543838501
1771683732620890000,11.43989013671875,8.161917686462402,3.280559778213501,-0.16031911969184875
1771683732631267300,11.450267333984375,8.403593063354492,3.0101709365844727,-0.4546363055706024
1771683732641613800,11.46061376953125,7.8077802658081055,0.672383189201355,0.2225325107574463
1771683732651960300,11.470960205078125,9.839286804199219,3.7974095344543457,2.65842604637146
1771683732662313700,11.481313720703126,8.080561637878418,2.266003131866455,-0.8709874153137207
1771683732672684000,11.49168408203125,9.281759262084961,1.0839486122131348,1.7826528549194336
1771683732683028700,11.50202880859375,12.208181381225586,1.5936198234558105,-0.8877372145652771
1771683732693407700,11.51240771484375,11.918649673461914,3.87876558303833,-0.08853443711996078
1771683732703743700,11.52274365234375,8.80798053741455,1.9310078620910645,0.4618147611618042
1771683732714101200,11.533101318359375,6.367300987243652,1.1030912399291992,1.4069796800613403
1771683732724458800,11.543458740234374,16.206586837768555,3.634697675704956,-0.22013968229293823
1771683732734816300,11.553816162109374,4.060619831085205,2.0410776138305664,1.2035897970199585
1771683732745173800,11.564173828125,11.82293701171875,1.4644074440002441,0.7202396392822266
1771683732755531300,11.57453125,8.523234367370605,1.7252250909805298,0.885344386100769
1771683732765888800,11.584888671875,11.81336498260498,2.0745773315429688,-0.9188438653945923
1771683732776246300,11.595246337890625,10.490134239196777,2.234896421432495,-1.3950155973434448
1771683732786603800,11.605603759765625,11.444870948791504,1.5194423198699951,-0.34695929288864136
1771683732796961300,11.615961181640625,9.265008926391602,3.5030922889709473,-0.44745782017707825
1771683732807318800,11.62631884765625,10.188638687133789,1.2562319040298462,0.17228323221206665
1771683732817676300,11.63667626953125,9.013762474060059,1.1988041400909424,2.029113531112671
1771683732828033800,11.64703369140625,10.671989440917969,3.4025938510894775,0.9332008361816406
1771683732838391300,11.657391357421876,8.549555778503418,1.0911271572113037,-0.48095735907554626
1771683732848748800,11.667748779296875,12.308679580688477,1.8640087842941284,-0.30149564146995544
1771683732859106300,11.678106201171875,8.908478736877441,1.3160524368286133,-0.5838487148284912
1771683732869463800,11.6884638671875,14.34018611907959,2.785245656967163,0.15074782073497772
1771683732879821300,11.6988212890625,7.417750358581543,1.2370892763137817,-0.09092725813388824
1771683732890178800,11.7091787109375,15.41934871673584,0.33020952343940735,1.5337992906570435
1771683732900536300,11.719536376953124,8.913264274597168,3.115455150604248,1.2418749332427979
1771683732910893800,11.729893798828124,7.551748275756836,1.7850457429885864,-0.19621145725250244
1771683732921251300,11.740251220703126,6.2428741455078125,1.1724830865859985,1.0815558433532715
1771683732931608800,11.75060888671875,9.91107177734375,2.438286304473877,0.576670229434967
1771683732941966300,11.76096630859375,11.322836875915527,2.3808584213256836,0.9332008361816406
1771683732952323800,11.77132373046875,11.069197654724121,0.19381862878799438,1.6319050788879395
1771683732962681300,11.781681396484375,9.779465675354004,2.014756679534912,0.11724831163883209
1771683732973038800,11.792038818359375,10.37767219543457,2.407179594039917,0.4091726839542389
1771683732983396400,11.802396240234375,9.272188186645508,0.885344386100769,0.5790630578994751
1771683732993753900,11.81275390625,9.059226989746094,0.8327022790908813,2.2755744457244873
1771683733004111400,11.823111328125,10.435099601745605,3.1106693744659424,0.23449662327766418
1771683733014468900,11.83346875,7.456035137176514,1.5672988891601562,-0.4546363055706024
1771683733024826400,11.843826416015625,7.999206066131592,1.6175481081008911,1.4763715267181396
1771683733035183900,11.854183837890625,11.12901782989502,2.4191436767578125,0.19381862878799438
1771683733045541400,11.864541259765625,8.532805442810059,2.4765713214874268,-0.9978070259094238
1771683733055899100,11.874899169921875,10.578668594360352,1.0504491329193115,-0.24167509377002716
1771683733066256400,11.88525634765625,9.262616157531738,1.2323036193847656,0.8279166221618652
1771683733076614000,11.89561376953125,10.97587776184082,3.108276605606079,0.19142581522464752
1771683733086971400,11.905971435546874,6.597012042999268,0.40677985548973083,0.9260223507881165
1771683733097329000,11.916328857421876,9.037691116333008,1.2370892763137817,1.0600204467773438
1771683733107686400,11.926686279296876,10.336994171142578,3.6849467754364014,-2.4191436767578125
1771683733118044200,11.937044189453125,6.2668023109436035,0.6029912829399109,0.05503492057323456
1771683733128401700,11.947401611328125,11.633903503417969,2.744567632675171,-0.4666004180908203
1771683733138759200,11.95775927734375,8.173882484436035,2.7804598808288574,1.00259268283844
1771683733149116700,11.96811669921875,10.133604049682617,2.0578274726867676,-0.3086741268634796
1771683733159474200,11.97847412109375,7.456035137176514,0.3924229145050049,0.41874396800994873
1771683733169831700,11.988831787109374,14.155939102172852,3.304488182067871,0.3158525824546814
1771683733180189200,11.999189208984374,6.673582553863525,2.7828526496887207,-0.3684946894645691
1771683733190546700,12.009546630859376,9.681360244750977,1.0767701864242554,-1.0719845294952393
1771683733200904200,12.019904296875,8.274380683898926,3.0245277881622314,0.9882357716560364
1771683733211261700,12.03026171875,11.162517547607422,3.1441688537597656,1.5002998113632202
1771683733221619200,12.040619140625,7.9728851318359375,2.9216363430023193,0.36610186100006104
1771683733231976700,12.050976806640625,9.937392234802246,2.179861545562744,1.277767300605774
1771683733242334200,12.061334228515625,6.620940208435059,0.6532405614852905,-0.07417750358581543
1771683733252691700,12.071691650390624,11.34676456451416,1.7467604875564575,0.20099709928035736
1771683733263049200,12.08204931640625,9.841679573059082,1.7539390325546265,-0.13639089465141296
1771683733273406700,12.09240673828125,10.528419494628906,2.8905298709869385,1.0097711086273193
1771683733283764200,12.10276416015625,9.4061861038208,1.3399807214736938,1.5337992906570435
1771683733294121700,12.113121826171875,10.999805450439453,1.0336993932724,1.160519003868103
1771683733304479200,12.123479248046875,5.278566837310791,2.1056840419769287,0.6269195079803467
1771683733314836700,12.133836669921875,9.949356079101562,2.4119651317596436,0.29431718587875366
1771683733325194200,12.1441943359375,8.858229637145996,1.6893328428268433,1.4859428405761719
1771683733335551700,12.1545517578125,10.676774978637695,1.1700903177261353,0.9547362327575684
1771683733345909200,12.1649091796875,11.82293701171875,1.3040883541107178,0.7537391185760498
1771683733356266800,12.175266845703124,10.334601402282715,2.1056840419769287,1.1868400573730469
1771683733366624300,12.185624267578126,11.784651756286621,1.7443677186965942,2.0410776138305664
1771683733376981800,12.195981689453125,7.032505512237549,1.770688772201538,1.0863415002822876
1771683733387339300,12.20633935546875,7.152146816253662,0.6101697683334351,-0.3038884699344635
1771683733397696800,12.21669677734375,11.490334510803223,2.809173822402954,-0.05024927482008934
1771683733408054300,12.22705419921875,10.370492935180664,3.043670415878296,-0.28235307335853577
1771683733418411800,12.237411865234375,8.044670104980469,0.27756741642951965,0.31345975399017334
1771683733428769300,12.247769287109374,11.265409469604492,0.641276478767395,1.100698471069336
1771683733439126800,12.258126708984374,16.02712631225586,3.7806596755981445,0.009571290574967861
1771683733449484300,12.268484375,4.701896667480469,0.914058268070221,-0.605384111404419
1771683733459841800,12.278841796875,16.11087417602539,0.8374879360198975,-0.3732803463935852
1771683733470199300,12.28919921875,6.58265495300293,1.0265209674835205,0.06939185410737991
1771683733480556800,12.299556884765625,11.519047737121582,2.6464617252349854,0.9236295223236084
1771683733490914300,12.309914306640625,4.036691665649414,1.8711873292922974,-0.03349951654672623
1771683733501271800,12.320271728515625,11.820544242858887,1.832902193069458,1.9094724655151367
1771683733511629300,12.33062939453125,9.779465675354004,3.4911282062530518,-2.0578274726867676
1771683733521986800,12.34098681640625,10.195816993713379,0.5623133182525635,-0.9571290612220764
1771683733532344300,12.35134423828125,12.361321449279785,1.2442678213119507,-0.7776673436164856
1771683733542701800,12.361701904296876,10.75813102722168,2.4741785526275635,1.4404792785644531
1771683733553059300,12.372059326171875,-0.36610186100006104,0.638883650302887,-0.014356935396790504
1771683733563416800,12.382416748046875,11.093125343322754,1.6271194219589233,2.469393014907837
1771683733573774300,12.3927744140625,10.097711563110352,3.8979079723358154,0.14117653667926788
1771683733584131800,12.4031318359375,12.251252174377441,0.9690931439399719,0.5527420043945312
1771683733594489300,12.4134892578125,10.504491806030273,1.3615161180496216,-0.8398807644844055
1771683733604846800,12.423846923828124,13.627124786376953,2.526820659637451,-0.34695929288864136
1771683733615204400,12.434204345703124,6.290730953216553,0.9427721500396729,-0.8446664214134216
1771683733625561900,12.444561767578126,5.07517671585083,0.8973084688186646,-0.10767702013254166
1771683733635919400,12.45491943359375,11.626725196838379,2.3473589420318604,0.3038884699344635
1771683733646276900,12.46527685546875,11.030912399291992,3.1585259437561035,-0.4546363055706024
1771683733656634400,12.47563427734375,10.076175689697266,1.947757601737976,0.6269195079803467
1771683733666991900,12.485991943359375,12.906885147094727,0.5168496966362,0.33738797903060913
1771683733677349400,12.496349365234375,12.224930763244629,1.8951154947280884,1.8496519327163696
1771683733687707000,12.506706787109374,11.437692642211914,1.495514154434204,-0.4618147611618042
1771683733698064400,12.517064453125,9.578469276428223,0.8159525394439697,-1.2346965074539185
1771683733708422000,12.527421875,10.884950637817383,3.177668571472168,0.05742774158716202
1771683733718779600,12.537779541015626,5.903093338012695,2.163111686706543,0.24167509377002716
1771683733729137200,12.54813720703125,12.401999473571777,2.5531418323516846,2.3162522315979004
1771683733739494700,12.55849462890625,9.449256896972656,2.172683000564575,-0.8709874153137207
1771683733749852000,12.568851806640625,10.973484992980957,1.545763373374939,-0.727418065071106
1771683733760209400,12.57920947265625,14.120046615600586,3.9864425659179688,-0.8757730722427368
1771683733770567000,12.58956689453125,5.529813289642334,0.8662018179893494,-0.3038884699344635
1771683733780924400,12.59992431640625,11.097911834716797,2.967100143432617,0.5264210104942322
1771683733791282200,12.6102822265625,7.898707389831543,2.478964328765869,0.9667003750801086
1771683733801639700,12.6206396484375,12.282358169555664,3.1417760848999023,1.8544375896453857
1771683733811997200,12.6309970703125,4.697110652923584,0.7034898400306702,-0.43549370765686035
1771683733822354700,12.641354736328125,10.171889305114746,3.170490026473999,-0.5527420043945312
1771683733832712200,12.651712158203125,6.955935478210449,2.7182464599609375,-0.20099709928035736
1771683733843069700,12.662069580078125,6.951149940490723,1.2729816436767578,0.275174617767334
1771683733853427200,12.67242724609375,13.658231735229492,1.852044701576233,0.24646073579788208
1771683733863784700,12.68278466796875,10.176674842834473,1.9597218036651611,2.486142635345459
1771683733874142200,12.69314208984375,8.827122688293457,2.445464849472046,0.7680960893630981
1771683733884499700,12.703499755859376,14.100903511047363,3.1417760848999023,-0.13160525262355804
1771683733894857200,12.713857177734376,3.6849467754364014,1.6462619304656982,0.038285162299871445
1771683733905214700,12.724214599609375,11.167303085327148,2.8737800121307373,-1.5026925802230835
1771683733915572200,12.734572265625,8.499305725097656,1.3854442834854126,0.6340979933738708
1771683733925929700,12.7449296875,10.794022560119629,2.359323024749756,-0.5431707501411438
1771683733936287200,12.755287353515625,11.093125343322754,2.8761727809906006,0.397208571434021
1771683733946644700,12.765644775390625,10.490134239196777,0.6747759580612183,1.8616160154342651
1771683733957002200,12.776002197265624,11.028519630432129,2.8043880462646484,0.16031911969184875
1771683733967359700,12.78635986328125,8.331808090209961,0.9810572862625122,0.6891329288482666
1771683733977717200,12.79671728515625,8.0350980758667,1.397408366203308,-0.5048855543136597
1771683733988074800,12.80707470703125,12.30389404296875,3.8356947898864746,0.42831525206565857
1771683733998432300,12.817432373046875,9.006584167480469,1.6079767942428589,0.2967100143432617
1771683734008789800,12.827789794921875,9.798608779907227,1.3208380937576294,0.7680960893630981
1771683734019147300,12.838147216796875,12.629318237304688,2.060220241546631,-0.2727817893028259
1771683734029504800,12.8485048828125,10.76530933380127,3.2350962162017822,0.14356936514377594
1771683734039862300,12.8588623046875,9.66939640045166,1.2442678213119507,0.5216353535652161
1771683734050219800,12.8692197265625,8.319844245910645,0.9906286001205444,1.588834285736084
1771683734060577300,12.879577392578126,10.85862922668457,2.2205393314361572,0.4618147611618042
1771683734070934800,12.889934814453126,8.623732566833496,2.6249263286590576,0.42831525206565857
1771683734081292300,12.900292236328125,11.181660652160645,1.7324036359786987,0.9379864931106567
1771683734091649800,12.91064990234375,9.511469841003418,2.3234307765960693,-0.97148597240448
1771683734102007300,12.92100732421875,9.875179290771484,0.7082754969596863,1.1030912399291992
1771683734112364800,12.93136474609375,10.006784439086914,0.9475577473640442,0.5479564070701599
1771683734122722300,12.941722412109375,10.17428207397461,3.1800613403320312,-0.28235307335853577
1771683734133079800,12.952079833984374,8.810373306274414,1.8687944412231445,1.6390835046768188
1771683734143437300,12.962437255859374,12.985848426818848,3.1585259437561035,0.9786644577980042
1771683734153794800,12.972794921875,6.98704195022583,1.9956140518188477,0.5479564070701599
1771683734164152300,12.98315234375,11.042876243591309,2.060220241546631,1.1629117727279663
1771683734174509800,12.993509765625,8.228917121887207,1.459621787071228,-0.8566305041313171
1771683734184867300,13.003867431640625,9.399007797241211,2.801995277404785,1.4620146751403809
1771683734195224800,13.014224853515625,7.613961696624756,1.94297194480896,0.4139583110809326
1771683734205582300,13.024582275390625,9.073583602905273,2.9383862018585205,0.5718846321105957
1771683734215939800,13.03493994140625,10.49252700805664,2.5148565769195557,0.8183453679084778
1771683734226297300,13.04529736328125,7.824530124664307,0.5120640397071838,0.2727817893028259
1771683734236654800,13.05565478515625,11.684152603149414,1.435693621635437,0.4713860750198364
1771683734247012400,13.066012451171876,9.765109062194824,2.493321180343628,1.7060825824737549
1771683734257369900,13.076369873046875,11.432906150817871,3.1202406883239746,-0.04785645380616188
1771683734267727400,13.086727294921875,7.128218650817871,1.8137595653533936,0.8542376756668091
1771683734278084900,13.0970849609375,9.257830619812012,2.2301106452941895,1.2849457263946533
1771683734288442400,13.1074423828125,8.48734188079834,2.3018953800201416,0.17706887423992157
1771683734298799900,13.1177998046875,11.858829498291016,3.263810157775879,0.45942193269729614
1771683734309157400,13.128157470703124,11.308480262756348,1.2610175609588623,-0.363709032535553
1771683734319515000,13.138514892578126,8.781659126281738,0.4546363055706024,1.4021940231323242
1771683734329872400,13.148872314453126,14.337793350219727,3.7232320308685303,-0.19142581522464752
1771683734340230000,13.15922998046875,7.929814338684082,0.97148597240448,1.3519448041915894
1771683734350587400,13.16958740234375,10.308279991149902,0.4163511395454407,-0.5862415432929993
1771683734360945000,13.17994482421875,10.303494453430176,3.565305709838867,1.1126625537872314
1771683734371302400,13.190302490234375,6.041877269744873,2.610569477081299,0.5048855543136597
1771683734381660000,13.200659912109375,12.059825897216797,1.0528420209884644,1.4021940231323242
1771683734392017400,13.211017333984374,13.49312686920166,1.7252250909805298,0.0933200865983963
1771683734402375000,13.221375,10.932806968688965,3.129812002182007,0.849452018737793
1771683734412732400,13.231732421875,10.96869945526123,1.5433706045150757,-1.8640087842941284
1771683734423090000,13.24208984375,10.600204467773438,0.8805587291717529,0.4091726839542389
1771683734433447400,13.252447509765625,9.81535816192627,1.2083754539489746,0.43549370765686035
1771683734443805000,13.262804931640625,13.83530044555664,2.555534601211548,-0.14117653667926788
1771683734454162400,13.273162353515625,8.288737297058105,1.9214365482330322,0.09810572862625122
1771683734464520000,13.28352001953125,12.959527015686035,1.4476577043533325,-0.5288137793540955
1771683734474877400,13.29387744140625,5.8337016105651855,1.5864413976669312,-0.22492532432079315
1771683734485235000,13.30423486328125,8.898907661437988,1.0839486122131348,-0.15553347766399384
1771683734495592400,13.314592529296876,11.160124778747559,1.5026925802230835,-0.24406790733337402
1771683734505950000,13.324949951171876,12.76331615447998,1.698904037475586,-0.20338992774486542
1771683734516307500,13.335307373046875,9.7005033493042,2.4981069564819336,0.01196411345154047
1771683734526665000,13.3456650390625,10.104889869689941,0.9930213689804077,-0.0526420995593071
1771683734537022500,13.3560224609375,3.689732551574707,0.46420758962631226,0.7106683254241943
1771683734547380000,13.3663798828125,11.00459098815918,1.0863415002822876,2.4023938179016113
1771683734557737500,13.376737548828125,7.125825881958008,1.3926228284835815,2.1056840419769287
