time,seconds_elapsed,z,y,x
1771683721307984400,0.126984375,0,0,0
1771683721318342000,0.137341796875,-0.11365985870361328,-0.037060052156448364,-0.05746921896934509
1771683721328699400,0.147699462890625,0.1395893096923828,-0.04708477854728699,0.04903988540172577
1771683721349414400,0.168414306640625,0.4039163589477539,-0.017792046070098877,0.3419513404369354
1771683721359772000,0.17877197265625,-0.09611225128173828,0.1007138192653656,0.15964016318321228
1771683721370129400,0.18912939453125,0.09604454040527344,0.045241862535476685,-0.19511131942272186
1771683721380487000,0.19948681640625,-0.06251335144042969,0.08971983194351196,-0.426222562789917
1771683721390844400,0.209844482421875,-0.23422813415527344,-0.07121062278747559,-0.08340209722518921
1771683721401202000,0.220201904296875,0.07132625579833984,-0.061992108821868896,0.0773678719997406
1771683721411559400,0.230559326171875,-0.013467788696289062,0.017653167247772217,0.3355948328971863
1771683721421917000,0.2409169921875,0.2574501037597656,0.011788159608840942,0.20660480856895447
1771683721432274400,0.2512744140625,-0.0737924575805664,-0.0555059015750885,0.10705813765525818
1771683721442632000,0.2616318359375,0.05145740509033203,-0.02722543478012085,-0.13138695061206818
1771683721452989400,0.271989501953125,0.05919361114501953,-0.005313664674758911,-0.12934598326683044
1771683721463347000,0.282346923828125,-0.2383718490600586,-0.025052815675735474,-0.2852790355682373
1771683721473704400,0.292704345703125,0.09320735931396484,0.035032033920288086,0.06876292824745178
1771683721484062000,0.30306201171875,-0.05209064483642578,-0.21087154746055603,0.31357672810554504
1771683721494419500,0.31341943359375,0.23855209350585938,0.038120150566101074,0.38774123787879944
1771683721504777000,0.32377685546875,0.05384349822998047,0.013529777526855469,0.1823616623878479
1771683721515134500,0.334134521484375,0.08317852020263672,0.04016059637069702,-0.2545202970504761
1771683721525492000,0.344491943359375,-0.15814495086669922,0.04283621907234192,-0.2679692506790161
1771683721535849500,0.354849365234375,0.013525962829589844,-0.15815377235412598,-0.13509109616279602
1771683721546207200,0.365207275390625,0.10928726196289062,0.004367351531982422,0.17743545770645142
1771683721556564700,0.375564697265625,-0.04440498352050781,-0.15643250942230225,0.32193437218666077
1771683721566922200,0.385922119140625,0.2357034683227539,0.038179218769073486,0.1047719419002533
1771683721577279700,0.39627978515625,-0.0771942138671875,0.034386396408081055,0.09439623355865479
1771683721587637200,0.40663720703125,0.07553863525390625,-0.038500308990478516,-0.08179628849029541
1771683721597994800,0.416994873046875,-0.1950702667236328,0.04131469130516052,-0.19420810043811798
1771683721608352300,0.427352294921875,0.05893707275390625,0.019119292497634888,-0.2619553208351135
1771683721618709800,0.437709716796875,-0.20000362396240234,0.00009545683860778809,0.012774080038070679
1771683721629067300,0.4480673828125,0.10991573333740234,-0.16919073462486267,0.3484153151512146
1771683721639424800,0.4584248046875,-0.03728771209716797,0.005190461874008179,0.3755146563053131
1771683721649782300,0.4687822265625,0.1821126937866211,0.08625048398971558,0.10226914286613464
1771683721660139800,0.479139892578125,-0.08809661865234375,0.05349767208099365,-0.34176307916641235
1771683721670497300,0.489497314453125,-0.24151134490966797,0.05665677785873413,-0.3183852732181549
1771683721680854800,0.499854736328125,-0.04874134063720703,-0.12175390124320984,-0.17691510915756226
1771683721691212300,0.51021240234375,0.10866069793701172,0.023568183183670044,0.1464252769947052
1771683721701569800,0.52056982421875,-0.013044357299804688,-0.014223158359527588,0.2524773180484772
1771683721711927300,0.53092724609375,0.222930908203125,0.05132490396499634,0.12226259708404541
1771683721722284800,0.541284912109375,-0.21907329559326172,-0.038585364818573,0.07779890298843384
1771683721732642300,0.551642333984375,0.026737213134765625,-0.09391987323760986,-0.043009042739868164
1771683721742999800,0.561999755859375,-0.08139991760253906,0.13035178184509277,-0.2149147391319275
1771683721753357300,0.572357421875,-0.14969348907470703,-0.0035029947757720947,-0.3202640116214752
1771683721763714800,0.58271484375,0.03145599365234375,0.008274614810943604,-0.02329954504966736
1771683721774072300,0.593072265625,-0.05349540710449219,-0.14868563413619995,0.3867736756801605
1771683721784429800,0.603429931640625,0.25676918029785156,-0.04261240363121033,0.37884271144866943
1771683721794787300,0.613787353515625,-0.022726058959960938,0.028613388538360596,0.16987547278404236
1771683721805144800,0.624144775390625,0.059764862060546875,0.11930793523788452,-0.2808082699775696
1771683721815502300,0.63450244140625,-0.19468307495117188,0.02070939540863037,-0.4370078444480896
1771683721825859800,0.64485986328125,-0.17913341522216797,-0.09699714183807373,-0.14466188848018646
1771683721836217300,0.65521728515625,0.12472248077392578,0.06907817721366882,0.17684125900268555
1771683721846574800,0.665574951171875,0.02846527099609375,-0.005012959241867065,0.24621114134788513
1771683721856932400,0.675932373046875,0.22758865356445312,0.19890016317367554,0.19226157665252686
1771683721867289900,0.686289794921875,-0.07254409790039062,0.6901754140853882,0.4312962293624878
1771683721877647400,0.6966474609375,0.5327482223510742,0.7783307433128357,0.02890676259994507
1771683721888004900,0.7070048828125,-0.3558034896850586,-0.14078694581985474,-0.27931252121925354
1771683721898362400,0.7173623046875,0.09013080596923828,-0.5201120972633362,-0.7475526928901672
1771683721908719900,0.727719970703125,-0.06187629699707031,0.3979969620704651,-0.44825077056884766
1771683721919077400,0.738077392578125,0.343902587890625,0.8306963443756104,0.19194212555885315
1771683721929435000,0.748434814453125,0.1946887969970703,-0.13918623328208923,0.6779543161392212
1771683721939792400,0.75879248046875,-0.49794673919677734,-0.4202181100845337,0.803921639919281
1771683721950150000,0.76914990234375,0.03979206085205078,0.3199646472930908,0.11107516288757324
1771683721960507400,0.77950732421875,-0.17731761932373047,0.8338799476623535,-0.3351169526576996
1771683721970865000,0.789864990234375,-0.753178596496582,0.2738412618637085,-0.5222951769828796
1771683721981222400,0.800222412109375,0.18647384643554688,0.30154067277908325,-0.34896543622016907
1771683721991580200,0.810580078125,0.03281974792480469,0.4160211682319641,0.1199922263622284
1771683722001937700,0.820937744140625,0.3217029571533203,-0.12081614136695862,0.19121697545051575
1771683722012295200,0.831295166015625,0.49523448944091797,0.181024968624115,0.18812602758407593
1771683722022652700,0.841652587890625,-0.23770523071289062,0.29014503955841064,0.3503560423851013
1771683722033010200,0.85201025390625,0.07453727722167969,0.09607630968093872,0.135409414768219
1771683722043367700,0.86236767578125,-0.6301898956298828,0.31477659940719604,-0.15378612279891968
1771683722053725200,0.87272509765625,-0.26671791076660156,0.5562723875045776,-0.3655957877635956
1771683722064082700,0.883082763671875,-0.14928722381591797,0.49244654178619385,-0.21177099645137787
1771683722074440200,0.893440185546875,-0.23619651794433594,0.3546288013458252,0.325812965631485
1771683722084797700,0.903797607421875,0.33949947357177734,-0.037306129932403564,0.45016780495643616
1771683722095155200,0.9141552734375,-0.04968738555908203,-0.21589559316635132,0.19381055235862732
1771683722105512700,0.9245126953125,0.15348529815673828,-0.02680259943008423,-0.13802902400493622
1771683722115870200,0.9348701171875,0.2639036178588867,0.5236092209815979,-0.40155908465385437
1771683722126227700,0.945227783203125,0.11365222930908203,0.688683271408081,-0.319827139377594
1771683722136585200,0.955585205078125,-0.24821758270263672,-0.09469485282897949,0.15565654635429382
1771683722146942700,0.965942626953125,-0.1569995880126953,-0.26291126012802124,0.3390043377876282
1771683722157300200,0.97630029296875,-0.08851146697998047,0.37662041187286377,0.4256192743778229
1771683722167657700,0.98665771484375,0.06589412689208984,0.301960825920105,0.007265001535415649
1771683722178015200,0.99701513671875,-0.17049694061279297,0.7106533646583557,-0.1546432077884674
1771683722188372700,1.007372802734375,0.1523418426513672,0.6140813827514648,-0.12605038285255432
1771683722198730200,1.017730224609375,-0.2737617492675781,-0.46875131130218506,0.048136740922927856
1771683722209087700,1.028087646484375,0.027283668518066406,-0.5059070587158203,0.014518529176712036
1771683722219445200,1.0384453125,0.36328697204589844,0.15179944038391113,-0.09576132893562317
1771683722229802800,1.048802734375,0.4419851303100586,0.5111193060874939,-0.31336236000061035
1771683722240160300,1.05916015625,0.10754966735839844,1.0575119256973267,0.0763096809387207
1771683722250517800,1.069517822265625,0.11513519287109375,0.2800489664077759,0.4568398594856262
1771683722260875300,1.079875244140625,-0.712733268737793,-0.7503510117530823,0.49537646770477295
1771683722271232800,1.090232666015625,-0.4867677688598633,-0.2204163372516632,0.201196551322937
1771683722281590300,1.10059033203125,0.420166015625,0.40916913747787476,-0.4774242639541626
1771683722291947800,1.11094775390625,-0.29735565185546875,0.6441285610198975,-0.6279006004333496
1771683722302305300,1.12130517578125,0.4888744354248047,1.070292353630066,-0.3669017553329468
1771683722312662800,1.131662841796875,0.2501640319824219,0.04766261577606201,0.5633838176727295
1771683722323020300,1.142020263671875,-0.3845853805541992,-1.2381787300109863,0.43674877285957336
1771683722333377800,1.152377685546875,0.37006664276123047,-0.1947215497493744,0.418718546628952
1771683722343735300,1.1627353515625,0.1498403549194336,0.5492337942123413,-0.2760199308395386
1771683722354092800,1.1730927734375,-0.31125926971435547,1.3557692766189575,-0.46932828426361084
1771683722364450300,1.1834501953125,0.19412612915039062,0.7693856954574585,-0.11947035789489746
1771683722374807800,1.193807861328125,-0.6182069778442383,-0.6432229280471802,0.4524051249027252
1771683722385165300,1.204165283203125,-1.3541831970214844,-1.016089677810669,0.3777090907096863
1771683722395522800,1.214522705078125,1.2611074447631836,0.5887078642845154,-0.2891329824924469
1771683722405880300,1.22488037109375,-0.30095767974853516,1.0029900074005127,-0.2773481011390686
1771683722416237800,1.23523779296875,0.16884136199951172,0.9625981450080872,0.1171024739742279
1771683722426595300,1.24559521484375,0.8098688125610352,0.19223839044570923,0.5062894225120544
1771683722436952800,1.255952880859375,-0.7149896621704102,-0.722368597984314,0.23639130592346191
1771683722447310300,1.266310302734375,-0.14658164978027344,-0.6094507575035095,-0.023094743490219116
1771683722457667800,1.276667724609375,0.7061882019042969,0.5144186019897461,-0.5481212139129639
1771683722468025300,1.287025390625,-0.6447896957397461,1.6359902620315552,-0.1534772515296936
1771683722478382800,1.2973828125,0.7270822525024414,0.39767271280288696,0.19570723176002502
1771683722488740400,1.307740234375,-0.6146211624145508,-0.2067638635635376,0.651752233505249
1771683722499097900,1.318097900390625,-0.7896604537963867,-0.09342426061630249,0.2629697620868683
1771683722509455400,1.328455322265625,0.7615346908569336,0.17015540599822998,0.10671740770339966
1771683722519812900,1.338812744140625,-0.4691047668457031,0.8751147985458374,-0.30948734283447266
1771683722530170400,1.34917041015625,0.27271366119384766,0.2274441123008728,0.009066134691238403
1771683722540527900,1.35952783203125,0.3702230453491211,-0.03419679403305054,-0.13199731707572937
1771683722550885400,1.369885498046875,-0.6983118057250977,0.49722492694854736,-0.07376128435134888
1771683722561243000,1.380242919921875,0.3730192184448242,0.3432236313819885,0.002651125192642212
1771683722571600400,1.390600341796875,-0.042873382568359375,0.7806445956230164,0.5836929082870483
1771683722581958000,1.4009580078125,-0.29888343811035156,0.2759026885032654,0.37289613485336304
1771683722592315400,1.4113154296875,-0.08043384552001953,-0.0997210144996643,0.10884442925453186
1771683722602673000,1.4216728515625,-0.492828369140625,0.39451414346694946,-0.36656859517097473
1771683722613030400,1.432030517578125,0.10927867889404297,0.6621692776679993,-0.3990882635116577
1771683722623388000,1.442387939453125,0.1108255386352539,0.3481089472770691,0.07626673579216003
1771683722633745400,1.452745361328125,0.12420177459716797,0.06761479377746582,0.20654600858688354
1771683722644103000,1.46310302734375,0.02589702606201172,-0.056571364402770996,0.44038125872612
1771683722654460400,1.47346044921875,0.203826904296875,0.5368646383285522,0.10963520407676697
1771683722664818000,1.48381787109375,0.1429433822631836,0.9171052575111389,0.11837071180343628
1771683722675175700,1.49417578125,-0.1621265411376953,0.10498625040054321,0.22505488991737366
1771683722685533200,1.504533203125,-0.3603801727294922,-0.30230963230133057,-0.4322320520877838
1771683722695890700,1.514890625,-0.5168619155883789,0.27943485975265503,-0.08170732855796814
1771683722706248200,1.525248291015625,0.2042989730834961,0.7642263770103455,-0.36938244104385376
1771683722716605700,1.535605712890625,0.02940845489501953,0.7991269826889038,0.5475964546203613
1771683722726963200,1.545963134765625,0.062445640563964844,-0.27541545033454895,0.32717862725257874
1771683722737320400,1.556320556640625,0.1285238265991211,0.20377832651138306,0.3559931814670563
1771683722747678000,1.566677978515625,-0.18598079681396484,0.3685911297798157,-0.3879348039627075
1771683722758035700,1.57703564453125,0.43073558807373047,0.781409502029419,-0.3738938868045807
1771683722768393200,1.587393310546875,-0.002300262451171875,0.41461092233657837,-0.3127744793891907
1771683722778750700,1.597750732421875,-0.38481998443603516,-0.3865472674369812,0.20446842908859253
1771683722789108200,1.608108154296875,0.25473880767822266,0.18815940618515015,0.45938506722450256
1771683722799465700,1.6184658203125,-0.26505470275878906,0.7524552941322327,0.27789992094039917
1771683722809823200,1.6288232421875,0.44254398345947266,0.5215538740158081,0.34772276878356934
1771683722820180700,1.6391806640625,-0.748744010925293,-0.3541010618209839,-0.26074278354644775
1771683722830538200,1.649538330078125,-0.11148643493652344,0.3563159704208374,-0.32293272018432617
1771683722840895700,1.659895751953125,0.038979530334472656,0.8319305777549744,0.002383500337600708
1771683722851253200,1.670253173828125,0.29775428771972656,0.1850791573524475,0.3733423054218292
1771683722861610800,1.68061083984375,0.020036697387695312,-0.6289997100830078,0.3449782133102417
1771683722871968300,1.69096826171875,-0.3295402526855469,0.05474609136581421,0.13195979595184326
1771683722882325800,1.70132568359375,0.47372913360595703,1.1073050498962402,-0.22522598505020142
1771683722892683300,1.711683349609375,-0.33769798278808594,0.5918794870376587,0.021853387355804443
1771683722903040800,1.722040771484375,0.06387996673583984,-0.17257028818130493,-0.06172928214073181
1771683722913398300,1.732398193359375,-0.9042177200317383,-0.27343982458114624,0.31744346022605896
1771683722923755800,1.742755859375,0.5233211517333984,0.7222601771354675,0.08725428581237793
1771683722934113300,1.75311328125,0.1466541290283203,0.546988844871521,0.09192582964897156
1771683722944470800,1.763470703125,0.07199668884277344,-0.3882881700992584,-0.01080891489982605
1771683722954828300,1.773828369140625,-0.6061296463012695,-0.1937389373779297,-0.17900285124778748
1771683722965185800,1.784185791015625,0.42015838623046875,0.9440113306045532,-0.02074006199836731
1771683722975543300,1.794543212890625,0.39852237701416016,0.7052544355392456,0.3386395573616028
1771683722985900800,1.80490087890625,-0.4316587448120117,-0.6946819424629211,0.2131045162677765
1771683722996258300,1.81525830078125,-0.2903280258178711,-0.38966044783592224,0.07396876811981201
1771683723006615800,1.82561572265625,0.40630626678466797,1.1457505226135254,-0.15763098001480103
1771683723016973300,1.835973388671875,0.11713123321533203,0.712771475315094,-0.017805814743041992
1771683723027330800,1.846330810546875,-0.24010562896728516,-0.7228956818580627,0.21809259057044983
1771683723037688300,1.856688232421875,-0.4407844543457031,-0.1798335313796997,0.28361430764198303
1771683723048045800,1.8670458984375,0.47716712951660156,1.072300672531128,0.1402137279510498
1771683723058403300,1.8774033203125,0.2574005126953125,0.43810540437698364,-0.018930047750473022
1771683723068760800,1.8877607421875,0.046095848083496094,-0.6118869185447693,-0.03541651368141174
1771683723079118300,1.898118408203125,-0.5845661163330078,-0.1332542896270752,-0.21261517703533173
1771683723089475800,1.908475830078125,0.5012855529785156,0.9829822182655334,-0.021276205778121948
1771683723099833300,1.918833251953125,0.34374523162841797,0.47073066234588623,0.18125778436660767
1771683723110190800,1.92919091796875,-0.49802398681640625,-0.8144292235374451,0.11061286926269531
1771683723120548400,1.93954833984375,-0.43807220458984375,-0.15366703271865845,-0.07261356711387634
1771683723130905900,1.94990576171875,0.6732139587402344,1.3029868602752686,-0.27983376383781433
1771683723141263400,1.960263427734375,0.2649221420288086,0.6606383919715881,0.0047002434730529785
1771683723151620900,1.970620849609375,-0.48366546630859375,-0.9445905089378357,0.13730144500732422
1771683723161978400,1.980978271484375,-0.33813953399658203,-0.0741649866104126,0.1416652798652649
1771683723172335900,1.9913359375,0.46331024169921875,1.3253369331359863,0.05937400460243225
1771683723182693400,2.001693359375,-0.01284027099609375,0.17863088846206665,-0.14057159423828125
1771683723193051000,2.01205078125,-0.012697219848632812,-0.7366435527801514,-0.045358121395111084
1771683723203408400,2.022408447265625,-0.433807373046875,0.35433995723724365,-0.1545288860797882
1771683723213766000,2.032765869140625,0.170654296875,1.121265172958374,0.15771478414535522
1771683723224123400,2.043123291015625,0.18637752532958984,0.1777285933494568,0.22828808426856995
1771683723234481000,2.05348095703125,-0.21442222595214844,-0.530328631401062,0.13377326726913452
1771683723244838400,2.06383837890625,-0.3893918991088867,0.043292462825775146,-0.09973752498626709
1771683723255196000,2.07419580078125,0.3862628936767578,1.0091135501861572,-0.33282604813575745
1771683723265553400,2.084553466796875,0.10098075866699219,0.41364699602127075,-0.20992252230644226
1771683723275911000,2.094910888671875,0.014841079711914062,-0.4791625440120697,-0.019449949264526367
1771683723286268400,2.105268310546875,-0.5136213302612305,-0.027378618717193604,0.17816194891929626
1771683723296626000,2.1156259765625,0.567469596862793,0.8815392851829529,0.11657032370567322
1771683723306983400,2.1259833984375,-0.06862449645996094,0.5221787095069885,0.03195154666900635
1771683723317341000,2.1363408203125,-0.2015237808227539,-0.29025858640670776,0.045433491468429565
1771683723327698400,2.146698486328125,-0.3979816436767578,0.10316359996795654,-0.3601570427417755
1771683723338056000,2.157055908203125,0.11596870422363281,0.9164000749588013,-0.10467272996902466
1771683723348413400,2.167413330078125,-0.14168739318847656,0.31170159578323364,0.018771350383758545
1771683723358771000,2.17777099609375,0.41148948669433594,-0.0642704963684082,0.15050005912780762
1771683723369128400,2.18812841796875,-0.6404685974121094,-0.2451413869857788,0.15844523906707764
1771683723379486000,2.19848583984375,0.24616336822509766,0.44811487197875977,-0.10311150550842285
1771683723389843500,2.208843505859375,-0.10733509063720703,0.6882603168487549,-0.24446099996566772
1771683723400201000,2.219200927734375,0.026609420776367188,0.31073737144470215,-0.006286054849624634
1771683723410558500,2.229558349609375,-0.3424968719482422,-0.2793448567390442,0.17582181096076965
1771683723420916000,2.239916015625,-0.014543533325195312,0.44069015979766846,0.25772976875305176
1771683723431273500,2.2502734375,0.2332162857055664,0.514677107334137,0.2198939025402069
1771683723441631000,2.260630859375,-0.08220767974853516,0.07365542650222778,0.2427699863910675
1771683723451988500,2.270988525390625,0.17307281494140625,0.1608409285545349,-0.016320884227752686
1771683723462346000,2.281345947265625,-0.2992429733276367,0.16219568252563477,-0.21389971673488617
1771683723472703500,2.291703369140625,0.1880807876586914,0.18950414657592773,-0.2805097699165344
1771683723483061000,2.30206103515625,-0.15093040466308594,0.38834309577941895,0.07752189040184021
1771683723493418500,2.31241845703125,0.6881418228149414,0.19805657863616943,0.3384314775466919
1771683723503776000,2.32277587890625,-0.11286163330078125,-0.28439515829086304,0.5102585554122925
1771683723514133500,2.333133544921875,0.052043914794921875,0.21644210815429688,0.22239762544631958
1771683723524491000,2.343490966796875,0.1757040023803711,0.49602997303009033,-0.2433769404888153
1771683723534848500,2.3538486328125,-0.11086559295654297,0.47417283058166504,-0.09708669781684875
1771683723545206300,2.364206298828125,-0.050182342529296875,-0.03509831428527832,-0.11182016134262085
1771683723555563500,2.3745634765625,-0.07755279541015625,-0.09135299921035767,0.30662187933921814
1771683723565921000,2.384921142578125,-0.05510425567626953,0.06297922134399414,0.2222420871257782
1771683723576288000,2.3952880859375,0.5576143264770508,0.4072501063346863,0.033019810914993286
1771683723586636000,2.405635986328125,0.1977529525756836,0.409310519695282,0.176677405834198
1771683723597011700,2.41601171875,-0.007877349853515625,-0.2592548131942749,0.11094820499420166
1771683723607351000,2.42635107421875,-0.09706878662109375,0.061594605445861816,-0.17058289051055908
1771683723617735400,2.4367353515625,-0.2201395034790039,0.35201525688171387,-0.40043365955352783
1771683723628142800,2.447142822265625,0.1271190643310547,0.43499845266342163,-0.20093710720539093
1771683723638428400,2.457428466796875,-0.2137775421142578,0.3118314743041992,0.5179746150970459
1771683723648805600,2.4678056640625,0.015677452087402344,-0.07500118017196655,0.552420973777771
1771683723659152100,2.478152099609375,-0.31398677825927734,-0.10735130310058594,0.41968926787376404
1771683723669498600,2.48849853515625,0.05593299865722656,0.1411380171775818,-0.18382799625396729
1771683723679853800,2.498853759765625,-0.015533447265625,0.7333585619926453,-0.5145562887191772
1771683723690222300,2.509222412109375,-0.0670318603515625,0.49013882875442505,-0.4605800211429596
1771683723700568600,2.519568603515625,0.12003898620605469,-0.050563037395477295,0.14247041940689087
1771683723710946000,2.529946044921875,-0.30545520782470703,-0.05521130561828613,0.4092385470867157
1771683723721283800,2.540283935546875,0.18435382843017578,-0.17019248008728027,0.3281612694263458
1771683723731641300,2.550641357421875,0.026099205017089844,0.68058842420578,-0.13781338930130005
1771683723741998800,2.560998779296875,0.12687015533447266,1.3485777378082275,-0.3041338324546814
1771683723752362800,2.57136279296875,-0.38344764709472656,-0.2977792024612427,-0.08254092931747437
1771683723762713900,2.5817138671875,-0.6311283111572266,-0.24435698986053467,-0.24944350123405457
1771683723773086500,2.59208642578125,0.24290847778320312,0.22086471319198608,-0.3343724310398102
1771683723783428900,2.602428955078125,-0.1869649887084961,-0.006845712661743164,-0.42540204524993896
1771683723793810200,2.61281005859375,0.47507762908935547,1.2556335926055908,-0.4203251898288727
1771683723804143900,2.623143798828125,0.6531229019165039,0.9565737247467041,0.390635222196579
1771683723814503200,2.633503173828125,-1.091848373413086,-1.0130033493041992,0.7403701543807983
1771683723824859000,2.64385888671875,-0.3183116912841797,-0.47022712230682373,-0.2867473363876343
1771683723835227000,2.654226806640625,0.6376476287841797,0.5796017646789551,-0.2637961506843567
1771683723845574000,2.664573974609375,-0.9544048309326172,1.1243290901184082,-1.346055269241333
1771683723855950600,2.67495068359375,1.1252965927124023,1.2619432210922241,-0.4026436507701874
1771683723866297000,2.685297119140625,-0.7642621994018555,-0.41170501708984375,0.8755283355712891
1771683723876674000,2.695674072265625,-0.572911262512207,-0.31087350845336914,0.41173315048217773
1771683723887004000,2.70600390625,1.0857648849487305,-0.7340202927589417,0.278838574886322
1771683723897367300,2.7163671875,-0.8012094497680664,0.5756051540374756,-0.3531404137611389
1771683723907719000,2.726718994140625,0.6201248168945312,2.550323724746704,-0.7081754207611084
1771683723918091000,2.737091064453125,0.6701974868774414,0.6355806589126587,0.5112972259521484
1771683723928437500,2.7474375,-2.2854509353637695,-1.541454792022705,0.42026880383491516
1771683723938814500,2.757814453125,0.2737112045288086,-0.36328816413879395,-0.7031494379043579
1771683723949161200,2.7681611328125,1.5837764739990234,0.7171837091445923,0.013388067483901978
1771683723959506400,2.77850634765625,-2.0811548233032227,1.6718944311141968,-0.40504592657089233
1771683723969884700,2.788884765625,3.3186683654785156,0.7779580354690552,-0.01462942361831665
1771683723980221400,2.799221435546875,-1.570826530456543,-0.7038595676422119,1.143240213394165
1771683723990608400,2.8096083984375,-1.9606051445007324,-1.1756151914596558,-0.3640052080154419
1771683724000936400,2.8199365234375,2.1040964126586914,-0.09495830535888672,-0.7242995500564575
1771683724011301600,2.830301513671875,-1.779775619506836,2.015695571899414,-0.2999809980392456
1771683724021651500,2.8406513671875,0.901275634765625,1.9417675733566284,-0.767268180847168
1771683724032025000,2.851025146484375,0.8099479675292969,-0.25028109550476074,0.7574463486671448
1771683724042366500,2.861366455078125,-2.5877013206481934,-0.5362457036972046,0.4843217134475708
1771683724052748800,2.871748779296875,1.5579795837402344,-0.6414685249328613,-0.3522292673587799
1771683724063081500,2.88208154296875,-0.46682071685791016,0.6777597665786743,-0.1747090071439743
1771683724073442000,2.892442138671875,-0.15769100189208984,1.2168477773666382,-1.1256643533706665
1771683724083796500,2.90279638671875,1.0087766647338867,-0.22322595119476318,-0.2703036665916443
1771683724094165500,2.91316552734375,-1.703047752380371,0.18860208988189697,-0.041304558515548706
1771683724104511500,2.923511474609375,0.5561084747314453,1.4682443141937256,-0.08435913920402527
1771683724114889200,2.93388916015625,0.13440704345703125,1.2701072692871094,0.5412418842315674
1771683724125226500,2.9442265625,-0.49554920196533203,-0.8320756554603577,-0.5019946694374084
1771683724135613000,2.954613037109375,-0.1694355010986328,-0.5652996897697449,-0.5304626822471619
1771683724145941500,2.96494140625,0.6776199340820312,1.1505464315414429,-0.9250972270965576
1771683724156306000,2.975305908203125,-0.01390838623046875,0.849030613899231,-0.359610915184021
1771683724166656500,2.985656494140625,-0.6123085021972656,-0.6060066223144531,0.366993248462677
1771683724177029600,2.996029541015625,0.7704181671142578,0.1610034704208374,0.055502623319625854
1771683724187376000,3.006376220703125,-0.7058029174804688,1.3001458644866943,0.05503341555595398
1771683724197753300,3.01675341796875,0.48882198333740234,1.371851921081543,-0.3736175298690796
1771683724208130300,3.02713037109375,-0.5286188125610352,0.36800074577331543,-0.09617757797241211
1771683724218446300,3.0374462890625,-1.1849775314331055,-0.6745803356170654,-0.358518123626709
1771683724228801500,3.047801513671875,0.9031562805175781,-0.42401283979415894,-1.06382155418396
1771683724239170000,3.058170166015625,-0.633209228515625,0.7987446784973145,0.08126524090766907
1771683724249516500,3.0685166015625,0.9593048095703125,0.9539591073989868,-0.03700459003448486
1771683724259874000,3.0788740234375,1.0967607498168945,0.3138617277145386,0.5373563170433044
1771683724270240300,3.089240234375,-2.0571184158325195,-0.3902766704559326,0.27591145038604736
1771683724280589000,3.099589111328125,0.9736528396606445,0.5286949872970581,-0.252477765083313
1771683724290964000,3.1099638671875,-0.5844697952270508,1.5774229764938354,-0.27833718061447144
1771683724301304000,3.120303955078125,-0.3084840774536133,1.083413004875183,-0.6193320751190186
1771683724311687700,3.130687744140625,-0.016498565673828125,-1.3213841915130615,-0.4629005193710327
1771683724322019000,3.14101904296875,-0.18812179565429688,0.41404712200164795,0.3905875086784363
1771683724332380700,3.151380615234375,0.35608577728271484,0.45650815963745117,0.05615994334220886
1771683724342734000,3.161734130859375,0.5718841552734375,0.18501532077789307,0.22407999634742737
1771683724353104400,3.1721044921875,0.11208534240722656,0.39647066593170166,-0.21993212401866913
1771683724363449000,3.182448974609375,-0.39144420623779297,0.5258388519287109,-0.32360148429870605
1771683724373828000,3.192828125,0.41608142852783203,1.2121933698654175,-0.5404417514801025
1771683724384164000,3.2031640625,-0.8110885620117188,1.3703875541687012,0.23114615678787231
1771683724394551600,3.213551513671875,-0.057259559631347656,-0.4291234016418457,0.1399168074131012
1771683724404879000,3.223879150390625,-0.5339937210083008,-1.468051791191101,-0.2797948122024536
1771683724415244800,3.234244873046875,0.5100545883178711,0.8231750726699829,-0.9085056185722351
1771683724425594000,3.244593994140625,0.40811824798583984,0.9091954231262207,-0.2156425267457962
1771683724435968500,3.254968505859375,0.724090576171875,0.08266830444335938,-0.05383095145225525
1771683724446315000,3.26531494140625,-1.257725715637207,-0.23082715272903442,0.19713732600212097
1771683724456692000,3.27569189453125,0.5805473327636719,1.1738225221633911,0.08427309989929199
1771683724467038700,3.286038818359375,-0.41351318359375,1.5434521436691284,0.13497072458267212
1771683724477381600,3.296381591796875,0.40340232849121094,0.9104880094528198,-0.12030020356178284
1771683724487762200,3.30676220703125,-1.3889846801757812,-1.7621846199035645,-0.792544424533844
1771683724498109000,3.31710888671875,0.2327136993408203,0.6132751703262329,-0.6613311767578125
1771683724508455400,3.327455322265625,0.35596752166748047,1.2465060949325562,0.2216266691684723
1771683724518832400,3.337832275390625,0.24745845794677734,-0.5033193826675415,-0.11483973264694214
1771683724529179100,3.34817919921875,0.5617427825927734,-0.5416125059127808,0.06105121970176697
1771683724539526700,3.358526611328125,0.011524200439453125,1.0950212478637695,0.5493829250335693
1771683724549902600,3.368902587890625,0.197601318359375,1.1561975479125977,0.16362908482551575
1771683724560241700,3.37924169921875,-0.4136333465576172,0.8848074674606323,0.1602025330066681
1771683724570626300,3.389626220703125,-0.38140010833740234,0.43113815784454346,-0.18336687982082367
1771683724580956700,3.399956787109375,-1.0146150588989258,-0.9669219255447388,0.20092424750328064
1771683724591319600,3.410319580078125,1.123556137084961,0.8269540071487427,-0.3073126971721649
1771683724601671700,3.420671630859375,0.3804359436035156,0.6256759166717529,0.04085487127304077
1771683724612043000,3.43104296875,0.3626747131347656,-1.2710695266723633,-0.2772296667098999
1771683724622386700,3.44138671875,-0.46361541748046875,-0.3265124559402466,-0.030463367700576782
1771683724632766700,3.4517666015625,0.5872821807861328,1.0752527713775635,0.10452571511268616
1771683724643101700,3.462101806640625,-0.27390003204345703,1.1258783340454102,0.4050680100917816
1771683724653460000,3.4724599609375,-0.22565460205078125,0.6025276184082031,0.373892605304718
1771683724663816700,3.482816650390625,-0.3083982467651367,0.5076665878295898,0.008968740701675415
1771683724674183400,3.493183349609375,-0.4744834899902344,0.9577810764312744,-0.8984427452087402
1771683724684531700,3.50353173828125,0.20204448699951172,0.31105566024780273,-0.3234288692474365
1771683724694907100,3.5139072265625,0.29921627044677734,-0.34297943115234375,-0.1587381660938263
1771683724705246700,3.524246826171875,-0.5867509841918945,-0.8616911768913269,-0.04163220524787903
1771683724715630800,3.534630859375,0.5315141677856445,0.7319586277008057,0.29195645451545715
1771683724725961700,3.544961669921875,0.1171255111694336,1.6135506629943848,0.14209702610969543
1771683724736323800,3.55532373046875,-0.2293529510498047,-0.0761944055557251,0.1539139449596405
1771683724746677000,3.565677001953125,-1.505080223083496,-1.2248213291168213,0.031495124101638794
1771683724757047600,3.576047607421875,-0.9258975982666016,0.6584885120391846,-0.0157129168510437
1771683724767392000,3.58639208984375,-0.17214679718017578,0.3291294574737549,-0.06269928812980652
1771683724777771300,3.596771240234375,-0.8544559478759766,-1.7273304462432861,-0.23862828314304352
1771683724788148200,3.607148193359375,0.15682029724121094,-1.7429230213165283,-0.16718319058418274
1771683724798494700,3.61749462890625,-0.025453567504882812,-0.1349492073059082,-0.24511370062828064
1771683724808841500,3.627841552734375,0.467926025390625,-0.43529796600341797,-0.46299150586128235
1771683724819188000,3.63818798828125,0.6450557708740234,-0.13465285301208496,0.047536373138427734
1771683724829565000,3.64856494140625,0.46845054626464844,-0.28945469856262207,0.31799760460853577
1771683724839894500,3.65889453125,-0.5354423522949219,-1.2795454263687134,0.0723903477191925
1771683724850258200,3.669258056640625,-0.3005380630493164,-0.27744483947753906,0.24846002459526062
1771683724860609500,3.679609619140625,0.4036216735839844,0.019387245178222656,-0.2576799988746643
1771683724870982000,3.68998193359375,-1.1179590225219727,-1.1232489347457886,-0.4343903660774231
1771683724881324500,3.700324462890625,-0.6619453430175781,-1.931562900543213,-0.3360222578048706
1771683724891705300,3.710705322265625,0.6183319091796875,0.2825357913970947,0.03645572066307068
1771683724902039600,3.72103955078125,0.4536581039428711,-0.45686590671539307,0.29989108443260193
1771683724912398600,3.731398681640625,0.7883329391479492,-1.8526830673217773,0.2247365415096283
1771683724922754300,3.74175439453125,0.3538064956665039,-0.372239887714386,0.3313957452774048
1771683724933122300,3.752122314453125,1.1946344375610352,-0.2221960425376892,-0.24532842636108398
1771683724943469600,3.762469482421875,-0.09038352966308594,-0.7556731700897217,-0.393808513879776
1771683724953845800,3.772845703125,-0.19066333770751953,-1.0564260482788086,-0.040394216775894165
1771683724964184600,3.7831845703125,0.2749052047729492,-0.43313485383987427,-0.38342249393463135
1771683724974569500,3.793569580078125,-0.09602832794189453,-0.6819641590118408,0.26733681559562683
1771683724984899600,3.803899658203125,0.4981880187988281,-1.0290019512176514,0.09031796455383301
1771683724995262700,3.8142626953125,0.16727542877197266,-0.6282307505607605,0.62815260887146
1771683725005614600,3.824614501953125,1.0185003280639648,-0.8923688530921936,-0.15565913915634155
1771683725015986200,3.834986083984375,0.26869964599609375,-0.8986886739730835,-0.20241868495941162
1771683725026333000,3.8453330078125,0.8238754272460938,-0.8766699433326721,-0.09414723515510559
1771683725036710000,3.8557099609375,-0.046970367431640625,-0.5929850935935974,-0.3081808090209961
1771683725047044600,3.866044677734375,0.49480247497558594,-0.35976719856262207,-0.4262964725494385
1771683725057403100,3.876403076171875,-0.5541057586669922,-0.7647551894187927,0.26974594593048096
1771683725067759600,3.886759521484375,-0.15886497497558594,-0.40999525785446167,0.1678016185760498
1771683725078126600,3.897126708984375,0.2568025588989258,-0.23505401611328125,-0.10196113586425781
1771683725088503800,3.90750390625,-0.7604999542236328,-0.335091769695282,0.4849492311477661
1771683725098850300,3.917850341796875,-0.2144002914428711,-1.2366503477096558,0.16118845343589783
1771683725109196800,3.92819677734375,0.16322898864746094,-0.3990256190299988,0.3511877655982971
1771683725119547100,3.938547119140625,-0.08547496795654297,-0.10425978899002075,-0.3760441243648529
1771683725129920500,3.94892041015625,-0.43845558166503906,-1.2186732292175293,0.10115891695022583
1771683725140262100,3.95926220703125,-0.0077190399169921875,-0.44301414489746094,-0.601453959941864
1771683725150644200,3.969644287109375,0.059131622314453125,0.2882198691368103,-0.3228617012500763
1771683725160977200,3.97997705078125,-0.44702720642089844,-0.5475513339042664,0.5289499759674072
1771683725171337200,3.990337158203125,-0.2047901153564453,-1.069030523300171,-0.22617240250110626
1771683725181692200,4.000692138671875,-0.4190530776977539,-0.009054183959960938,0.14039257168769836
1771683725192061000,4.01106103515625,0.07831573486328125,0.19974923133850098,0.09272855520248413
1771683725202407200,4.0214072265625,-0.9625072479248047,-1.6400268077850342,-0.013925492763519287
1771683725212784600,4.03178466796875,0.4408397674560547,-0.36333179473876953,0.15880116820335388
1771683725223122200,4.0421220703125,-0.11652088165283203,-0.3849014639854431,-0.1181328296661377
1771683725233479700,4.052479736328125,0.6211452484130859,-0.7982361316680908,-0.43308642506599426
1771683725243837200,4.062837158203125,-0.4138612747192383,-0.9202504754066467,-0.43184971809387207
1771683725254201300,4.073201416015625,0.5370750427246094,-0.22066020965576172,-0.2428991198539734
1771683725264552200,4.08355224609375,0.12756633758544922,0.39312708377838135,0.14472025632858276
1771683725274925000,4.093925048828125,0.11760425567626953,-1.2009716033935547,-0.2405368834733963
1771683725285267200,4.10426708984375,-0.1738576889038086,-1.2299222946166992,-0.5671600103378296
1771683725295648800,4.114648681640625,1.2514219284057617,0.4068939685821533,-0.24884538352489471
1771683725305982200,4.124982177734375,-1.336740493774414,-0.9897038340568542,-0.71505206823349
1771683725316341800,4.135341796875,1.8553686141967773,-0.6690943241119385,0.0588432252407074
1771683725326719000,4.145718994140625,-0.8106565475463867,-0.6169246435165405,-0.22090692818164825
1771683725337065500,4.1560654296875,1.34661865234375,-0.7142171859741211,-0.38370776176452637
1771683725347442400,4.1664423828125,-0.9695444107055664,-0.9583238959312439,-0.1604180634021759
1771683725357789200,4.1767890625,0.801487922668457,0.18824541568756104,-0.18581931293010712
1771683725368127200,4.187127197265625,0.25762176513671875,-0.2241361141204834,0.006673574447631836
1771683725378512600,4.1975126953125,-0.7502641677856445,-1.2271350622177124,-0.3129577338695526
1771683725388859400,4.207859375,-0.07770824432373047,-0.5600437521934509,-0.15028053522109985
1771683725399206000,4.218205810546875,0.2446765899658203,0.31896358728408813,-0.2387249916791916
1771683725409582800,4.228582763671875,0.02910900115966797,-0.5391438007354736,0.26461127400398254
1771683725419914800,4.238914794921875,-0.28844738006591797,-1.6539912223815918,0.07688945531845093
1771683725430276000,4.249276123046875,0.5786657333374023,-0.2693762183189392,0.5814552307128906
1771683725440629800,4.259629638671875,0.1833047866821289,-0.44848692417144775,-0.013340204954147339
1771683725450999800,4.269999755859375,-0.9438066482543945,-1.0313310623168945,0.0604587197303772
1771683725461344800,4.2803447265625,0.746006965637207,-0.7865578532218933,0.00167122483253479
1771683725471723300,4.29072314453125,-0.32282447814941406,-0.35145604610443115,0.1317337155342102
1771683725482059800,4.301059814453125,-0.27921295166015625,-0.9073687195777893,0.4728246331214905
1771683725492447000,4.311447021484375,0.05079364776611328,-1.2883905172348022,0.10141193866729736
1771683725502774800,4.32177490234375,0.19370651245117188,-0.14969748258590698,0.22808459401130676
1771683725513140200,4.33214013671875,-0.23421573638916016,-0.9946713447570801,-0.04177868366241455
1771683725523489800,4.34248974609375,-0.298248291015625,-1.3415045738220215,-0.04082557559013367
1771683725533863700,4.35286376953125,0.18920612335205078,-0.663136899471283,0.2585396468639374
1771683725544204800,4.363204833984375,-0.05492591857910156,-1.0149030685424805,0.33207449316978455
1771683725554587400,4.37358740234375,0.2314319610595703,-1.108256459236145,-0.011761784553527832
1771683725564919800,4.383919921875,0.006350517272949219,-1.249550700187683,-0.195328950881958
1771683725575280600,4.39428076171875,0.5480213165283203,-0.16835510730743408,-0.19987358152866364
1771683725585634800,4.404634765625,-0.5037784576416016,-1.5188088417053223,0.4214635193347931
1771683725596004000,4.415004150390625,0.4187164306640625,-1.8099365234375,-0.5057457089424133
1771683725606350800,4.425350830078125,-0.31998634338378906,-0.6841360330581665,0.05568355321884155
1771683725616727800,4.435727783203125,0.5160751342773438,-0.5561379194259644,-0.9194197058677673
1771683725627064800,4.44606494140625,-0.5856990814208984,-1.7652175426483154,0.10160282254219055
1771683725637451500,4.456451416015625,0.5470294952392578,-1.5734341144561768,-0.24956487119197845
1771683725647779800,4.46677978515625,0.5980606079101562,-0.7897805571556091,0.41414591670036316
1771683725658144500,4.47714453125,0.6107807159423828,-1.3707685470581055,-0.32300955057144165
1771683725668521700,4.487521728515625,-0.2786998748779297,-1.3807719945907593,-0.043494850397109985
1771683725678868200,4.4978681640625,0.1658468246459961,-0.8125144243240356,-0.11303597688674927
1771683725689214700,4.508214599609375,-0.030416488647460938,-1.2410008907318115,0.5031991004943848
1771683725699567400,4.5185673828125,-0.1665019989013672,-1.3894569873809814,-0.11825555562973022
1771683725709938400,4.5289384765625,0.2538461685180664,-1.148417353630066,0.22454050183296204
1771683725720282400,4.539282470703125,0.7137594223022461,-1.108224630355835,-0.3228016793727875
1771683725730640000,4.549639892578125,-0.579411506652832,-1.6485674381256104,-0.46948903799057007
1771683725740997400,4.559997314453125,0.19288921356201172,-1.2927298545837402,-0.03796890377998352
1771683725751355100,4.570355224609375,0.3522205352783203,-1.004305362701416,0.2632162868976593
1771683725761712400,4.58071240234375,-0.11421871185302734,-1.65205717086792,-0.08783367276191711
1771683725772078800,4.591078857421875,0.13421344757080078,-1.5136020183563232,0.09218522906303406
1771683725782427400,4.601427490234375,0.18394088745117188,-1.0075534582138062,0.13692092895507812
1771683725792802600,4.611802490234375,0.2287311553955078,-1.4264150857925415,-0.020585209131240845
1771683725803142400,4.622142333984375,0.16368675231933594,-1.3482773303985596,-0.14262080192565918
1771683725813526300,4.6325263671875,0.15602684020996094,-1.291380763053894,0.24950870871543884
1771683725823857400,4.642857421875,0.15321826934814453,-1.958348035812378,0.09597539901733398
1771683725834219300,4.65321923828125,0.2005443572998047,-1.1318060159683228,-0.13613036274909973
1771683725844572400,4.663572509765625,-0.03394603729248047,-1.2973213195800781,0.07895112037658691
1771683725854943000,4.67394287109375,0.11885356903076172,-1.727858066558838,0.13119032979011536
1771683725865287400,4.684287353515625,-0.06527996063232422,-1.6990547180175781,0.03074193000793457
1771683725875666700,4.694666748046875,0.6031599044799805,-1.0568461418151855,0.22376245260238647
1771683725886002400,4.70500244140625,-0.24333667755126953,-1.669029712677002,-0.2379980832338333
1771683725896390100,4.71539013671875,-0.001651763916015625,-1.786412239074707,-0.3285213112831116
1771683725906717400,4.725717529296875,0.27045631408691406,-0.790860116481781,-0.013614416122436523
1771683725917083400,4.73608349609375,-0.056430816650390625,-1.292013168334961,0.11507487297058105
1771683725927432400,4.746432373046875,-0.26491451263427734,-1.7454272508621216,0.06347325444221497
1771683725937807000,4.75680712890625,-0.20876789093017578,-1.188924789428711,0.05557015538215637
1771683725948147500,4.7671474609375,0.3264341354370117,-0.8410263061523438,-0.12940359115600586
1771683725958530600,4.777530517578125,-0.4061250686645508,-1.9394190311431885,-0.14077016711235046
1771683725968877300,4.787877197265625,0.7535924911499023,-1.2154600620269775,-0.046631962060928345
1771683725979220000,4.798219970703125,-0.8990488052368164,-1.1568925380706787,0.31751149892807007
1771683725989600800,4.808600830078125,1.2430295944213867,-1.4418169260025024,0.14754018187522888
1771683725999935000,4.81893505859375,0.08809852600097656,-1.3920469284057617,-0.08312943577766418
1771683726010294000,4.8292939453125,0.7053804397583008,-0.7072475552558899,0.07005012035369873
1771683726020650000,4.83964990234375,-0.059411048889160156,-1.2367725372314453,0.09002605080604553
1771683726031017700,4.850017822265625,0.1766824722290039,-1.0788724422454834,0.3063540756702423
1771683726041365000,4.860364990234375,0.7358379364013672,-0.8890165090560913,0.22954770922660828
1771683726051741200,4.8707412109375,-0.27681827545166016,-1.3135133981704712,0.06992173194885254
1771683726062080000,4.881080078125,0.28989505767822266,-1.4937338829040527,-0.1604176163673401
1771683726072465000,4.89146484375,-0.3268270492553711,-1.3646267652511597,-0.03523948788642883
1771683726082795300,4.901795166015625,0.1750326156616211,-1.5552542209625244,0.03200092911720276
1771683726093158100,4.912158203125,0.09441089630126953,-0.47749343514442444,0.02580094337463379
1771683726103510300,4.92251025390625,0.7092533111572266,-0.0004900097846984863,0.3531484603881836
1771683726113881600,4.932881591796875,-0.161407470703125,-1.1085851192474365,-0.05244624614715576
1771683726124225300,4.943225341796875,-0.2952566146850586,-0.4551129937171936,0.07744097709655762
1771683726134605300,4.953605224609375,0.8602476119995117,-0.104361891746521,-0.0010750889778137207
1771683726144940000,4.96393994140625,-0.12354278564453125,-0.3101746141910553,0.5909416079521179
1771683726155298600,4.974298583984375,0.2314434051513672,-0.619121789932251,0.0035016536712646484
1771683726165655300,4.9846552734375,0.22523880004882812,0.07459655404090881,0.0018988251686096191
1771683726176022000,4.99502197265625,0.11087608337402344,0.11953070759773254,-0.07230544090270996
1771683726186399200,5.005399169921875,-0.09798526763916016,-0.20173290371894836,-0.3157343566417694
1771683726196745700,5.015745849609375,-0.2069387435913086,0.1062590479850769,-0.06253862380981445
1771683726207085300,5.026085205078125,0.3212547302246094,-0.21237026154994965,0.12458616495132446
1771683726217469400,5.036469482421875,-0.4793844223022461,-0.033872246742248535,0.045745849609375
1771683726227800300,5.04680029296875,0.2321634292602539,0.04512530565261841,-0.2510378658771515
1771683726238162400,5.057162353515625,-0.19991779327392578,-0.15473061800003052,-0.22515946626663208
1771683726248539600,5.06753955078125,0.33287906646728516,-0.03874841332435608,-0.1695556640625
1771683726258886100,5.07788623046875,-0.02085399627685547,0.1461372971534729,-0.16441206634044647
1771683726269232600,5.088232666015625,-0.20165538787841797,-0.09063589572906494,0.24813571572303772
1771683726279587800,5.098587890625,-0.0029544830322265625,-0.3899025619029999,-0.023899316787719727
1771683726289956400,5.108956298828125,-0.1246337890625,0.3446173667907715,-0.47480419278144836
1771683726300302800,5.119302734375,-0.26271915435791016,0.10598766803741455,-0.3828338384628296
1771683726310680000,5.12968017578125,-0.43387794494628906,-0.1369972676038742,-0.312335729598999
1771683726321017900,5.140017822265625,0.4837923049926758,0.38925665616989136,-0.14183038473129272
1771683726331403800,5.15040380859375,-0.39814090728759766,-0.28111597895622253,-0.09341847896575928
1771683726341732900,5.16073291015625,0.022983551025390625,-0.17231063544750214,-0.23620903491973877
1771683726352096800,5.1710966796875,-0.13455772399902344,0.40912875533103943,-0.6009349822998047
1771683726362448000,5.18144775390625,0.0925750732421875,0.2424214780330658,-0.3110145330429077
1771683726372820500,5.191820556640625,-0.20833396911621094,-0.3156189024448395,-0.1963157206773758
1771683726383163000,5.202162841796875,-0.19822025299072266,-0.031900495290756226,-0.07914432883262634
1771683726393544200,5.212544189453125,0.19138336181640625,0.06505388021469116,-0.019862622022628784
1771683726403878000,5.2228779296875,-0.1813812255859375,-0.01259353756904602,-0.3809354305267334
1771683726414237200,5.2332373046875,0.05304145812988281,0.29681316018104553,-0.47623658180236816
1771683726424593000,5.243593017578125,-0.21195507049560547,-0.12247256934642792,-0.2567405700683594
1771683726434961000,5.2539609375,-0.19226646423339844,-0.0659775584936142,0.05579039454460144
1771683726445308000,5.264307861328125,0.605494499206543,0.15770268440246582,0.09494611620903015
1771683726455684600,5.2746845703125,-0.25045108795166016,-0.09366346895694733,0.0218849778175354
1771683726466061600,5.2850615234375,0.27535152435302734,-0.2516295909881592,-0.07975888252258301
1771683726476408000,5.295407958984375,0.26041412353515625,0.12049508094787598,-0.08787268400192261
1771683726486738000,5.305738037109375,0.2980318069458008,0.5899854898452759,-0.03207898139953613
1771683726497101300,5.316101318359375,-0.11159133911132812,-0.46986067295074463,0.287631094455719
1771683726507453000,5.326452880859375,-0.07201862335205078,-0.3171818256378174,0.2772515118122101
1771683726517825000,5.336824951171875,0.47276782989501953,0.4354899525642395,-0.005773574113845825
1771683726528168000,5.34716796875,-0.3515357971191406,0.2702239155769348,-0.04420080780982971
1771683726538548500,5.357548583984375,-0.4209136962890625,-0.1303015500307083,-0.20899246633052826
1771683726548895200,5.367895263671875,0.019072532653808594,0.0807366669178009,0.26946231722831726
1771683726559241700,5.37824169921875,0.5858592987060547,-0.06227573752403259,0.3748118579387665
1771683726569618700,5.38861865234375,-0.34149932861328125,-0.15120479464530945,0.15357518196105957
1771683726579955500,5.39895556640625,-0.008699417114257812,0.2058781385421753,-0.25196340680122375
1771683726590342400,5.40934228515625,0.11388969421386719,0.7585010528564453,-0.053414493799209595
1771683726600670500,5.41967041015625,0.728515625,2.2978804111480713,0.33044198155403137
1771683726611035600,5.43003564453125,-0.3919239044189453,-1.5835784673690796,0.07544118165969849
1771683726621385500,5.440385498046875,-0.9351387023925781,-2.066241502761841,-0.21693280339241028
1771683726631759000,5.450759033203125,-0.7799091339111328,0.9922179579734802,0.03288748860359192
1771683726642100500,5.4611005859375,2.4662933349609375,2.1793675422668457,-0.49999743700027466
1771683726652482800,5.47148291015625,-0.15323257446289062,1.6803491115570068,0.3055426776409149
1771683726662815500,5.4818154296875,-0.7811832427978516,-1.629857063293457,0.4814905524253845
1771683726673176000,5.492176025390625,-0.6218481063842773,-1.2604585886001587,-0.06369075179100037
1771683726683530500,5.502530517578125,-0.1544361114501953,1.6929097175598145,-0.01319989562034607
1771683726693899500,5.5128994140625,0.3738899230957031,1.819922685623169,-0.18677613139152527
1771683726704245500,5.52324560546875,-0.560460090637207,-0.7004455327987671,-0.6750338077545166
1771683726714623200,5.533623291015625,-0.44922447204589844,-0.5835135579109192,-0.7205029726028442
1771683726724960500,5.54396044921875,0.7859067916870117,0.7308578491210938,0.1353805959224701
1771683726735347000,5.554346923828125,-0.4523754119873047,0.4650701582431793,-0.02522936463356018
1771683726745675500,5.564675537109375,0.45099830627441406,1.2630259990692139,0.18013101816177368
1771683726756040000,5.5750400390625,-0.3282604217529297,-0.07681500911712646,0.3592364490032196
1771683726766417200,5.585417236328125,-0.8692207336425781,-0.8099313974380493,-0.3651497960090637
1771683726776763600,5.595763671875,-0.7452926635742188,0.7050800323486328,-0.617601752281189
1771683726787110100,5.606110107421875,0.6171512603759766,2.232247829437256,-0.5928464531898499
1771683726797487400,5.6164873046875,-0.9382858276367188,0.6143373250961304,0.37091684341430664
1771683726807820500,5.626820556640625,0.08080387115478516,-1.6194547414779663,0.1807195246219635
1771683726818180400,5.637180419921875,-0.6593046188354492,-0.08119100332260132,0.2544010877609253
1771683726828557600,5.6475576171875,1.1802692413330078,2.1117360591888428,-0.28601133823394775
1771683726838904000,5.657904052734375,0.012495994567871094,1.150309443473816,-0.12285086512565613
1771683726849250600,5.66825048828125,-0.4696636199951172,-1.0413763523101807,-0.33521443605422974
1771683726859608000,5.678608154296875,-0.9052829742431641,0.08951103687286377,0.126907616853714
1771683726869974300,5.688974365234375,0.8680305480957031,1.8749959468841553,0.22145414352416992
1771683726880323000,5.699322998046875,-0.5853681564331055,0.7685643434524536,0.23743537068367004
1771683726890698000,5.709697998046875,-0.25695133209228516,-0.111797034740448,0.02310141921043396
1771683726901038000,5.7200380859375,-0.3327198028564453,0.277707040309906,0.11431407928466797
1771683726911421700,5.730421630859375,0.07380962371826172,0.3154349625110626,0.0007839202880859375
1771683726921753000,5.740753173828125,0.15474319458007812,0.7914383411407471,-0.19839780032634735
1771683726932114700,5.75111474609375,0.6794309616088867,1.0065159797668457,0.35905495285987854
1771683726942468400,5.76146826171875,-0.24840927124023438,-0.09673234820365906,0.4813973009586334
1771683726952838400,5.77183837890625,0.12456321716308594,0.1482561230659485,0.3617493212223053
1771683726963183000,5.78218310546875,-0.21712398529052734,0.8508483171463013,0.11745291948318481
1771683726973562000,5.79256201171875,0.6808719635009766,1.3298914432525635,-0.46910879015922546
1771683726983898000,5.802898193359375,-0.7362833023071289,0.45471879839897156,-0.11512517929077148
1771683726994285600,5.81328564453125,-0.047059059143066406,-0.6450848579406738,0.03925049304962158
1771683727004613400,5.82361328125,-0.5338764190673828,0.40973612666130066,0.2943520247936249
1771683727014978800,5.833978759765625,0.9568004608154297,1.9111915826797485,0.5871474742889404
1771683727025328400,5.844328369140625,0.6512212753295898,1.1798251867294312,0.051045387983322144
1771683727035702500,5.85470263671875,0.03137969970703125,-0.2756883502006531,-0.5271773934364319
1771683727046049000,5.865049072265625,-1.014150619506836,-1.0622456073760986,-0.06758201122283936
1771683727056426000,5.875426025390625,0.656834602355957,1.007508635520935,-0.36223822832107544
1771683727066758400,5.88575830078125,-0.7100868225097656,1.8319950103759766,-0.2429233193397522
1771683727077119200,5.896119140625,1.0770549774169922,1.1981987953186035,-0.2601468861103058
1771683727087473400,5.906473388671875,-0.37200450897216797,0.10544213652610779,-0.31675708293914795
1771683727097843000,5.916843017578125,-0.10608959197998047,-0.5528644323348999,-0.38932445645332336
1771683727108189400,5.927189453125,-0.1152496337890625,0.3485758900642395,0.06441733241081238
1771683727118566400,5.93756640625,-0.04807567596435547,1.6537697315216064,0.03393307328224182
1771683727128913200,5.9479130859375,0.32685184478759766,1.5909899473190308,-0.01185491681098938
1771683727139290000,5.9582900390625,-0.6047992706298828,0.24443072080612183,-0.2691456377506256
1771683727149636600,5.96863671875,-0.30962276458740234,0.0035372376441955566,-0.7342128157615662
1771683727159976000,5.978975830078125,0.40012359619140625,1.0883874893188477,-0.7975730895996094
1771683727170360300,5.9893603515625,-0.135467529296875,0.8058134317398071,-0.40024706721305847
1771683727180691000,5.99969091796875,-0.3045177459716797,0.14865413308143616,0.4641594886779785
1771683727191053600,6.010053466796875,-0.6139736175537109,0.84382164478302,0.6346733570098877
1771683727201406000,6.020406005859375,-0.6124391555786133,1.8912420272827148,0.44768497347831726
1771683727211777000,6.030777099609375,0.33905982971191406,1.542936086654663,-0.4822002053260803
1771683727222121000,6.041120849609375,-1.0986661911010742,0.2691766023635864,-0.7720609307289124
1771683727232478500,6.051478515625,0.8159523010253906,0.5524539947509766,-1.3527271747589111
1771683727242836000,6.0618359375,0.10742759704589844,-0.6032238006591797,-0.6492190361022949
1771683727253194000,6.072194091796875,-0.7353477478027344,-0.14161524176597595,0.4975390136241913
1771683727263551000,6.082551025390625,0.3596343994140625,2.1093876361846924,0.9650267362594604
1771683727273917400,6.09291748046875,0.42076587677001953,1.0723860263824463,0.6126976609230042
1771683727284266000,6.103265869140625,-2.781116485595703,-0.843722939491272,0.70998215675354
1771683727294641200,6.11364111328125,-0.08894634246826172,0.36137130856513977,-0.7507063150405884
1771683727304981000,6.12398095703125,1.3196640014648438,3.2213406562805176,-0.9142066836357117
1771683727315364900,6.13436474609375,0.025043487548828125,2.011353015899658,-0.903010368347168
1771683727325696000,6.144696044921875,1.1347665786743164,-1.8734240531921387,-0.21626178920269012
1771683727336057900,6.155057861328125,-0.07593822479248047,-1.6093021631240845,0.32072606682777405
1771683727346411000,6.165410888671875,-0.6722984313964844,-0.2652023434638977,1.130738615989685
1771683727356781600,6.175781494140625,1.1843852996826172,2.3368866443634033,0.47757527232170105
1771683727367126000,6.1861259765625,-0.5107145309448242,1.6431277990341187,-0.43419960141181946
1771683727377505300,6.19650537109375,-2.4882922172546387,-0.8732497692108154,-0.23357157409191132
1771683727387841000,6.206841064453125,-0.5703296661376953,-0.4017941653728485,0.08254072070121765
1771683727398229000,6.21722900390625,1.6535520553588867,2.57010555267334,0.13619345426559448
1771683727408575500,6.227575439453125,0.6756067276000977,2.0237679481506348,-0.1420620083808899
1771683727418922000,6.237921875,1.000838279724121,-1.0734643936157227,-0.11134904623031616
1771683727429299200,6.24829931640625,0.18454647064208984,-0.6604200601577759,-0.027074366807937622
1771683727439628500,6.258628662109375,1.2557687759399414,2.1364340782165527,0.2378694713115692
1771683727449992200,6.2689921875,-0.7856416702270508,-1.0734997987747192,-0.011420726776123047
1771683727460343600,6.279343505859375,-0.13674449920654297,1.0862765312194824,-0.604571521282196
1771683727470716000,6.2897158203125,-1.1173686981201172,1.2461026906967163,0.18369078636169434
1771683727481058600,6.30005859375,-0.6539344787597656,0.41411229968070984,0.5806683897972107
1771683727491439600,6.310439697265625,-1.5951251983642578,0.31689175963401794,0.948209285736084
1771683727501773600,6.320773681640625,1.5165290832519531,2.3919949531555176,-0.07492747902870178
1771683727512132600,6.331132568359375,-1.3516035079956055,0.1599353551864624,-0.29215681552886963
1771683727522488600,6.341488525390625,1.1197824478149414,-0.18824446201324463,-0.704974889755249
1771683727532856300,6.351856201171875,0.4701852798461914,0.9974091053009033,0.29256486892700195
1771683727543203600,6.36220361328125,0.9368095397949219,0.25447624921798706,0.1688731610774994
1771683727553580000,6.372580078125,-0.08703136444091797,0.46154236793518066,0.27953553199768066
1771683727563918600,6.382918701171875,-0.2968626022338867,0.7413897514343262,-0.011388242244720459
1771683727574303500,6.393303466796875,-0.9310646057128906,0.1472035050392151,-0.17684270441532135
1771683727584633600,6.403633544921875,-1.0337486267089844,0.764254093170166,0.11319121718406677
1771683727594996700,6.413996826171875,-0.9262847900390625,1.9919171333312988,0.2567618787288666
1771683727605348900,6.424348876953125,0.21207523345947266,1.152815580368042,-0.11323055624961853
1771683727615720400,6.434720458984375,-1.0297479629516602,-0.2530611753463745,-0.4538620412349701
1771683727626067000,6.44506689453125,0.6411609649658203,0.4208143353462219,-0.07651865482330322
1771683727636444000,6.45544384765625,0.978398323059082,0.8139322996139526,0.05918988585472107
1771683727646778600,6.465778564453125,0.7038049697875977,0.3062818646430969,-0.03575807809829712
1771683727657137200,6.47613720703125,-0.24797725677490234,-0.7521381974220276,-0.3249496519565582
1771683727667514000,6.48651416015625,-0.07551765441894531,0.008482158184051514,-0.3353554904460907
1771683727677860900,6.49686083984375,-0.6195755004882812,0.6486098766326904,-0.07860162854194641
1771683727688237800,6.50723779296875,-1.1575241088867188,1.1081902980804443,-0.08686849474906921
1771683727698584300,6.517584228515625,0.20816802978515625,1.2858426570892334,0.021091967821121216
1771683727708931000,6.52793115234375,-0.823542594909668,0.21656161546707153,-0.173913836479187
1771683727719308000,6.53830810546875,0.321746826171875,0.5290494561195374,-0.3298031687736511
1771683727729639000,6.548638916015625,1.1085548400878906,0.5517047047615051,-0.4091261327266693
1771683727739996400,6.558996337890625,0.8599395751953125,0.32141804695129395,0.4722824990749359
1771683727750378200,6.569378173828125,0.32317066192626953,-0.6802977323532104,-0.6360737681388855
1771683727760711400,6.57971142578125,0.00740814208984375,0.17909812927246094,-0.0025910139083862305
1771683727771071500,6.590071533203125,-0.018761634826660156,1.2912365198135376,-0.3198486864566803
1771683727781426400,6.600426513671875,1.6856975555419922,3.3670716285705566,-0.5933259129524231
1771683727791795000,6.610794921875,-0.8914327621459961,1.8468403816223145,-0.3615168333053589
1771683727802141400,6.621141357421875,0.3496723175048828,-0.1252107322216034,0.008697569370269775
1771683727812518700,6.6315185546875,-0.17849445343017578,-0.4783341586589813,-0.591810405254364
1771683727822856400,6.6418564453125,-0.21612548828125,-0.1540968120098114,0.29694435000419617
1771683727833242400,6.652242431640625,-0.5901632308959961,1.0183355808258057,0.013880699872970581
1771683727843571500,6.662571533203125,0.20142841339111328,0.16334688663482666,0.11751800775527954
1771683727853935400,6.672935302734375,-0.6749191284179688,-0.22507750988006592,0.1350383162498474
1771683727864286500,6.683286376953125,-0.1456003189086914,1.0787938833236694,0.4805915057659149
1771683727874659000,6.6936591796875,1.172475814819336,3.1650590896606445,-0.5295146703720093
1771683727885001500,6.70400146484375,-0.6037673950195312,1.8435909748077393,-0.10020077228546143
1771683727895382800,6.7143828125,-1.237034797668457,-0.8410729169845581,-1.133515477180481
1771683727905716500,6.724716552734375,0.2675790786743164,-0.03692430257797241,0.2545122504234314
1771683727916075800,6.73507568359375,-0.654301643371582,1.1487207412719727,0.5720304250717163
1771683727926431500,6.745431396484375,-0.3136911392211914,-0.384339839220047,0.8132750988006592
1771683727936799500,6.755799560546875,-1.2961835861206055,0.001202225685119629,0.4776589572429657
1771683727947146500,6.766146484375,0.8123970031738281,2.5238819122314453,-0.5890378952026367
1771683727957523200,6.776523193359375,-0.21829795837402344,2.5679244995117188,-0.08225968480110168
1771683727967861500,6.786861572265625,-0.04812145233154297,1.3933684825897217,-0.5170440673828125
1771683727978219000,6.797218994140625,-0.26751708984375,0.8244702219963074,0.34771648049354553
1771683727988593400,6.807593505859375,0.26075077056884766,-0.7162387371063232,0.04334422945976257
1771683727998940000,6.81793994140625,-0.19333553314208984,0.7524954676628113,0.5299725532531738
1771683728009317000,6.828317138671875,-0.17618751525878906,-0.024406909942626953,0.6265416145324707
1771683728019649000,6.83864892578125,-1.3573017120361328,-1.330232858657837,0.37391695380210876
1771683728030010000,6.849010009765625,0.4959373474121094,1.2769392728805542,0.10968738794326782
1771683728040364000,6.859364013671875,-0.3789968490600586,1.9756734371185303,0.5753811597824097
1771683728050733800,6.86973388671875,0.31414031982421875,1.7232272624969482,0.1575794219970703
1771683728061079000,6.8800791015625,-0.4983491897583008,1.5728516578674316,0.05354788899421692
1771683728071457500,6.89045751953125,-0.26808929443359375,-0.5030819773674011,-0.27053868770599365
1771683728081794000,6.9007939453125,-0.0743093490600586,-0.558404803276062,0.5576326847076416
1771683728092181000,6.911180908203125,0.30051136016845703,-0.6269126534461975,0.08119469881057739
1771683728102509000,6.921509033203125,-1.79132080078125,-0.6387401223182678,0.9866621494293213
1771683728112874200,6.931874267578125,1.3637056350708008,1.7788583040237427,0.46022504568099976
1771683728123224000,6.94222412109375,1.6561431884765625,3.2023050785064697,0.021106183528900146
1771683728133598000,6.952597900390625,0.31273365020751953,2.5508971214294434,-0.29060065746307373
1771683728143939000,6.96293896484375,-0.6043834686279297,0.32557594776153564,-0.7164930105209351
1771683728154321400,6.9733212890625,1.6647253036499023,-0.18440207839012146,-0.38229748606681824
1771683728164654300,6.983654296875,-2.175192356109619,-0.45759117603302,0.09243440628051758
1771683728175014700,6.9940146484375,0.054780006408691406,-0.9688779711723328,0.16951948404312134
1771683728185369300,7.004369384765625,-0.783106803894043,0.011247694492340088,0.7305446863174438
1771683728195738400,7.01473828125,1.1451025009155273,2.3313674926757812,0.3311891257762909
1771683728206115300,7.025115234375,0.2924022674560547,2.274488925933838,-0.5768079161643982
1771683728216461800,7.0354619140625,0.82159423828125,2.473705291748047,-0.9410271048545837
1771683728226799400,7.04579931640625,-0.46207237243652344,0.8525686264038086,-0.3345045745372772
1771683728237185500,7.056185546875,-0.7735052108764648,0.4394301176071167,-0.21830081939697266
1771683728247514400,7.066514404296875,-0.752558708190918,-1.0846236944198608,-0.285693883895874
1771683728257878800,7.076878662109375,-0.2995891571044922,-0.8796014189720154,0.5729954242706299
1771683728268229400,7.0872294921875,-0.11750507354736328,0.21187472343444824,0.31876614689826965
1771683728278602200,7.097602294921875,0.1572246551513672,1.8930763006210327,0.0754120945930481
1771683728288949000,7.107948974609375,-0.4901590347290039,1.4911987781524658,-0.5430746078491211
1771683728299326000,7.118325927734375,1.205723762512207,1.7983078956604004,-0.614295244216919
1771683728309672400,7.12867236328125,-1.585322380065918,0.0496143102645874,0.34587135910987854
1771683728320017000,7.139016845703125,0.576298713684082,-0.9457201957702637,-0.31520912051200867
1771683728330396200,7.149396240234375,-0.48975276947021484,-0.5398988723754883,0.8855598568916321
1771683728340732000,7.15973193359375,0.9029979705810547,1.770078182220459,-0.17720390856266022
1771683728351120000,7.170119873046875,-0.12565135955810547,1.6062195301055908,0.5779457092285156
1771683728361447000,7.180447021484375,1.5383663177490234,1.437015414237976,-0.727768063545227
1771683728371812900,7.190812744140625,-1.0288801193237305,0.5973896384239197,0.688849925994873
1771683728382162000,7.201161865234375,0.0669088363647461,0.5518022179603577,0.060091763734817505
1771683728392536600,7.21153662109375,-1.8856806755065918,-0.7101588845252991,0.821560800075531
1771683728402877000,7.221876953125,0.2241840362548828,0.7364560961723328,0.6439652442932129
1771683728413260300,7.23226025390625,0.7511491775512695,2.113602638244629,-0.09027165174484253
1771683728423592000,7.242592041015625,-0.2771615982055664,1.270128607749939,0.371082603931427
1771683728433953300,7.252953369140625,0.6376962661743164,0.33021050691604614,0.042395174503326416
1771683728444307000,7.263306884765625,-0.5668497085571289,0.4424709677696228,0.17557495832443237
1771683728454677000,7.273677001953125,-0.47714900970458984,0.12355107069015503,0.9545762538909912
1771683728465022000,7.28402197265625,-1.7625398635864258,-0.6965669989585876,0.6503245830535889
1771683728475400700,7.294400634765625,1.8030719757080078,2.3326916694641113,-0.7964248657226562
1771683728485737000,7.304737060546875,-1.0729398727416992,2.1225221157073975,0.20982104539871216
1771683728496124400,7.31512451171875,0.20900249481201172,-0.04028803110122681,-0.5575016736984253
1771683728506452000,7.325451904296875,-0.7964677810668945,0.3819183111190796,0.9408111572265625
1771683728516817400,7.3358173828125,0.4059257507324219,0.7808749079704285,0.6065196990966797
1771683728527167000,7.3461669921875,-1.4760961532592773,-0.9938925504684448,0.7730565667152405
1771683728537541000,7.356541015625,0.5467510223388672,0.5451906323432922,-0.27067357301712036
1771683728547882000,7.366882080078125,1.2017345428466797,2.8814449310302734,-0.8436177968978882
1771683728558264800,7.377264892578125,-0.5033063888549805,1.4389867782592773,-0.09886619448661804
1771683728568611300,7.387611328125,1.6795740127563477,-0.062258005142211914,-1.0311919450759888
1771683728578957800,7.397957763671875,-1.5110998153686523,0.39606809616088867,0.15888828039169312
1771683728589335000,7.4083349609375,-0.10396003723144531,-0.06512624025344849,0.6948925256729126
1771683728599669800,7.418669677734375,-1.3831005096435547,-0.041645169258117676,0.27306556701660156
1771683728610028000,7.429028076171875,1.253037452697754,2.8249988555908203,-0.6463408470153809
1771683728620384500,7.439384521484375,-1.349588394165039,1.3875281810760498,-0.5799164175987244
1771683728630751700,7.449751708984375,0.7756490707397461,0.18338924646377563,-0.9568196535110474
1771683728641099500,7.460099609375,-0.19785118103027344,0.9805483818054199,0.1673268973827362
1771683728651475500,7.470475341796875,-0.2954139709472656,-0.8587324619293213,0.005484819412231445
1771683728661814800,7.480814697265625,0.28523921966552734,0.7199617624282837,0.6019299030303955
1771683728672199000,7.491198974609375,0.7402534484863281,1.8027374744415283,0.04441198706626892
1771683728682529800,7.50152978515625,-0.06853961944580078,0.6892302632331848,-0.7971469163894653
1771683728692892200,7.51189208984375,0.5258941650390625,0.4747883677482605,-0.7093790769577026
1771683728703244800,7.522244873046875,-0.5400638580322266,0.4461820721626282,-0.253402441740036
1771683728713616000,7.532615966796875,-0.8634281158447266,-0.888211190700531,0.2971762716770172
1771683728723959800,7.542959716796875,-1.1095914840698242,0.28584933280944824,0.0867868959903717
1771683728734339300,7.55333935546875,3.072509765625,2.675067663192749,-0.5679900646209717
1771683728744674800,7.5636748046875,-1.393899917602539,0.6908316016197205,-0.09318041801452637
1771683728755032600,7.574032470703125,2.9847564697265625,-0.2502448856830597,-1.1621943712234497
1771683728765389800,7.584389892578125,0.628814697265625,0.37710481882095337,0.1411246955394745
1771683728775756300,7.59475634765625,-1.3323097229003906,-1.1569578647613525,0.4680894911289215
1771683728786133200,7.60513330078125,-0.5292530059814453,-0.08088946342468262,1.5772770643234253
1771683728796479700,7.615479736328125,3.1981210708618164,3.2888457775115967,-1.0299468040466309
1771683728806826500,7.625826416015625,-3.299793243408203,0.39086633920669556,0.42518821358680725
1771683728817203500,7.636203369140625,1.553976058959961,-0.29920968413352966,-1.4954684972763062
1771683728827534800,7.646534912109375,0.8414344787597656,0.9100834727287292,0.17804965376853943
1771683728837896700,7.656896728515625,-1.9652085304260254,-0.4273635149002075,1.0388803482055664
1771683728848273700,7.667273681640625,-0.294097900390625,0.5507141351699829,0.6980904936790466
1771683728858620200,7.6776201171875,3.9005680084228516,3.225804090499878,0.444312185049057
1771683728868967000,7.687966796875,-3.5370235443115234,0.3097164034843445,0.22039097547531128
1771683728879343900,7.69834375,0.6275844573974609,-0.5811219215393066,-1.9837205410003662
1771683728889690400,7.7086904296875,0.3160381317138672,0.2686729431152344,0.4117507338523865
1771683728900037400,7.719037353515625,-3.4893007278442383,0.552664041519165,0.6939886808395386
1771683728910414000,7.7294140625,0.8468160629272461,3.00252628326416,0.10377609729766846
1771683728920752400,7.73975244140625,1.7111845016479492,2.536247968673706,-0.09077280759811401
1771683728931137800,7.7501376953125,-4.675610065460205,-0.8598582148551941,-0.2871648669242859
1771683728941467400,7.76046728515625,3.697336196899414,0.20525813102722168,0.025294363498687744
1771683728951830800,7.770830810546875,-1.0854969024658203,0.4178314208984375,0.26717835664749146
1771683728962182400,7.781182373046875,-2.197488307952881,0.325445294380188,0.6105785965919495
1771683728972554500,7.791554443359375,2.424149513244629,2.703796148300171,0.2331843376159668
1771683728982897400,7.8018974609375,0.7331304550170898,1.4210877418518066,-0.9312915802001953
1771683728993278200,7.8122783203125,-5.052155494689941,-0.46179041266441345,-1.2097152471542358
1771683729003612400,7.8226123046875,3.8516359329223633,-0.9658071994781494,-0.647385835647583
1771683729013971200,7.83297119140625,-1.3133878707885742,1.2328336238861084,0.5348094701766968
1771683729024327400,7.843327392578125,-2.570734977722168,1.9160971641540527,0.9102923274040222
1771683729034695000,7.85369482421875,3.82283878326416,2.132633924484253,-0.8128272294998169
1771683729045042400,7.86404248046875,-3.4569520950317383,-0.5212876796722412,0.830115556716919
1771683729055418600,7.874418701171875,0.9529247283935547,0.6539615988731384,-1.2258810997009277
1771683729065757400,7.88475732421875,1.5592241287231445,-0.9032074809074402,0.03490319848060608
1771683729076142300,7.895142333984375,-2.1276497840881348,1.806064248085022,1.1246936321258545
1771683729086472700,7.90547265625,1.066166877746582,2.5750632286071777,0.3517630696296692
1771683729096835300,7.91583544921875,2.6245317459106445,1.0311219692230225,-0.5586603879928589
1771683729107187700,7.926187744140625,-4.836187362670898,-0.9046070575714111,0.37831515073776245
1771683729117559000,7.93655908203125,2.1574583053588867,-1.2275866270065308,0.5280804634094238
1771683729127902700,7.94690283203125,2.037557601928711,2.1185011863708496,0.28601810336112976
1771683729138282800,7.95728271484375,-3.3888468742370605,1.2690805196762085,0.906652569770813
1771683729148629200,7.967629150390625,2.842228889465332,0.44332993030548096,-0.0470903217792511
1771683729158975700,7.977975830078125,-0.7569637298583984,0.7042263150215149,0.03715333342552185
1771683729169353000,7.98835302734375,-0.18251419067382812,-0.049762725830078125,-0.07169589400291443
1771683729179690200,7.998690185546875,2.1883039474487305,0.5760043859481812,0.7311645150184631
1771683729190076400,8.009076416015626,-0.7770290374755859,2.261009693145752,1.206328272819519
1771683729200405200,8.0194052734375,0.31076717376708984,1.4353365898132324,0.24586310982704163
1771683729210769700,8.029769775390625,-1.114715576171875,-0.934098482131958,0.7121536731719971
1771683729221120300,8.040120361328125,-1.6681337356567383,-1.045247197151184,0.6592670679092407
1771683729231477800,8.050477783203124,3.2552385330200195,2.5125010013580322,-0.3630039393901825
1771683729241835300,8.060835205078124,-2.154733657836914,1.3704545497894287,0.5040956139564514
1771683729252216800,8.071216796875,0.8700122833251953,0.6130480766296387,-1.143926739692688
1771683729262550300,8.08155029296875,-0.6167116165161133,-0.41177740693092346,0.30529314279556274
1771683729272910000,8.09191015625,-0.7991008758544922,-0.10124289989471436,0.20579677820205688
1771683729283265300,8.102265380859375,0.5872325897216797,1.8206254243850708,0.24152758717536926
1771683729293633800,8.1126337890625,-0.11857891082763672,2.506497859954834,-0.40061938762664795
1771683729303980300,8.122980224609375,-0.9156646728515625,-0.3346564769744873,-1.2169147729873657
1771683729314337800,8.133337890625,-0.3046865463256836,-0.6223162412643433,-0.5271459817886353
1771683729324695300,8.1436953125,-1.3519916534423828,1.3643399477005005,0.4061204493045807
1771683729335081000,8.1540810546875,1.653822898864746,2.608743667602539,0.5763149857521057
1771683729345410300,8.164410400390626,-1.5274810791015625,0.19992834329605103,0.554509162902832
1771683729355774200,8.174774169921875,0.37375354766845703,-0.43098828196525574,-1.0197508335113525
1771683729366151200,8.185151123046875,-0.6632013320922852,-0.4579075276851654,-0.12426312267780304
1771683729376497700,8.19549755859375,-0.33939552307128906,1.2019522190093994,-0.1448289304971695
1771683729386844400,8.205844482421876,1.9024419784545898,3.3246543407440186,-0.22788318991661072
1771683729397221400,8.216221435546874,-2.2532997131347656,1.023597240447998,-0.8224380016326904
1771683729407555300,8.226555419921874,0.9271945953369141,-0.05383855104446411,-0.5228511691093445
1771683729417914600,8.23691455078125,-2.44517183303833,-0.4914356768131256,0.2635829448699951
1771683729428291600,8.24729150390625,2.2175674438476562,2.022986650466919,1.0733903646469116
1771683729438638000,8.25763818359375,-0.16314315795898438,1.9734764099121094,-0.13331036269664764
1771683729449015300,8.268015380859374,-0.5779666900634766,0.777171790599823,-0.42806193232536316
1771683729459361800,8.27836181640625,0.0970001220703125,-0.5983487367630005,-0.9252418279647827
1771683729469708300,8.288708251953125,-0.4855060577392578,0.12491965293884277,-0.03501215577125549
1771683729480057900,8.299057861328125,1.2531805038452148,2.788829803466797,-0.3160218894481659
1771683729490432000,8.309431884765624,0.13783740997314453,1.5771714448928833,0.13448524475097656
1771683729500772900,8.31977294921875,-1.5471391677856445,-0.6976453065872192,-0.15110790729522705
1771683729511155700,8.33015576171875,-0.7767238616943359,-0.3628111481666565,-0.23603175580501556
1771683729521488100,8.340488037109376,0.41634273529052734,1.3168938159942627,0.16899609565734863
1771683729531848700,8.3508486328125,0.6442232131958008,2.8341684341430664,-0.1688125729560852
1771683729542203100,8.361203125,-1.0876827239990234,0.3010637164115906,-0.6918055415153503
1771683729552572400,8.371572509765626,0.38818359375,-1.172802209854126,-0.07336844503879547
1771683729562918100,8.381918212890625,-0.3335838317871094,-0.6146436929702759,0.606629490852356
1771683729573296000,8.392296142578125,1.6887731552124023,2.8047542572021484,-0.20988377928733826
1771683729583633200,8.402633056640624,-1.0104169845581055,1.9049272537231445,0.2401038408279419
1771683729594019800,8.413019775390625,-1.1674575805664062,-0.9301689267158508,-0.4909481406211853
1771683729604348200,8.42334814453125,0.3202533721923828,-1.0210238695144653,-0.17519640922546387
1771683729614712800,8.433712890625,0.5720748901367188,2.0190014839172363,-0.0007235705852508545
1771683729625063200,8.444063232421875,1.3102788925170898,2.5325875282287598,-0.13456177711486816
1771683729635436500,8.4544365234375,-2.757566452026367,-0.4377981722354889,-0.022917747497558594
1771683729645778200,8.464778076171875,0.7701883316040039,-0.702613115310669,-0.11858305335044861
1771683729656160300,8.47516015625,0.6964645385742188,1.8420095443725586,0.23997506499290466
1771683729666493200,8.4854931640625,1.281412124633789,2.362086772918701,-0.08329892158508301
1771683729676853200,8.495853271484375,0.3261079788208008,0.5411677360534668,-1.0547786951065063
1771683729687208200,8.506208251953124,-0.6028070449829102,-0.867356538772583,-0.15014436841011047
1771683729697577000,8.516576904296874,2.4827089309692383,-1.225083589553833,0.7725318670272827
1771683729707923200,8.526923095703125,-0.19954681396484375,1.6642415523529053,0.3656770586967468
1771683729718300700,8.53730078125,0.010717391967773438,1.9133894443511963,-0.08534842729568481
1771683729728638200,8.54763818359375,-2.098719596862793,-0.3594769835472107,0.12078994512557983
1771683729739024100,8.558024169921875,-1.2816963195800781,-0.2425239086151123,0.20171555876731873
1771683729749371000,8.568370849609375,2.7000656127929688,2.5392024517059326,0.4714512825012207
1771683729759710700,8.578710693359374,-2.1788110733032227,1.5031931400299072,0.09571337699890137
1771683729770094300,8.58909423828125,-1.3544197082519531,-0.47327473759651184,0.44939711689949036
1771683729780425700,8.59942578125,1.1578788757324219,-0.8243396282196045,0.30369681119918823
1771683729790787600,8.60978759765625,0.44081878662109375,2.023158550262451,0.17629474401474
1771683729801140700,8.620140625,0.5396194458007812,1.8226747512817383,0.028418004512786865
1771683729811511300,8.63051123046875,-1.6978797912597656,-0.49471285939216614,0.1351204216480255
1771683729821855700,8.640855712890625,-1.473897933959961,-0.8100916147232056,0.07783722877502441
1771683729832234800,8.65123486328125,1.4034156799316406,1.9037408828735352,0.8704551458358765
1771683729842570800,8.66157080078125,-0.8225393295288086,2.211153507232666,0.017558008432388306
1771683729852958500,8.67195849609375,-2.281270980834961,-0.08053934574127197,-0.1133245974779129
1771683729863285800,8.68228564453125,0.47454261779785156,-0.48361292481422424,-0.20552591979503632
1771683729873651700,8.692651611328126,1.1844568252563477,1.0846490859985352,-0.10608375072479248
1771683729884000800,8.703000732421875,1.5652551651000977,2.29410457611084,-0.06775034964084625
1771683729894375200,8.713375244140625,-0.8205232620239258,-0.3344770669937134,-0.2986370623111725
1771683729904715800,8.7237158203125,0.3872709274291992,-0.5652512311935425,-0.39691638946533203
1771683729915099000,8.734098876953125,0.5437250137329102,1.4686212539672852,-0.03926505148410797
1771683729925431000,8.74443115234375,0.03592967987060547,2.225409746170044,-0.050326213240623474
1771683729935792000,8.754792236328125,-2.348587989807129,0.09366703033447266,-0.1165386438369751
1771683729946169000,8.765169189453125,0.5863561630249023,-0.985779345035553,-0.2345772236585617
1771683729956515600,8.775515625,0.9738473892211914,1.27329421043396,-0.055959686636924744
1771683729966861000,8.785861083984376,-1.0459518432617188,1.8127162456512451,-0.23467731475830078
1771683729977218600,8.796218505859375,0.019003868103027344,0.2109782099723816,-0.6756454706192017
1771683729987576000,8.806576171875,0.4443197250366211,-0.9503113031387329,-0.5003390312194824
1771683729997963000,8.816962890625,0.44080638885498047,0.6246466636657715,0.4087284207344055
1771683730008309500,8.8273095703125,1.53497314453125,2.04811692237854,-0.1449175328016281
1771683730018656000,8.837656005859374,-2.0918874740600586,-0.09928518533706665,-0.08918598294258118
1771683730029033200,8.848033203125,-0.30786800384521484,-1.5793979167938232,0.38056808710098267
1771683730039379700,8.858379638671876,1.2752790451049805,0.9669339656829834,0.5954067707061768
1771683730049726200,8.868726318359375,0.5722503662109375,1.7752830982208252,0.41058093309402466
1771683730060078600,8.87907861328125,-3.6059255599975586,0.06021302938461304,-0.4630143642425537
1771683730070450000,8.889449951171875,3.6692981719970703,-1.5674688816070557,-0.0927421897649765
1771683730080793600,8.899793701171875,1.7912960052490234,1.5558955669403076,0.057104915380477905
1771683730091173600,8.910173583984376,-0.9559688568115234,1.529719352722168,-0.050927162170410156
1771683730101508600,8.920508544921875,-1.6069116592407227,-0.28832685947418213,-0.8609960079193115
1771683730111866600,8.93086669921875,1.5292749404907227,-0.36511361598968506,-1.0037891864776611
1771683730122223600,8.9412236328125,-1.2528562545776367,1.8233106136322021,-0.4895709753036499
1771683730132590300,8.95159033203125,0.3186073303222656,1.4599945545196533,0.15742546319961548
1771683730142938600,8.961938720703126,-0.40262603759765625,-0.7581112384796143,-0.3651804029941559
1771683730153314000,8.97231396484375,0.2525663375854492,1.3151183128356934,-0.9991401433944702
1771683730163653600,8.982653564453125,-0.996739387512207,1.7508695125579834,-0.02858191728591919
1771683730174037800,8.993037841796875,-1.918081283569336,0.9568828344345093,0.11697956919670105
1771683730184368600,9.00336865234375,0.7648563385009766,-0.3272223472595215,0.5453268885612488
1771683730194730800,9.013730712890625,0.46926403045654297,2.1527607440948486,0.1458260715007782
1771683730205083600,9.024083740234374,-0.05968761444091797,1.326275110244751,0.8726028203964233
1771683730215454500,9.034454345703125,-1.2933006286621094,-0.5093040466308594,0.47188153862953186
1771683730225798700,9.044798583984376,1.9894704818725586,0.8211547136306763,-0.1734214574098587
1771683730236178200,9.05517822265625,-0.16872119903564453,1.603781819343567,0.9401343464851379
1771683730246513700,9.065513671875,-2.342644691467285,-0.296619176864624,0.41922569274902344
1771683730256901600,9.075901611328124,1.2196407318115234,-0.9849452376365662,0.1047370433807373
1771683730267228700,9.086228759765625,1.3953485488891602,2.0670006275177,0.21494904160499573
1771683730277595000,9.096594970703125,-1.3438034057617188,1.73158597946167,-0.37902337312698364
1771683730287943700,9.106943603515624,-0.7699804306030273,-0.9932180643081665,0.2575473189353943
1771683730298318600,9.117318603515624,1.804840087890625,0.6790356636047363,0.49977102875709534
1771683730308665000,9.1276650390625,0.49441051483154297,1.788764238357544,0.20248737931251526
1771683730319042000,9.1380419921875,-0.2756166458129883,-0.9395952224731445,0.6088471412658691
1771683730329388800,9.148388916015625,0.16661643981933594,-1.0750404596328735,-0.7568404674530029
1771683730339731500,9.1587314453125,0.6815414428710938,2.1900622844696045,0.6347032189369202
1771683730350112300,9.1691123046875,0.4910287857055664,1.7702388763427734,0.7141067981719971
1771683730360446500,9.179446533203125,-1.9710965156555176,-1.0661723613739014,0.8371272087097168
1771683730370805500,9.189805419921875,1.184453010559082,-0.9095808267593384,0.6766573786735535
1771683730381161500,9.200161376953124,-0.2748756408691406,1.3790485858917236,0.9070471525192261
1771683730391529200,9.210529296875,1.3247509002685547,1.4131054878234863,0.8353776335716248
1771683730401876500,9.22087646484375,-1.7911195755004883,-1.372923731803894,0.439084529876709
1771683730412252700,9.231252685546876,1.6932783126831055,1.4401414394378662,0.08182951807975769
1771683730422591500,9.241591552734375,-2.2114667892456055,1.230964183807373,0.11158615350723267
1771683730432976400,9.251976318359375,0.32140541076660156,-0.2815554738044739,-0.2245369404554367
1771683730443306500,9.262306396484375,-0.2928152084350586,0.664708137512207,-0.12254457175731659
1771683730453669600,9.272669677734376,-1.089787483215332,1.5971170663833618,0.2601766884326935
1771683730464021500,9.283021484375,-1.7938432693481445,-0.361916184425354,-0.3711971640586853
1771683730474393000,9.29339306640625,0.8981714248657227,0.5080402493476868,-0.8419991731643677
1771683730484736500,9.303736572265626,0.45180702209472656,2.232248306274414,-0.053838521242141724
1771683730495116800,9.31411669921875,-0.5304555892944336,-0.39980798959732056,-0.33306384086608887
1771683730505451500,9.324451416015625,-0.0015935897827148438,-1.141781210899353,0.9239723086357117
1771683730515810000,9.33481005859375,2.21829891204834,2.5194289684295654,-0.5337949991226196
1771683730526187000,9.34518701171875,-1.8714380264282227,1.3437209129333496,1.2593406438827515
1771683730536533500,9.355533447265625,-0.34167957305908203,-0.9672841429710388,-0.9304407238960266
1771683730546881500,9.365881591796875,-0.8374090194702148,0.46784496307373047,0.405624657869339
1771683730557257200,9.37625732421875,1.1813039779663086,3.2290821075439453,-0.2370230257511139
1771683730567603700,9.386603759765626,-1.1706457138061523,-0.6860404014587402,-0.0022848844528198242
1771683730577981000,9.39698095703125,-0.24397850036621094,-0.6837403774261475,-0.5751992464065552
1771683730588327400,9.407327392578125,1.909393310546875,2.069607973098755,-0.40057697892189026
1771683730598674000,9.417673828125,-1.7809906005859375,0.5729702115058899,-0.17578567564487457
1771683730609051100,9.428051025390625,-0.4663228988647461,-1.3506163358688354,-0.12225133180618286
1771683730619397600,9.438397705078126,2.618657112121582,1.634089708328247,0.2875041961669922
1771683730629744000,9.448744140625,-1.8422107696533203,1.4143424034118652,0.4350542426109314
1771683730640099000,9.45909912109375,0.665980339050293,-1.2034441232681274,-0.7940698862075806
1771683730650467800,9.4694677734375,0.6952400207519531,0.013115108013153076,0.021802574396133423
1771683730660814000,9.47981396484375,0.3399686813354492,2.485145092010498,-0.6484047770500183
1771683730671191600,9.490191650390624,0.14784908294677734,-0.11914575099945068,-0.27566441893577576
1771683730681529000,9.500529052734375,-1.8479423522949219,-1.242504358291626,-0.7438457012176514
1771683730691915300,9.510915283203126,1.880056381225586,1.7083981037139893,-1.1766363382339478
1771683730702244000,9.521244140625,-1.2492542266845703,-0.41426706314086914,0.30474287271499634
1771683730712608300,9.531608154296874,1.6157617568969727,-1.4895949363708496,-0.21653994917869568
1771683730722959000,9.541958984375,0.9650249481201172,0.47860783338546753,0.5143735408782959
1771683730733316900,9.55231689453125,0.9626302719116211,0.5327712893486023,-0.36253809928894043
1771683730743674400,9.56267431640625,-1.4621992111206055,-1.04476797580719,-0.7405048608779907
1771683730754055700,9.5730556640625,-0.7924022674560547,0.5147538781166077,-1.000247836112976
1771683730764389400,9.583389404296875,0.6466264724731445,2.1791439056396484,0.6043637990951538
1771683730774748700,9.593748779296876,-1.8037872314453125,-0.9772098660469055,-0.12983517348766327
1771683730785104400,9.6041044921875,0.9053201675415039,0.2525755763053894,-0.37185028195381165
1771683730795472400,9.614472412109375,0.7338361740112305,1.351132869720459,0.38408541679382324
1771683730805819400,9.6248193359375,-0.4970226287841797,-1.0132768154144287,-1.0010669231414795
1771683730816196000,9.635196044921875,1.669565200805664,0.5369530916213989,0.5473797917366028
1771683730826534400,9.645534423828124,-0.12190723419189453,2.116284132003784,-1.2303688526153564
1771683730836919600,9.65591943359375,-2.1621618270874023,-1.1406461000442505,1.1419893503189087
1771683730847249400,9.66624951171875,0.6484527587890625,0.24914908409118652,-1.057795763015747
1771683730857612800,9.67661279296875,0.11969375610351562,1.802947998046875,0.7898089289665222
1771683730867964400,9.68696435546875,-1.2766923904418945,-1.078395962715149,0.06541180610656738
1771683730878336500,9.69733642578125,1.0900230407714844,1.946829915046692,-0.4422660768032074
1771683730888683000,9.70768310546875,-0.04616355895996094,2.3812601566314697,-0.09600034356117249
1771683730899060000,9.71806005859375,-3.0654187202453613,-1.125563383102417,0.413738876581192
1771683730909406700,9.72840673828125,2.4778194427490234,-0.3000606298446655,0.8308421969413757
1771683730919752000,9.738751953125,0.6628141403198242,2.476393699645996,-0.396274596452713
1771683730930130200,9.749130126953125,-2.193647861480713,0.9627683162689209,0.47286030650138855
1771683730940467000,9.759467041015625,0.47119712829589844,-1.1822900772094727,0.1065533459186554
1771683730950854000,9.76985400390625,1.6088781356811523,2.050969362258911,0.009714961051940918
1771683730961182000,9.780181884765625,-2.4795780181884766,1.024329662322998,-0.053680092096328735
1771683730971547100,9.790547119140625,-2.4467215538024902,-0.24411237239837646,0.4114956259727478
1771683730981897000,9.80089697265625,2.9778308868408203,1.5212723016738892,0.2672358453273773
1771683730992270600,9.8112705078125,-3.037472724914551,1.6321994066238403,-0.967121422290802
1771683731002612000,9.821612060546874,1.4004535675048828,-0.21165812015533447,0.5748302936553955
1771683731012994300,9.831994384765625,2.1613588333129883,-0.8564685583114624,0.38926878571510315
1771683731023327000,9.842326904296876,-0.2882194519042969,1.6611872911453247,-0.20321057736873627
1771683731033687600,9.8526875,0.3928813934326172,0.5588630437850952,-0.3197868764400482
1771683731044042000,9.8630419921875,-0.07798480987548828,1.0317682027816772,1.5547981262207031
1771683731054411000,9.873410888671875,-1.825052261352539,0.7621817588806152,1.0511139631271362
1771683731064757000,9.883757080078125,0.9456596374511719,0.10406684875488281,1.155370831489563
1771683731075134700,9.894134765625,1.843423843383789,1.3895760774612427,0.2704719305038452
1771683731085472000,9.904471923828124,-1.5482778549194336,0.032750725746154785,-0.2728213667869568
1771683731095858400,9.9148583984375,1.2983436584472656,0.4771343469619751,0.5532116889953613
1771683731106205000,9.925204833984376,1.636775016784668,0.9018309116363525,-0.6857863068580627
1771683731116551400,9.935551513671875,-5.7049736976623535,0.19024133682250977,0.18718934059143066
1771683731126902000,9.945902099609375,2.0210485458374023,1.262699842453003,1.3671669960021973
1771683731137275100,9.956275146484375,-0.9007463455200195,0.6780451536178589,-0.21887816488742828
1771683731147617300,9.9666171875,-1.6460456848144531,1.346206545829773,0.7034168243408203
1771683731157998800,9.976998779296874,1.3199644088745117,-0.5782966017723083,-0.2255186140537262
1771683731168345300,9.987345458984375,0.7532854080200195,2.4532217979431152,0.30579206347465515
1771683731178691800,9.99769189453125,-6.047003746032715,0.29860591888427734,0.0045500993728637695
1771683731189069000,10.008069091796875,6.107600212097168,-0.5186861157417297,-1.0978574752807617
1771683731199415600,10.01841552734375,-0.07039070129394531,2.1941075325012207,0.532128095626831
1771683731209792800,10.028792724609374,-4.605837345123291,-0.48741066455841064,-0.327070027589798
1771683731220119800,10.039119873046875,6.175620079040527,-0.48547154664993286,-1.0585426092147827
1771683731230477300,10.049477294921875,-1.310990333557129,1.6720726490020752,0.9152793884277344
1771683731240834800,10.059834716796875,-1.9764208793640137,-0.11163711547851562,-0.06766921281814575
1771683731251209500,10.07020947265625,3.296703338623047,0.006308913230895996,-0.6683344841003418
1771683731261549800,10.0805498046875,-1.3301725387573242,1.7933926582336426,-0.5879642367362976
1771683731271933200,10.09093310546875,-3.828770160675049,-0.24467617273330688,-0.05947190523147583
1771683731282264800,10.101264892578126,6.537957191467285,0.34873390197753906,-1.1657769680023193
1771683731292626200,10.111626220703124,-4.706244945526123,-0.043354034423828125,-0.46451854705810547
1771683731302979800,10.121979736328125,5.098821640014648,1.4785654544830322,-1.1932604312896729
1771683731313350000,10.132349853515626,0.8380203247070312,0.44526219367980957,0.5906552076339722
1771683731323694800,10.14269482421875,-0.872929573059082,0.315346360206604,-0.287733793258667
1771683731334073600,10.153073486328125,0.6403465270996094,-0.47735595703125,-0.22059080004692078
1771683731344409900,10.163409912109374,0.1903820037841797,0.8603756427764893,-0.6734788417816162
1771683731354797000,10.173797119140625,-2.3784656524658203,1.3336206674575806,-0.9510266780853271
1771683731365124900,10.184124755859376,3.086441993713379,1.4194433689117432,0.28538691997528076
1771683731375490300,10.194490234375,-1.4775314331054688,-0.6433074474334717,0.07875558733940125
1771683731385839900,10.20483984375,1.9491682052612305,-0.9431560039520264,-0.4347496032714844
1771683731396214000,10.215214111328125,3.2698183059692383,2.182943820953369,-0.26058077812194824
1771683731406555000,10.225554931640625,-1.0295581817626953,1.377079725265503,0.9916554689407349
1771683731416937500,10.2359375,0.24592304229736328,-1.1143125295639038,-0.8338785767555237
1771683731427270000,10.246269775390624,0.6353702545166016,1.3803894519805908,-0.8726806044578552
1771683731437630700,10.256630615234375,-1.8790960311889648,-0.6462301015853882,-0.16420158743858337
1771683731447985000,10.26698486328125,2.51381778717041,1.610390543937683,-1.279469609260559
1771683731458354400,10.2773544921875,-0.26969242095947266,2.493299961090088,-0.6253569722175598
1771683731468701000,10.287700927734376,-5.450524806976318,-0.4232513904571533,0.0006297826766967773
1771683731479057400,10.298057373046875,2.3334484100341797,0.059409499168395996,-0.6124099493026733
1771683731489424600,10.308424560546875,-2.916085720062256,1.7203537225723267,0.46108537912368774
1771683731499772400,10.3187724609375,2.6481246948242188,2.141108989715576,-0.41599130630493164
1771683731510148000,10.329148193359375,0.6256551742553711,0.49676513671875,0.9939999580383301
1771683731520487400,10.3394873046875,-2.8198561668395996,0.1112070083618164,0.1617964804172516
1771683731530871800,10.349871826171874,-0.7285404205322266,1.8621439933776855,0.2859501540660858
1771683731541202400,10.360202392578126,-1.7218618392944336,1.1572554111480713,0.4225339889526367
1771683731551565000,10.37056494140625,-5.183129787445068,-0.7781705856323242,-0.7298215627670288
1771683731561917700,10.380917724609375,5.779136657714844,3.1500556468963623,-0.8587913513183594
1771683731572288500,10.39128857421875,-5.162321090698242,0.021724581718444824,0.33608153462409973
1771683731582632700,10.4016328125,4.142996788024902,-0.8370569944381714,1.2380130290985107
1771683731593012200,10.41201220703125,-1.2897062301635742,1.6779987812042236,0.8382120132446289
1771683731603347700,10.42234765625,-2.8000893592834473,0.8950759172439575,0.8178431987762451
1771683731613705500,10.43270556640625,3.831045150756836,1.4896552562713623,1.434936285018921
1771683731624062700,10.443062744140626,-1.3814315795898438,0.30447888374328613,0.43136754631996155
1771683731634429000,10.453428955078126,-2.1607508659362793,-0.54911208152771,0.4925651550292969
1771683731644777700,10.46377783203125,5.88193416595459,1.7857861518859863,1.0742796659469604
1771683731655152600,10.474152587890625,-4.066884517669678,0.42960524559020996,-0.16728433966636658
1771683731665492700,10.48449267578125,4.242597579956055,0.5379687547683716,-0.7875921130180359
1771683731675876400,10.49487646484375,-2.19052791595459,-0.10512828826904297,-0.002150923013687134
1771683731686222800,10.505222900390624,-0.6434097290039062,1.282109022140503,0.2974512577056885
1771683731696569300,10.5155693359375,3.97721004486084,1.4446043968200684,0.9202091693878174
1771683731706922800,10.5259228515625,-2.9807705879211426,0.1159597635269165,0.5131124258041382
1771683731717293000,10.53629296875,4.975261688232422,0.20766091346740723,-0.3004898428916931
1771683731727637800,10.5466376953125,-0.8700246810913086,0.16310381889343262,0.7937120199203491
1771683731738016800,10.557016845703124,-1.0442476272583008,0.06451857089996338,-0.5221556425094604
1771683731748363300,10.56736328125,4.821104049682617,2.612224817276001,-0.38544175028800964
1771683731758740500,10.577740478515626,-5.1679277420043945,-0.27672791481018066,-0.018750131130218506
1771683731769087000,10.5880869140625,3.1706809997558594,0.6178667545318604,0.12468221783638
1771683731779425300,10.59842529296875,-1.9137167930603027,1.7311136722564697,-0.02953636646270752
1771683731789810700,10.608810791015625,-1.6134166717529297,1.0443860292434692,-0.1292508840560913
1771683731800140300,10.619140380859376,3.8570995330810547,1.3539519309997559,-1.4100040197372437
1771683731810503700,10.629503662109375,-3.604423999786377,-0.5258474349975586,0.5142934322357178
1771683731820855300,10.639855224609375,3.355192184448242,2.064384937286377,0.008925527334213257
1771683731831227400,10.650227294921875,-2.7348389625549316,1.465091347694397,-0.80832439661026
1771683731841570300,10.6605703125,-1.3108406066894531,-0.4855204224586487,-0.6912438273429871
1771683731851951000,10.670951171875,3.1227359771728516,0.9987142086029053,0.07905974984169006
1771683731862285300,10.681285400390625,-4.330143451690674,0.9527196884155273,-0.47468581795692444
1771683731872644000,10.69164404296875,3.4425134658813477,2.309373617172241,-1.3599023818969727
1771683731883000300,10.702000244140624,-2.769442081451416,-0.666903018951416,-0.9369975328445435
1771683731893367800,10.712367919921874,-1.7963247299194336,-0.2589014768600464,-0.06255219876766205
1771683731903715300,10.72271533203125,5.192451477050781,2.6653573513031006,0.15064629912376404
1771683731914091500,10.733091552734376,-6.232415199279785,-1.001866340637207,-0.05899631977081299
1771683731924430600,10.7434306640625,6.343316078186035,-1.5768563747406006,0.5538832545280457
1771683731934815000,10.75381494140625,-0.9977407455444336,1.3152729272842407,0.5490480661392212
1771683731945145300,10.764145263671875,0.16201210021972656,1.3804343938827515,-1.0841891765594482
1771683731955508200,10.77450830078125,1.3871221542358398,-0.5471301674842834,-0.4959365129470825
1771683731965860400,10.7848603515625,-2.766601085662842,-1.5437672138214111,0.4591637849807739
1771683731976232000,10.79523193359375,3.1069393157958984,1.6411833763122559,-0.6511980891227722
1771683731986575600,10.80557568359375,-5.570664405822754,0.4966498613357544,0.2129838466644287
1771683731996955400,10.815955322265625,1.864354133605957,0.24677956104278564,-0.9051464796066284
1771683732007290600,10.82629052734375,-1.0975065231323242,0.6854900121688843,0.03613117337226868
1771683732017648600,10.836648681640625,2.1201210021972656,2.2223756313323975,0.6203045845031738
1771683732028005600,10.847005615234375,-2.116917133331299,-0.716914713382721,-0.43908455967903137
1771683732038372400,10.857372314453125,-0.3143320083618164,-0.1102602481842041,0.3428138196468353
1771683732048749300,10.867749267578125,2.116575241088867,1.5940619707107544,1.684579849243164
1771683732059095800,10.878095703125,-4.3311614990234375,-0.4496690630912781,-0.2421855330467224
1771683732069442600,10.888442626953125,3.406187057495117,0.9864420890808105,-1.224143385887146
1771683732079793200,10.898793212890626,-3.214038848876953,0.9617452621459961,0.2232380509376526
1771683732090166000,10.909166015625,-0.6407604217529297,0.9127665758132935,0.7314441800117493
1771683732100508200,10.919508056640625,-0.8899631500244141,0.8015156984329224,0.5407615900039673
1771683732110889700,10.9298896484375,-2.967622756958008,0.6652523279190063,0.5541861057281494
1771683732121223200,10.94022314453125,3.839571952819824,1.3844423294067383,0.5502845048904419
1771683732131583000,10.9505830078125,-3.209571361541748,-0.5213175415992737,0.47974860668182373
1771683732141938200,10.960938232421874,3.528998374938965,1.5301263332366943,-0.4441598355770111
1771683732152306400,10.971306396484374,-3.552608013153076,0.5408719778060913,0.2572820484638214
1771683732162653200,10.981653076171876,0.9309558868408203,-0.09174764156341553,0.2179180085659027
1771683732173030100,10.992030029296876,-0.08383846282958984,1.098207950592041,0.5387231111526489
1771683732183368200,11.0023681640625,-2.561960220336914,-0.5964097380638123,0.3444334864616394
1771683732193753900,11.01275390625,1.3131399154663086,1.2857803106307983,1.3764410018920898
1771683732204083200,11.023083251953125,-1.8749761581420898,0.20476365089416504,1.2533960342407227
1771683732214446800,11.03344677734375,2.227468490600586,0.6136949062347412,0.5208383798599243
1771683732224798200,11.043798095703124,-1.1536359786987305,-0.554082989692688,0.8179594874382019
1771683732235170600,11.054170654296875,1.911005973815918,1.3284645080566406,0.3254638612270355
1771683732245513200,11.06451318359375,-0.06569862365722656,0.24495995044708252,0.954318642616272
1771683732255894300,11.074894287109375,-1.9136686325073242,-0.14289462566375732,-0.11472031474113464
1771683732266240800,11.08524072265625,2.57083797454834,0.9855962991714478,1.1192474365234375
1771683732276587300,11.095587158203125,-1.415257453918457,-0.04502761363983154,1.2857939004898071
1771683732286943200,11.105943115234375,1.6741600036621094,0.7730797529220581,-0.07586440443992615
1771683732297311000,11.11631103515625,0.1847238540649414,0.8294745683670044,1.227457046508789
1771683732307658200,11.126658203125,-0.34610748291015625,-1.0769788026809692,0.7289515733718872
1771683732318034700,11.13703466796875,-0.46529388427734375,0.9349194765090942,0.888454794883728
1771683732328381200,11.147381103515626,2.7835006713867188,1.355332612991333,0.802916944026947
1771683732338758400,11.15775830078125,-1.2005071640014648,-0.04152500629425049,0.6606085300445557
1771683732349105000,11.16810498046875,1.952946662902832,0.7052048444747925,-0.39662283658981323
1771683732359445800,11.17844580078125,-1.4058570861816406,0.9464421272277832,0.8140192031860352
1771683732369828600,11.18882861328125,0.8005094528198242,0.619523286819458,-0.1229492574930191
1771683732380160800,11.199160888671875,-1.4096336364746094,-0.5265946984291077,0.7533223032951355
1771683732390521600,11.209521484375,1.479461669921875,1.1126271486282349,-0.21627900004386902
1771683732400875800,11.219875732421874,1.0510625839233398,1.132283329963684,1.2625406980514526
1771683732411245300,11.230245361328125,-2.6202878952026367,-1.0401742458343506,-0.48328495025634766
1771683732421591000,11.240591064453126,4.387506484985352,0.12104010581970215,-0.7224805355072021
1771683732431969000,11.250968994140624,-2.5405993461608887,1.0215109586715698,0.1823950707912445
1771683732442306000,11.26130615234375,2.9558286666870117,0.10947668552398682,-1.1955499649047852
1771683732452692500,11.2716923828125,-1.8750815391540527,0.5813815593719482,0.08006209135055542
1771683732463021000,11.28202099609375,1.3233604431152344,1.7486326694488525,-0.563613772392273
1771683732473385700,11.2923857421875,-1.2742748260498047,-0.3219935894012451,1.184179663658142
1771683732483736000,11.302736083984374,2.1854591369628906,0.4176291227340698,1.2120052576065063
1771683732494109400,11.313109375,-0.7673110961914062,-0.41646653413772583,-1.3790240287780762
1771683732504451000,11.323451171875,2.6004867553710938,1.6238847970962524,-0.30873531103134155
1771683732514833000,11.3338330078125,0.8763389587402344,-0.28165698051452637,-0.5845749378204346
1771683732525166000,11.344166015625,-3.257113456726074,-0.36808615922927856,-0.5915241837501526
1771683732535526100,11.354526123046876,4.354284286499023,1.679970383644104,-1.7204184532165527
1771683732545881000,11.364881103515625,-5.752861499786377,-0.3459380865097046,0.20225539803504944
1771683732556249900,11.375249755859375,5.595235824584961,1.1956586837768555,-0.5950903296470642
1771683732566596000,11.38559619140625,-3.8511619567871094,1.023406982421875,-0.3549892008304596
1771683732576973300,11.395973388671875,1.961202621459961,0.4871305227279663,0.2220919132232666
1771683732587311000,11.40631103515625,-0.007359504699707031,-0.26178622245788574,1.0274803638458252
1771683732597697000,11.416697021484374,1.3035907745361328,1.8088757991790771,-0.5971514582633972
1771683732608026000,11.427026123046875,-2.081292152404785,-0.395017147064209,-0.27446526288986206
1771683732618390300,11.437390380859375,-0.02024555206298828,-0.7862592935562134,1.0491478443145752
1771683732628767200,11.447767333984375,-1.6714859008789062,1.8655195236206055,-0.4717903733253479
1771683732639113700,11.45811376953125,-1.4264497756958008,1.5924971103668213,-0.7635763883590698
1771683732649460500,11.46846044921875,-2.0169219970703125,-0.7447971105575562,-0.08894588053226471
1771683732659813600,11.478813720703124,0.01393890380859375,2.378553867340088,2.3408589363098145
1771683732670184000,11.489183837890625,-1.7411298751831055,0.8474603891372681,-1.1743708848953247
1771683732680528600,11.499528564453126,-0.5388822555541992,-0.3303130865097046,1.4692528247833252
1771683732690907600,11.50990771484375,2.381575584411621,0.17607975006103516,-1.1852136850357056
1771683732701243600,11.52024365234375,2.08602237701416,2.460665702819824,-0.3854796588420868
1771683732711601200,11.53060107421875,-1.0220746994018555,0.5090113878250122,0.17685556411743164
1771683732721958700,11.540958740234375,-3.4541149139404297,-0.31575798988342285,1.1083402633666992
1771683732732316200,11.551316162109375,6.369539260864258,2.204698085784912,-0.5011389255523682
1771683732742673700,11.561673583984375,-5.763086795806885,0.6188176870346069,0.9118342995643616
1771683732753031200,11.57203125,1.9942035675048828,0.04140269756317139,0.4315359890460968
1771683732763388700,11.582388671875,-1.3029203414916992,0.30616843700408936,0.5953297019004822
1771683732773746200,11.59274609375,1.981710433959961,0.6556719541549683,-1.1964282989501953
1771683732784103700,11.603103759765625,0.6561422348022461,0.8192294836044312,-1.6708377599716187
1771683732794461200,11.613461181640625,1.6065340042114258,0.10474097728729248,-0.6161544322967529
1771683732804818700,11.623818603515625,-0.5723371505737305,2.0871262550354004,-0.7194157242774963
1771683732815176200,11.63417626953125,0.35027122497558594,-0.15729856491088867,-0.10479703545570374
1771683732825533700,11.64453369140625,-0.8222379684448242,-0.2161252498626709,1.7467139959335327
1771683732835891200,11.65489111328125,0.8336286544799805,1.9849293231964111,0.6473861932754517
1771683732846248700,11.665248779296874,-1.2862014770507812,-0.3220435380935669,-0.761812686920166
1771683732856606200,11.675606201171876,2.466689109802246,0.4498797655105591,-0.5799184441566467
1771683732866964000,11.6859638671875,-0.9318132400512695,-0.09318327903747559,-0.8612276315689087
1771683732877321500,11.696321533203125,4.4886016845703125,1.37175714969635,-0.12060271203517914
1771683732887679000,11.706678955078125,-2.4278512001037598,-0.17586123943328857,-0.3581885099411011
1771683732898036500,11.717036376953125,5.5603837966918945,-1.0842788219451904,1.2648305892944336
1771683732908393700,11.727393798828125,-0.9435939788818359,1.699710726737976,0.9642218351364136
1771683732918751200,11.737751220703124,-2.299593925476074,0.37004148960113525,-0.4723995625972748
1771683732929109000,11.74810888671875,-3.5997347831726074,-0.23904657363891602,0.7989708781242371
1771683732939466500,11.758466552734374,0.06805992126464844,1.025550365447998,0.29457151889801025
1771683732949824000,11.768823974609376,1.4759016036987305,0.9672353267669678,0.6496466994285583
1771683732960181500,11.779181396484375,1.2191486358642578,-1.2168121337890625,1.3473281860351562
1771683732970539000,11.7895390625,-0.07030391693115234,0.6016713380813599,-0.16578544676303864
1771683732980896500,11.799896484375,0.5263919830322266,0.9928463697433472,0.1262989342212677
1771683732991254000,11.81025390625,-0.5774936676025391,-0.5289863348007202,0.2968343198299408
1771683733001611500,11.820611572265625,-0.7880401611328125,-0.58349609375,1.989753007888794
1771683733011969000,11.830968994140624,0.5863475799560547,1.6901123523712158,-0.050077885389328
1771683733022326500,11.841326416015624,-2.386690139770508,0.1462186574935913,-0.7381263971328735
1771683733032684000,11.85168408203125,-1.8388066291809082,0.19419407844543457,1.1952837705612183
1771683733043041500,11.86204150390625,1.287827491760254,0.9927645921707153,-0.0860830694437027
1771683733053399000,11.87239892578125,-1.3054533004760742,1.0485453605651855,-1.2674416303634644
1771683733063756500,11.882756591796875,0.7386322021484375,-0.37649428844451904,-0.513452410697937
1771683733074114000,11.893114013671875,-0.5758810043334961,-0.1946955919265747,0.5541267395019531
1771683733084471600,11.903471435546875,1.134791374206543,1.6751261949539185,-0.08115871250629425
1771683733094829000,11.9138291015625,-3.2359328269958496,-1.0239158868789673,0.6512948870658875
1771683733105186600,11.9241865234375,-0.7930994033813477,-0.1945493221282959,0.7848056554794312
1771683733115544000,11.9345439453125,0.5045232772827148,2.250110626220703,-2.685436487197876
1771683733125901600,11.944901611328126,-3.556948184967041,-0.828883945941925,-0.20828233659267426
1771683733136259000,11.955259033203125,1.8057966232299805,1.308597207069397,-0.7299414277076721
1771683733146616600,11.965616455078125,-1.650390625,1.3425664901733398,0.740789532661438
1771683733156974000,11.97597412109375,0.30829334259033203,0.62016761302948,-0.5688691735267639
1771683733167331600,11.98633154296875,-2.3634719848632812,-1.0413167476654053,0.15549716353416443
1771683733177689000,11.996689208984375,4.325490951538086,1.8663486242294312,0.05470091104507446
1771683733188046600,12.007046630859374,-3.1494851112365723,1.34454345703125,-0.6263546943664551
1771683733198404000,12.017404052734374,-0.14174938201904297,-0.35747599601745605,-1.3290053606033325
1771683733208761600,12.02776171875,-1.5454893112182617,1.5921392440795898,0.7212420105934143
1771683733219119000,12.038119140625,1.338139533996582,1.7155016660690308,1.2297892570495605
1771683733229476600,12.0484765625,-1.8481712341308594,1.4992691278457642,0.09006032347679138
1771683733239834000,12.058834228515625,0.1150197982788086,0.7622344493865967,1.0015971660614014
1771683733250191600,12.069191650390625,-3.1944046020507812,-0.755473256111145,-0.3506160080432892
1771683733260549000,12.079549072265625,1.5266075134277344,0.3444942235946655,-0.0773802399635315
1771683733270906600,12.08990673828125,0.02084636688232422,0.35516226291656494,-0.41374531388282776
1771683733281264000,12.10026416015625,0.7049732208251953,1.493094801902771,0.7349913120269775
1771683733291621600,12.11062158203125,-0.41692066192626953,-0.05184650421142578,1.2532997131347656
1771683733301979100,12.120979248046876,1.1734285354614258,-0.3568228483200073,0.8874976634979248
1771683733312336600,12.131336669921875,-4.537714958190918,0.7232130765914917,0.3489241898059845
1771683733322694100,12.141694091796875,0.13148975372314453,1.0354652404785156,0.01817488670349121
1771683733333051600,12.1520517578125,-0.9581918716430664,0.3185802698135376,1.2081583738327026
1771683733343409200,12.1624091796875,0.8570566177368164,-0.192976713180542,0.6804876923561096
1771683733353766700,12.1727666015625,1.9974555969238281,-0.05510997772216797,0.4870281517505646
1771683733364124200,12.183124267578124,0.506927490234375,0.7502924203872681,0.9229388236999512
1771683733374481700,12.193481689453124,1.9516239166259766,0.38855111598968506,1.7874853610992432
1771683733384839200,12.203839111328126,-2.794325351715088,0.4190140962600708,0.8342971801757812
1771683733395196700,12.21419677734375,-2.6687703132629395,-0.7350976467132568,-0.5487062335014343
1771683733405554200,12.22455419921875,1.6643619537353516,1.4671101570129395,-0.29662251472473145
1771683733415911700,12.23491162109375,0.5427131652832031,1.6989150047302246,-0.5179117918014526
1771683733426269200,12.245269287109375,-1.7793331146240234,-1.0599303245544434,0.07992972433567047
1771683733436627000,12.255626953125,1.4373884201049805,-0.6917125582695007,0.8666658401489258
1771683733446984400,12.265984375,6.183323860168457,2.442424774169922,-0.2168443500995636
1771683733457341700,12.276341796875,-5.129831314086914,-0.4172900319099426,-0.830148458480835
1771683733467699200,12.28669921875,6.264339447021484,-0.49909424781799316,-0.5971450805664062
1771683733478056700,12.297056640625,-3.255533218383789,-0.3113671541213989,-0.14980116486549377
1771683733488414200,12.307414306640625,1.6763896942138672,1.3071036338806152,0.7036817669868469
1771683733498772000,12.31777197265625,-5.791500091552734,0.530436635017395,-0.2501978874206543
1771683733509129500,12.32812939453125,1.9870901107788086,0.49257659912109375,1.6911115646362305
1771683733519487000,12.338487060546875,-0.05361461639404297,2.1438403129577637,-2.2715208530426025
1771683733529844500,12.348844482421875,0.36230945587158203,-0.7870908975601196,-1.164132833480835
1771683733540202000,12.359201904296874,2.5223073959350586,-0.10914981365203857,-0.9926096200942993
1771683733550559500,12.3695595703125,0.9179325103759766,1.1081584692001343,1.2336809635162354
1771683733560917000,12.3799169921875,-10.18111801147461,-0.7227544188499451,-0.22166867554187775
1771683733571274500,12.3902744140625,1.274888038635254,0.2651859521865845,2.2553043365478516
1771683733581632000,12.400632080078125,0.27892112731933594,2.528090238571167,-0.06955046951770782
1771683733591989500,12.410989501953125,2.426666259765625,-0.40219736099243164,0.34399718046188354
1771683733602347000,12.421346923828125,0.6788902282714844,-0.014342188835144043,-1.0480096340179443
1771683733612704500,12.43170458984375,3.792914390563965,1.1415209770202637,-0.5524420738220215
1771683733623062000,12.44206201171875,-3.5333662033081055,-0.45044469833374023,-1.046567440032959
1771683733633419500,12.45241943359375,-4.735922813415527,-0.5020268559455872,-0.3125365376472473
1771683733643777000,12.462777099609376,1.8121213912963867,0.9379147291183472,0.10229015350341797
1771683733654134500,12.473134521484376,1.2135438919067383,1.744185447692871,-0.6641274094581604
1771683733664492000,12.483491943359375,0.2586631774902344,0.5297168493270874,0.4089169502258301
1771683733674849500,12.493849609375,3.0822248458862305,-0.9021821618080139,0.11431638896465302
1771683733685207000,12.50420703125,2.3949899673461914,0.4702392816543579,1.6204508543014526
1771683733695564500,12.514564453125,1.6047239303588867,0.06342911720275879,-0.6880480647087097
1771683733705922000,12.524922119140625,-0.25304603576660156,-0.6195248961448669,-1.4614726305007935
1771683733716279600,12.535279541015624,1.052042007446289,1.7298171520233154,-0.17180892825126648
1771683733726637000,12.545636962890624,-3.9197959899902344,0.7140234708786011,0.000890776515007019
1771683733736994600,12.55599462890625,2.5734853744506836,1.0956406593322754,2.070850133895874
1771683733747352000,12.56635205078125,-0.3776969909667969,0.7099260091781616,-1.1174856424331665
1771683733757709600,12.57670947265625,1.1441287994384766,0.07934451103210449,-0.9694260954856873
1771683733768067000,12.587067138671875,4.280677795410156,2.5092673301696777,-1.1170196533203125
1771683733778424600,12.597424560546875,-4.298717498779297,-0.6089183688163757,-0.549545407295227
1771683733788782000,12.607781982421875,1.2668256759643555,1.4856293201446533,0.27124279737472534
1771683733799139600,12.6181396484375,-1.9274377822875977,0.9953790903091431,0.7034135460853577
1771683733809497000,12.6284970703125,2.4502906799316406,1.652091383934021,1.5901480913162231
1771683733819854600,12.6388544921875,-5.121773719787598,-0.7870680093765259,-0.6948672533035278
1771683733830212000,12.649212158203126,0.3519420623779297,1.6777663230895996,-0.814903974533081
1771683733840569600,12.659569580078125,-2.8570556640625,1.223415732383728,-0.45983219146728516
1771683733850927000,12.669927001953125,-2.855067253112793,-0.21620941162109375,0.0018263459205627441
1771683733861284600,12.68028466796875,3.843503952026367,0.35587644577026367,-0.03376147150993347
1771683733871642000,12.69064208984375,0.3613777160644531,0.4593402147293091,2.2050018310546875
1771683733881999600,12.70099951171875,-0.9859790802001953,0.9464666843414307,0.47555726766586304
1771683733892357000,12.711357177734374,4.277369499206543,1.635560393333435,-0.4166649580001831
1771683733902714600,12.721714599609374,-6.124161720275879,0.146439790725708,-0.2499789297580719
1771683733913072000,12.732072021484376,1.3540925979614258,1.3760396242141724,-1.7910752296447754
1771683733923429600,12.7424296875,-1.310816764831543,-0.1089092493057251,0.3355737328529358
1771683733933787100,12.752787109375,0.9811630249023438,0.8654615879058838,-0.8437521457672119
1771683733944144600,12.76314453125,1.2768964767456055,1.3827869892120361,0.0827094316482544
1771683733954502100,12.773502197265625,0.6726150512695312,-0.8191027045249939,1.5429952144622803
1771683733964859600,12.783859619140625,1.2078943252563477,1.3090966939926147,-0.1641543060541153
1771683733975217200,12.794217041015624,-1.485189437866211,-0.5123893022537231,0.3640153110027313
1771683733985574700,12.80457470703125,-1.7776813507080078,-0.09268677234649658,-0.834974467754364
1771683733995932200,12.81493212890625,2.4848899841308594,2.3406190872192383,0.09392571449279785
1771683734006289700,12.82528955078125,-0.8107109069824219,0.11503946781158447,-0.0389212965965271
1771683734016647200,12.835647216796875,-0.01905059814453125,-0.16739511489868164,0.424489825963974
1771683734027004700,12.846004638671875,2.804680824279785,0.5711807012557983,-0.6189814805984497
1771683734037362200,12.856362060546875,0.9381580352783203,1.7436109781265259,-0.20573686063289642
1771683734047719700,12.8667197265625,-0.1575155258178711,-0.2441573143005371,0.1658768355846405
1771683734058077200,12.8770771484375,-1.5032892227172852,-0.49532514810562134,1.2246179580688477
1771683734068434700,12.8874345703125,1.032963752746582,0.7325922250747681,0.09645792841911316
1771683734078792200,12.897792236328126,-1.1990957260131836,1.137203335762024,0.05489686131477356
1771683734089149700,12.908149658203126,1.3556299209594727,0.24230313301086426,0.5650278925895691
1771683734099507200,12.918507080078125,-0.3135557174682617,0.831395149230957,-1.347365140914917
1771683734109864700,12.92886474609375,0.05045795440673828,-0.7834944128990173,0.7209017276763916
1771683734120222200,12.93922216796875,0.18241214752197266,-0.5475744605064392,0.1631608009338379
1771683734130579700,12.949579833984375,0.3493986129760742,1.679367184638977,-0.6694849729537964
1771683734140937200,12.959937255859375,-1.0117969512939453,0.3675718307495117,1.242864727973938
1771683734151294700,12.970294677734374,3.1560230255126953,1.6508684158325195,0.5834072828292847
1771683734161652200,12.98065234375,-2.8357911109924316,0.48840808868408203,0.14879056811332703
1771683734172009700,12.991009765625,1.2171335220336914,0.55019211769104,0.7638163566589355
1771683734182367200,13.0013671875,-1.5925331115722656,-0.051142215728759766,-1.256697177886963
1771683734192724700,13.011724853515625,-0.42134761810302734,1.287441611289978,1.060429334640503
