time,seconds_elapsed,z,y,x
1771683721318342000,0.137341796875,-0.004275931045413017,0.009773556143045425,-0.004886778071522713
1771683721328699400,0.147699462890625,-0.004275931045413017,0.004886778071522713,-0.0036650835536420345
1771683721339057000,0.158056884765625,-0.004275931045413017,0.01038440316915512,-0.004886778071522713
1771683721349414400,0.168414306640625,-0.004886778071522713,0.010995250195264816,-0.0030542362947016954
1771683721359772000,0.17877197265625,-0.006108472589403391,0.014049487188458443,-0.0030542362947016954
1771683721370129400,0.18912939453125,-0.006719320081174374,0.014049487188458443,-0.0036650835536420345
1771683721380487000,0.19948681640625,-0.005497625097632408,0.009773556143045425,-0.0030542362947016954
1771683721390844400,0.209844482421875,-0.004275931045413017,0.008551862090826035,-0.004886778071522713
1771683721401202000,0.220201904296875,-0.0030542362947016954,0.005497625097632408,-0.0036650835536420345
1771683721411559400,0.230559326171875,-0.005497625097632408,0.00916270911693573,-0.004886778071522713
1771683721421917000,0.2409169921875,-0.005497625097632408,0.00916270911693573,-0.004275931045413017
1771683721432274400,0.2512744140625,-0.006108472589403391,0.013438640162348747,-0.0030542362947016954
1771683721442632000,0.2616318359375,-0.006108472589403391,0.013438640162348747,-0.0030542362947016954
1771683721452989400,0.271989501953125,-0.004275931045413017,0.01038440316915512,-0.004275931045413017
1771683721463347000,0.282346923828125,-0.0030542362947016954,0.007941014133393764,-0.005497625097632408
1771683721473704400,0.292704345703125,-0.0036650835536420345,0.004886778071522713,-0.004886778071522713
1771683721484062000,0.30306201171875,-0.005497625097632408,0.010995250195264816,-0.005497625097632408
1771683721494419500,0.31341943359375,-0.006719320081174374,0.01038440316915512,-0.0030542362947016954
1771683721504777000,0.32377685546875,-0.006719320081174374,0.014660334214568138,-0.004886778071522713
1771683721515134500,0.334134521484375,-0.006719320081174374,0.012827792204916477,-0.0036650835536420345
1771683721525492000,0.344491943359375,-0.005497625097632408,0.011606098152697086,-0.0036650835536420345
1771683721535849500,0.354849365234375,-0.004275931045413017,0.009773556143045425,-0.004275931045413017
1771683721546207200,0.365207275390625,-0.0036650835536420345,0.006719320081174374,-0.004275931045413017
1771683721556564700,0.375564697265625,-0.005497625097632408,0.01038440316915512,-0.006108472589403391
1771683721566922200,0.385922119140625,-0.006108472589403391,0.01038440316915512,-0.0036650835536420345
1771683721577279700,0.39627978515625,-0.007330167107284069,0.014660334214568138,-0.0036650835536420345
1771683721587637200,0.40663720703125,-0.006108472589403391,0.012827792204916477,-0.0030542362947016954
1771683721597994800,0.416994873046875,-0.004275931045413017,0.013438640162348747,-0.0036650835536420345
1771683721608352300,0.427352294921875,-0.0036650835536420345,0.008551862090826035,-0.004275931045413017
1771683721618709800,0.437709716796875,-0.004275931045413017,0.01038440316915512,-0.005497625097632408
1771683721629067300,0.4480673828125,-0.004886778071522713,0.009773556143045425,-0.0036650835536420345
1771683721639424800,0.4584248046875,-0.005497625097632408,0.01588202826678753,-0.0030542362947016954
1771683721649782300,0.4687822265625,-0.006719320081174374,0.012827792204916477,-0.0036650835536420345
1771683721660139800,0.479139892578125,-0.006108472589403391,0.01588202826678753,-0.0036650835536420345
1771683721670497300,0.489497314453125,-0.005497625097632408,0.009773556143045425,-0.004275931045413017
1771683721680854800,0.499854736328125,-0.0036650835536420345,0.012216945178806782,-0.004886778071522713
1771683721691212300,0.51021240234375,-0.004275931045413017,0.005497625097632408,-0.004275931045413017
1771683721701569800,0.52056982421875,-0.004886778071522713,0.012827792204916477,-0.005497625097632408
1771683721711927300,0.53092724609375,-0.006108472589403391,0.007941014133393764,-0.0030542362947016954
1771683721722284800,0.541284912109375,-0.006108472589403391,0.01588202826678753,-0.004886778071522713
1771683721732642300,0.551642333984375,-0.006108472589403391,0.012216945178806782,-0.0024433890357613564
1771683721742999800,0.561999755859375,-0.004886778071522713,0.010995250195264816,-0.004886778071522713
1771683721753357300,0.572357421875,-0.0036650835536420345,0.007330167107284069,-0.004886778071522713
1771683721763714800,0.58271484375,-0.0030542362947016954,0.007941014133393764,-0.004275931045413017
1771683721774072300,0.593072265625,-0.005497625097632408,0.009773556143045425,-0.004886778071522713
1771683721784429800,0.603429931640625,-0.006719320081174374,0.013438640162348747,-0.0030542362947016954
1771683721794787300,0.613787353515625,-0.006719320081174374,0.014660334214568138,-0.004886778071522713
1771683721805144800,0.624144775390625,-0.007330167107284069,0.015271181240677834,-0.0030542362947016954
1771683721815502300,0.63450244140625,-0.005497625097632408,0.01038440316915512,-0.0036650835536420345
1771683721825859800,0.64485986328125,-0.004886778071522713,0.009773556143045425,-0.004275931045413017
1771683721836217300,0.65521728515625,-0.004886778071522713,0.006108472589403391,-0.0036650835536420345
1771683721846574800,0.665574951171875,-0.006108472589403391,0.009773556143045425,-0.004275931045413017
1771683721856932400,0.675932373046875,-0.006108472589403391,0.009773556143045425,0.0006108472589403391
1771683721867289900,0.686289794921875,-0.007941014133393764,0.01588202826678753,0.0036650835536420345
1771683721877647400,0.6966474609375,-0.00916270911693573,0.011606098152697086,0.0012216945178806782
1771683721888004900,0.7070048828125,-0.008551862090826035,0.012827792204916477,-0.0006108472589403391
1771683721898362400,0.7173623046875,-0.0036650835536420345,0.006719320081174374,0.0036650835536420345
1771683721908719900,0.727719970703125,-0.0006108472589403391,0.007330167107284069,0.006108472589403391
1771683721919077400,0.738077392578125,-0.0012216945178806782,0.008551862090826035,0.0024433890357613564
1771683721929435000,0.748434814453125,-0.004886778071522713,0.008551862090826035,0.0030542362947016954
1771683721939792400,0.75879248046875,-0.007330167107284069,0.01832541823387146,0.005497625097632408
1771683721950150000,0.76914990234375,-0.007941014133393764,0.01588202826678753,0.004886778071522713
1771683721960507400,0.77950732421875,-0.007330167107284069,0.014049487188458443,0.0030542362947016954
1771683721970865000,0.789864990234375,-0.006719320081174374,0.012216945178806782,-0.0018325417768210173
1771683721981222400,0.800222412109375,-0.004275931045413017,0.009773556143045425,0.0024433890357613564
1771683721991580200,0.810580078125,-0.004275931045413017,0.006719320081174374,0.0006108472589403391
1771683722001937700,0.820937744140625,-0.0036650835536420345,0.013438640162348747,0.0006108472589403391
1771683722012295200,0.831295166015625,-0.0030542362947016954,0.011606098152697086,0.00916270911693573
1771683722022652700,0.841652587890625,-0.004886778071522713,0.01710372418165207,0.0036650835536420345
1771683722033010200,0.85201025390625,-0.007330167107284069,0.013438640162348747,0.005497625097632408
1771683722043367700,0.86236767578125,-0.007330167107284069,0.011606098152697086,0.004275931045413017
1771683722053725200,0.87272509765625,-0.006108472589403391,0.007941014133393764,-0.0012216945178806782
1771683722064082700,0.883082763671875,-0.005497625097632408,0.005497625097632408,0
1771683722074440200,0.893440185546875,-0.007330167107284069,0.009773556143045425,-0.0024433890357613564
1771683722084797700,0.903797607421875,-0.008551862090826035,0.014049487188458443,-0.0030542362947016954
1771683722095155200,0.9141552734375,-0.008551862090826035,0.01588202826678753,-0.0006108472589403391
1771683722105512700,0.9245126953125,-0.008551862090826035,0.01832541823387146,-0.0006108472589403391
1771683722115870200,0.9348701171875,-0.006108472589403391,0.010995250195264816,0.0018325417768210173
1771683722126227700,0.945227783203125,-0.006108472589403391,0.007941014133393764,-0.0012216945178806782
1771683722136585200,0.955585205078125,-0.006719320081174374,0.006108472589403391,-0.0030542362947016954
1771683722146942700,0.965942626953125,-0.007330167107284069,0.010995250195264816,-0.0006108472589403391
1771683722157300200,0.97630029296875,-0.00916270911693573,0.015271181240677834,-0.0030542362947016954
1771683722167657700,0.98665771484375,-0.009773556143045425,0.015271181240677834,-0.0030542362947016954
1771683722178015200,0.99701513671875,-0.009773556143045425,0.01588202826678753,-0.0006108472589403391
1771683722188372700,1.007372802734375,-0.00916270911693573,0.011606098152697086,-0.004275931045413017
1771683722198730200,1.017730224609375,-0.009773556143045425,0.013438640162348747,-0.007941014133393764
1771683722209087700,1.028087646484375,-0.007941014133393764,0.011606098152697086,-0.0018325417768210173
1771683722219445200,1.0384453125,-0.007330167107284069,0.01588202826678753,-0.0030542362947016954
1771683722229802800,1.048802734375,-0.006719320081174374,0.006719320081174374,0.0006108472589403391
1771683722240160300,1.05916015625,-0.007330167107284069,0.01954711228609085,-0.0006108472589403391
1771683722250517800,1.069517822265625,-0.00916270911693573,0.016492875292897224,-0.006108472589403391
1771683722260875300,1.079875244140625,-0.012216945178806782,0.024433890357613564,-0.006108472589403391
1771683722271232800,1.090232666015625,-0.012216945178806782,0.021379653364419937,-0.0024433890357613564
1771683722281590300,1.10059033203125,-0.011606098152697086,0.01038440316915512,-0.004886778071522713
1771683722291947800,1.11094775390625,-0.00916270911693573,0.0024433890357613564,0.0012216945178806782
1771683722302305300,1.12130517578125,-0.006719320081174374,-0.0018325417768210173,0.0030542362947016954
1771683722312662800,1.131662841796875,-0.009773556143045425,0.004886778071522713,-0.0036650835536420345
1771683722323020300,1.142020263671875,-0.012216945178806782,0.014049487188458443,-0.0012216945178806782
1771683722333377800,1.152377685546875,-0.012216945178806782,0.020157959312200546,0.0024433890357613564
1771683722343735300,1.1627353515625,-0.012827792204916477,0.0030542362947016954,0
1771683722354092800,1.1730927734375,-0.010995250195264816,0.016492875292897224,0.0030542362947016954
1771683722364450300,1.1834501953125,-0.01038440316915512,0.0036650835536420345,-0.006719320081174374
1771683722374807800,1.193807861328125,-0.012216945178806782,0.006108472589403391,-0.005497625097632408
1771683722385165300,1.204165283203125,-0.012216945178806782,0.01710372418165207,-0.006719320081174374
1771683722395522800,1.214522705078125,-0.01038440316915512,0.014049487188458443,-0.004886778071522713
1771683722405880300,1.22488037109375,-0.012216945178806782,0.006108472589403391,-0.006719320081174374
1771683722416237800,1.23523779296875,-0.013438640162348747,0.01710372418165207,-0.0018325417768210173
1771683722426595300,1.24559521484375,-0.015271181240677834,0.0006108472589403391,0
1771683722436952800,1.255952880859375,-0.01832541823387146,0.012216945178806782,-0.004886778071522713
1771683722447310300,1.266310302734375,-0.01588202826678753,0.02076880633831024,-0.0018325417768210173
1771683722457667800,1.276667724609375,-0.012216945178806782,-0.0012216945178806782,0.004275931045413017
1771683722468025300,1.287025390625,-0.012827792204916477,0.01832541823387146,-0.0006108472589403391
1771683722478382800,1.2973828125,-0.013438640162348747,0.0018325417768210173,-0.0036650835536420345
1771683722488740400,1.307740234375,-0.01710372418165207,0.00916270911693573,0.0036650835536420345
1771683722499097900,1.318097900390625,-0.01832541823387146,0.02076880633831024,-0.005497625097632408
1771683722509455400,1.328455322265625,-0.017714571207761765,0.011606098152697086,0.0006108472589403391
1771683722519812900,1.338812744140625,-0.01832541823387146,0.008551862090826035,0.0012216945178806782
1771683722530170400,1.34917041015625,-0.01710372418165207,0.013438640162348747,-0.007941014133393764
1771683722540527900,1.35952783203125,-0.01588202826678753,0,0.006108472589403391
1771683722550885400,1.369885498046875,-0.016492875292897224,0.011606098152697086,-0.0006108472589403391
1771683722561243000,1.380242919921875,-0.014049487188458443,0.008551862090826035,-0.0006108472589403391
1771683722571600400,1.390600341796875,-0.01832541823387146,0.005497625097632408,0.007330167107284069
1771683722581958000,1.4009580078125,-0.020157959312200546,0.013438640162348747,-0.004886778071522713
1771683722592315400,1.4113154296875,-0.020157959312200546,0.009773556143045425,0.0024433890357613564
1771683722602673000,1.4216728515625,-0.01954711228609085,0.011606098152697086,-0.0018325417768210173
1771683722613030400,1.432030517578125,-0.017714571207761765,0.011606098152697086,-0.006108472589403391
1771683722623388000,1.442387939453125,-0.01954711228609085,0.007330167107284069,-0.0024433890357613564
1771683722633745400,1.452745361328125,-0.020157959312200546,0.012216945178806782,-0.004886778071522713
1771683722644103000,1.46310302734375,-0.021379653364419937,0.012827792204916477,-0.0030542362947016954
1771683722654460400,1.47346044921875,-0.022601349279284477,0.012216945178806782,0.0012216945178806782
1771683722664818000,1.48381787109375,-0.023823043331503868,0.009773556143045425,-0.0012216945178806782
1771683722675175700,1.49417578125,-0.02626643143594265,0.01588202826678753,-0.0036650835536420345
1771683722685533200,1.504533203125,-0.023823043331503868,0.007941014133393764,-0.0012216945178806782
1771683722695890700,1.514890625,-0.023212196305394173,0.014660334214568138,-0.004886778071522713
1771683722706248200,1.525248291015625,-0.021990500390529633,0.0006108472589403391,-0.004275931045413017
1771683722716605700,1.535605712890625,-0.02504473738372326,0.006719320081174374,-0.006108472589403391
1771683722726963200,1.545963134765625,-0.02626643143594265,0.006108472589403391,-0.007330167107284069
1771683722737320400,1.556320556640625,-0.02748812735080719,0.011606098152697086,-0.0024433890357613564
1771683722747678000,1.566677978515625,-0.02626643143594265,0.007330167107284069,-0.004886778071522713
1771683722758035700,1.57703564453125,-0.02626643143594265,0.0030542362947016954,-0.0018325417768210173
1771683722768393200,1.587393310546875,-0.024433890357613564,0,-0.0036650835536420345
1771683722778750700,1.597750732421875,-0.022601349279284477,0.0036650835536420345,-0.006108472589403391
1771683722789108200,1.608108154296875,-0.024433890357613564,0.006108472589403391,0.0012216945178806782
1771683722799465700,1.6184658203125,-0.02626643143594265,0.007941014133393764,-0.005497625097632408
1771683722809823200,1.6288232421875,-0.02993151545524597,0.012827792204916477,-0.005497625097632408
1771683722820180700,1.6391806640625,-0.02748812735080719,0.007941014133393764,-0.006108472589403391
1771683722830538200,1.649538330078125,-0.02626643143594265,0.010995250195264816,-0.0030542362947016954
1771683722840895700,1.659895751953125,-0.02626643143594265,0.007941014133393764,-0.007941014133393764
1771683722851253200,1.670253173828125,-0.029320668429136276,0.01038440316915512,-0.009773556143045425
1771683722861610800,1.68061083984375,-0.030542362481355667,0.010995250195264816,-0.006108472589403391
1771683722871968300,1.69096826171875,-0.030542362481355667,0.016492875292897224,-0.0030542362947016954
1771683722882325800,1.70132568359375,-0.030542362481355667,0.010995250195264816,-0.0036650835536420345
1771683722892683300,1.711683349609375,-0.031153209507465363,0.01588202826678753,-0.01038440316915512
1771683722903040800,1.722040771484375,-0.031153209507465363,0.006108472589403391,-0.006719320081174374
1771683722913398300,1.732398193359375,-0.031153209507465363,0.01588202826678753,-0.007941014133393764
1771683722923755800,1.742755859375,-0.03176405653357506,0.00916270911693573,-0.006719320081174374
1771683722934113300,1.75311328125,-0.033596597611904144,0.012827792204916477,-0.01038440316915512
1771683722944470800,1.763470703125,-0.03237490355968475,0.00916270911693573,-0.007941014133393764
1771683722954828300,1.773828369140625,-0.030542362481355667,0.014049487188458443,-0.0006108472589403391
1771683722965185800,1.784185791015625,-0.03176405653357506,0.01038440316915512,-0.004275931045413017
1771683722975543300,1.794543212890625,-0.03420744836330414,0.009773556143045425,-0.006719320081174374
1771683722985900800,1.80490087890625,-0.034818295389413834,0.00916270911693573,-0.006108472589403391
1771683722996258300,1.81525830078125,-0.03298575058579445,0.01710372418165207,0.0012216945178806782
1771683723006615800,1.82561572265625,-0.03420744836330414,0.01038440316915512,-0.0006108472589403391
1771683723016973300,1.835973388671875,-0.03542914241552353,0.015271181240677834,-0.007941014133393764
1771683723027330800,1.846330810546875,-0.036039989441633224,0.010995250195264816,-0.0030542362947016954
1771683723037688300,1.856688232421875,-0.03665083646774292,0.01710372418165207,0.0018325417768210173
1771683723048045800,1.8670458984375,-0.0397050715982914,0.00916270911693573,-0.0030542362947016954
1771683723058403300,1.8774033203125,-0.04092676565051079,0.01588202826678753,-0.007330167107284069
1771683723068760800,1.8877607421875,-0.0397050715982914,0.004275931045413017,-0.0024433890357613564
1771683723079118300,1.898118408203125,-0.038483377546072006,0.017714571207761765,0.0012216945178806782
1771683723089475800,1.908475830078125,-0.04031591862440109,0.005497625097632408,-0.0030542362947016954
1771683723099833300,1.918833251953125,-0.04337015375494957,0.00916270911693573,-0.007330167107284069
1771683723110190800,1.92919091796875,-0.04337015375494957,0.0012216945178806782,-0.004886778071522713
1771683723120548400,1.93954833984375,-0.04092676565051079,0.013438640162348747,-0.0006108472589403391
1771683723130905900,1.94990576171875,-0.04153761267662048,0.0012216945178806782,-0.0024433890357613564
1771683723141263400,1.960263427734375,-0.042759306728839874,0.005497625097632408,-0.008551862090826035
1771683723151620900,1.970620849609375,-0.04214845970273018,0.0012216945178806782,-0.004275931045413017
1771683723161978400,1.980978271484375,-0.04214845970273018,0.010995250195264816,0.0036650835536420345
1771683723172335900,1.9913359375,-0.04459185153245926,0.0012216945178806782,-0.004886778071522713
1771683723182693400,2.001693359375,-0.045202698558568954,0.009773556143045425,-0.01038440316915512
1771683723193051000,2.01205078125,-0.04214845970273018,0,-0.0012216945178806782
1771683723203408400,2.022408447265625,-0.04153761267662048,0.007941014133393764,0
1771683723213766000,2.032765869140625,-0.043981000781059265,0.0036650835536420345,-0.007330167107284069
1771683723224123400,2.043123291015625,-0.04459185153245926,0.007330167107284069,-0.007941014133393764
1771683723234481000,2.05348095703125,-0.04459185153245926,0.0024433890357613564,-0.0036650835536420345
1771683723244838400,2.06383837890625,-0.043981000781059265,0.011606098152697086,-0.0018325417768210173
1771683723255196000,2.07419580078125,-0.04337015375494957,0.0036650835536420345,-0.0030542362947016954
1771683723265553400,2.084553466796875,-0.042759306728839874,0.004886778071522713,-0.007330167107284069
1771683723275911000,2.094910888671875,-0.04214845970273018,-0.0030542362947016954,-0.0018325417768210173
1771683723286268400,2.105268310546875,-0.04214845970273018,0.006719320081174374,0
1771683723296626000,2.1156259765625,-0.043981000781059265,-0.004275931045413017,-0.0006108472589403391
1771683723306983400,2.1259833984375,-0.046424392610788345,0,-0.004886778071522713
1771683723317341000,2.1363408203125,-0.046424392610788345,0.0006108472589403391,-0.0024433890357613564
1771683723327698400,2.146698486328125,-0.04459185153245926,0.0006108472589403391,0.0024433890357613564
1771683723338056000,2.157055908203125,-0.04581354558467865,-0.0036650835536420345,-0.0018325417768210173
1771683723348413400,2.167413330078125,-0.046424392610788345,-0.0018325417768210173,-0.004886778071522713
1771683723358771000,2.17777099609375,-0.046424392610788345,-0.007941014133393764,0
1771683723369128400,2.18812841796875,-0.04581354558467865,-0.0012216945178806782,-0.0036650835536420345
1771683723379486000,2.19848583984375,-0.04703523963689804,-0.005497625097632408,0.0018325417768210173
1771683723389843500,2.208843505859375,-0.04581354558467865,-0.006719320081174374,-0.0012216945178806782
1771683723400201000,2.219200927734375,-0.04581354558467865,-0.004275931045413017,-0.0030542362947016954
1771683723410558500,2.229558349609375,-0.04459185153245926,-0.005497625097632408,-0.0018325417768210173
1771683723420916000,2.239916015625,-0.04581354558467865,0.0012216945178806782,-0.0018325417768210173
1771683723431273500,2.2502734375,-0.047646086663007736,-0.0018325417768210173,-0.005497625097632408
1771683723441631000,2.260630859375,-0.047646086663007736,0.007941014133393764,-0.0024433890357613564
1771683723451988500,2.270988525390625,-0.047646086663007736,-0.0006108472589403391,-0.0006108472589403391
1771683723462346000,2.281345947265625,-0.04703523963689804,0.006719320081174374,-0.0036650835536420345
1771683723472703500,2.291703369140625,-0.045202698558568954,-0.0024433890357613564,-0.0012216945178806782
1771683723483061000,2.30206103515625,-0.04459185153245926,0.0018325417768210173,-0.0030542362947016954
1771683723493418500,2.31241845703125,-0.04581354558467865,0,-0.0030542362947016954
1771683723503776000,2.32277587890625,-0.046424392610788345,0.0024433890357613564,-0.0018325417768210173
1771683723514133500,2.333133544921875,-0.04825693368911743,0.009773556143045425,0
1771683723524491000,2.343490966796875,-0.04703523963689804,0.0036650835536420345,-0.0018325417768210173
1771683723534848500,2.3538486328125,-0.04703523963689804,0.005497625097632408,-0.0012216945178806782
1771683723545206300,2.364206298828125,-0.046424392610788345,0.007941014133393764,-0.004275931045413017
1771683723555563500,2.3745634765625,-0.045202698558568954,0.007941014133393764,-0.0024433890357613564
1771683723565921000,2.384921142578125,-0.046424392610788345,0.014049487188458443,-0.004886778071522713
1771683723576288000,2.3952880859375,-0.046424392610788345,0.01038440316915512,-0.0006108472589403391
1771683723586636000,2.405635986328125,-0.04703523963689804,0.013438640162348747,-0.0006108472589403391
1771683723597011700,2.41601171875,-0.04703523963689804,0.014049487188458443,-0.0006108472589403391
1771683723607351000,2.42635107421875,-0.047646086663007736,0.009773556143045425,0.004886778071522713
1771683723617735400,2.4367353515625,-0.046424392610788345,0.00916270911693573,-0.0030542362947016954
1771683723628142800,2.447142822265625,-0.046424392610788345,0.005497625097632408,-0.0006108472589403391
1771683723638428400,2.457428466796875,-0.04825693368911743,0.00916270911693573,0
1771683723648805600,2.4678056640625,-0.05070032179355621,0.013438640162348747,-0.0018325417768210173
1771683723659152100,2.478152099609375,-0.05375456064939499,0.017714571207761765,0
1771683723669498600,2.48849853515625,-0.054365407675504684,0.01710372418165207,-0.0030542362947016954
1771683723679853800,2.498853759765625,-0.05375456064939499,0.00916270911693573,0.0006108472589403391
1771683723690222300,2.509222412109375,-0.053143709897994995,0.012827792204916477,-0.0024433890357613564
1771683723700568600,2.519568603515625,-0.0525328628718853,0.006719320081174374,0.0012216945178806782
1771683723710946000,2.529946044921875,-0.055587101727724075,0.014660334214568138,0.0012216945178806782
1771683723721283800,2.540283935546875,-0.056808795779943466,0.01588202826678753,-0.0006108472589403391
1771683723731641300,2.550641357421875,-0.056808795779943466,0.012216945178806782,0.007941014133393764
1771683723741998800,2.560998779296875,-0.05619794875383377,0.013438640162348747,0
1771683723752362800,2.57136279296875,-0.054365407675504684,0.006108472589403391,-0.0030542362947016954
1771683723762713900,2.5817138671875,-0.0525328628718853,0.01710372418165207,0.0030542362947016954
1771683723773086500,2.59208642578125,-0.05131116881966591,0.00916270911693573,-0.006108472589403391
1771683723783428900,2.602428955078125,-0.04825693368911743,0.004886778071522713,-0.0012216945178806782
1771683723793810200,2.61281005859375,-0.046424392610788345,0.009773556143045425,0.005497625097632408
1771683723804143900,2.623143798828125,-0.046424392610788345,-0.0012216945178806782,-0.0012216945178806782
1771683723814503200,2.633503173828125,-0.05070032179355621,0.015271181240677834,0.0006108472589403391
1771683723824859000,2.64385888671875,-0.046424392610788345,0.023212196305394173,0.005497625097632408
1771683723835227000,2.654226806640625,-0.04459185153245926,0,-0.0024433890357613564
1771683723845574000,2.664573974609375,-0.04092676565051079,0.016492875292897224,0.004275931045413017
1771683723855950600,2.67495068359375,-0.036039989441633224,-0.0024433890357613564,0.0024433890357613564
1771683723866297000,2.685297119140625,-0.0390942245721817,-0.0012216945178806782,-0.0024433890357613564
1771683723876674000,2.695674072265625,-0.04337015375494957,0.026877280324697495,0.0030542362947016954
1771683723887004000,2.70600390625,-0.04337015375494957,0.004886778071522713,-0.004275931045413017
1771683723897367300,2.7163671875,-0.043981000781059265,0.013438640162348747,0.010995250195264816
1771683723907719000,2.726718994140625,-0.042759306728839874,0.01710372418165207,0.005497625097632408
1771683723918091000,2.737091064453125,-0.042759306728839874,-0.005497625097632408,-0.0024433890357613564
1771683723928437500,2.7474375,-0.047646086663007736,0.021379653364419937,0.0024433890357613564
1771683723938814500,2.757814453125,-0.04031591862440109,0.038483377546072006,-0.0006108472589403391
1771683723949161200,2.7681611328125,-0.042759306728839874,-0.029320668429136276,0.0006108472589403391
1771683723959506400,2.77850634765625,-0.04459185153245926,0.04092676565051079,0.0006108472589403391
1771683723969884700,2.788884765625,-0.04031591862440109,-0.013438640162348747,0.0018325417768210173
1771683723980221400,2.799221435546875,-0.047646086663007736,0,0.0036650835536420345
1771683723990608400,2.8096083984375,-0.046424392610788345,0.04153761267662048,-0.004886778071522713
1771683724000936400,2.8199365234375,-0.038483377546072006,-0.01038440316915512,0.006719320081174374
1771683724011301600,2.830301513671875,-0.05131116881966591,-0.021379653364419937,-0.013438640162348747
1771683724021651500,2.8406513671875,-0.042759306728839874,-0.005497625097632408,-0.03420744836330414
1771683724032025000,2.851025146484375,-0.045202698558568954,-0.031153209507465363,0.005497625097632408
1771683724042366500,2.861366455078125,-0.043981000781059265,0.04459185153245926,0.0024433890357613564
1771683724052748800,2.871748779296875,-0.0390942245721817,0.0030542362947016954,-0.006108472589403391
1771683724063081500,2.88208154296875,-0.0390942245721817,0.004886778071522713,0.008551862090826035
1771683724073442000,2.892442138671875,-0.03787253051996231,0.02626643143594265,-0.01038440316915512
1771683724083796500,2.90279638671875,-0.031153209507465363,-0.014660334214568138,-0.0012216945178806782
1771683724094165500,2.91316552734375,-0.03237490355968475,0.022601349279284477,0.008551862090826035
1771683724104511500,2.923511474609375,-0.030542362481355667,0.004886778071522713,-0.006719320081174374
1771683724114889200,2.93388916015625,-0.03420744836330414,0.014049487188458443,-0.00916270911693573
1771683724125226500,2.9442265625,-0.031153209507465363,0.013438640162348747,-0.009773556143045425
1771683724135613000,2.954613037109375,-0.024433890357613564,0.015271181240677834,0.0036650835536420345
1771683724145941500,2.96494140625,-0.023823043331503868,0.0006108472589403391,-0.0012216945178806782
1771683724156306000,2.975305908203125,-0.02076880633831024,0.0036650835536420345,-0.011606098152697086
1771683724166656500,2.985656494140625,-0.01954711228609085,0.014049487188458443,-0.004886778071522713
1771683724177029600,2.996029541015625,-0.020157959312200546,0.006719320081174374,0
1771683724187376000,3.006376220703125,-0.021379653364419937,0.006108472589403391,-0.005497625097632408
1771683724197753300,3.01675341796875,-0.02076880633831024,0.01588202826678753,-0.005497625097632408
1771683724208130300,3.02713037109375,-0.020157959312200546,0.004275931045413017,-0.005497625097632408
1771683724218446300,3.0374462890625,-0.01832541823387146,0.02870982140302658,-0.011606098152697086
1771683724228801500,3.047801513671875,-0.012827792204916477,0.0018325417768210173,-0.006719320081174374
1771683724239170000,3.058170166015625,-0.014049487188458443,0.0018325417768210173,-0.00916270911693573
1771683724249516500,3.0685166015625,-0.012216945178806782,0.021990500390529633,-0.010995250195264816
1771683724259874000,3.0788740234375,-0.01588202826678753,-0.01832541823387146,-0.0036650835536420345
1771683724270240300,3.089240234375,-0.01710372418165207,0.036039989441633224,-0.008551862090826035
1771683724280589000,3.099589111328125,-0.01588202826678753,0.004886778071522713,-0.0006108472589403391
1771683724290964000,3.1099638671875,-0.020157959312200546,-0.01954711228609085,-0.01832541823387146
1771683724301304000,3.120303955078125,-0.020157959312200546,-0.0006108472589403391,-0.031153209507465363
1771683724311687700,3.130687744140625,-0.010995250195264816,0.0030542362947016954,-0.006719320081174374
1771683724322019000,3.14101904296875,-0.009773556143045425,0.01588202826678753,-0.0012216945178806782
1771683724332380700,3.151380615234375,-0.013438640162348747,0.01710372418165207,-0.014049487188458443
1771683724342734000,3.161734130859375,-0.012827792204916477,0.021379653364419937,0
1771683724353104400,3.1721044921875,-0.011606098152697086,0.012827792204916477,-0.0030542362947016954
1771683724363449000,3.182448974609375,-0.008551862090826035,0.015271181240677834,0
1771683724373828000,3.192828125,-0.007941014133393764,0.0012216945178806782,0.006108472589403391
1771683724384164000,3.2031640625,-0.01038440316915512,0.004886778071522713,-0.005497625097632408
1771683724394551600,3.213551513671875,-0.01038440316915512,0.011606098152697086,-0.012827792204916477
1771683724404879000,3.223879150390625,-0.006108472589403391,0.015271181240677834,0.0012216945178806782
1771683724415244800,3.234244873046875,-0.0036650835536420345,0.01038440316915512,0.0030542362947016954
1771683724425594000,3.244593994140625,-0.0012216945178806782,0.01710372418165207,-0.00916270911693573
1771683724435968500,3.254968505859375,0.0006108472589403391,0.0006108472589403391,0.0030542362947016954
1771683724446315000,3.26531494140625,-0.0012216945178806782,0.014660334214568138,0.0036650835536420345
1771683724456692000,3.27569189453125,-0.0012216945178806782,0.009773556143045425,0.004275931045413017
1771683724467038700,3.286038818359375,-0.007941014133393764,-0.028098974376916885,-0.01832541823387146
1771683724477381600,3.296381591796875,-0.008551862090826035,-0.009773556143045425,-0.021379653364419937
1771683724487762200,3.30676220703125,0.0030542362947016954,0.010995250195264816,0.004275931045413017
1771683724498109000,3.31710888671875,0.006108472589403391,0.01038440316915512,0.006108472589403391
1771683724508455400,3.327455322265625,0.0036650835536420345,-0.004886778071522713,-0.011606098152697086
1771683724518832400,3.337832275390625,0.004886778071522713,0.01710372418165207,-0.004886778071522713
1771683724529179100,3.34817919921875,0.008551862090826035,0.0024433890357613564,0.013438640162348747
1771683724539526700,3.358526611328125,0.004275931045413017,0.007330167107284069,0.00916270911693573
1771683724549902600,3.368902587890625,0,-0.012216945178806782,-0.006719320081174374
1771683724560241700,3.37924169921875,-0.014049487188458443,-0.042759306728839874,-0.022601349279284477
1771683724570626300,3.389626220703125,-0.010995250195264816,-0.03298575058579445,-0.02748812735080719
1771683724580956700,3.399956787109375,0.006719320081174374,0.03237490355968475,0.00916270911693573
1771683724591319600,3.410319580078125,0.004275931045413017,-0.007330167107284069,0.0012216945178806782
1771683724601671700,3.420671630859375,-0.0012216945178806782,0.0006108472589403391,-0.02076880633831024
1771683724612043000,3.43104296875,0.006108472589403391,0.004886778071522713,0.004275931045413017
1771683724622386700,3.44138671875,0.007330167107284069,0.014049487188458443,0.012216945178806782
1771683724632766700,3.4517666015625,-0.02076880633831024,-0.16615045070648193,-0.08063183724880219
1771683724643101700,3.462101806640625,-0.0787992998957634,-0.25411245226860046,-0.16370706260204315
1771683724653460000,3.4724599609375,-0.12094775587320328,-0.10934165865182877,-0.08185353130102158
1771683724663816700,3.482816650390625,-0.08796200156211853,-0.01038440316915512,-0.008551862090826035
1771683724674183400,3.493183349609375,-0.014660334214568138,0.0006108472589403391,-0.012827792204916477
1771683724684531700,3.50353173828125,0.004886778071522713,0.00916270911693573,-0.006719320081174374
1771683724694907100,3.5139072265625,0.006719320081174374,0.0030542362947016954,-0.00916270911693573
1771683724705246700,3.524246826171875,0.006108472589403391,0.00916270911693573,-0.006719320081174374
1771683724715630800,3.534630859375,0.006108472589403391,0.006719320081174374,-0.0024433890357613564
1771683724725961700,3.544961669921875,0.0006108472589403391,0.0006108472589403391,-0.015271181240677834
1771683724736323800,3.55532373046875,-0.0018325417768210173,0.014049487188458443,-0.021379653364419937
1771683724746677000,3.565677001953125,0.0024433890357613564,0.008551862090826035,-0.014049487188458443
1771683724757047600,3.576047607421875,0.0006108472589403391,0.01710372418165207,-0.02504473738372326
1771683724767392000,3.58639208984375,-0.0012216945178806782,0.017714571207761765,-0.04581354558467865
1771683724777771300,3.596771240234375,0.0024433890357613564,0.0390942245721817,-0.037261683493852615
1771683724788148200,3.607148193359375,0.004275931045413017,0.026877280324697495,-0.034818295389413834
1771683724798494700,3.61749462890625,0.004886778071522713,0.014660334214568138,-0.04703523963689804
1771683724808841500,3.627841552734375,0.007941014133393764,0.02076880633831024,-0.04947862774133682
1771683724819188000,3.63818798828125,0.009773556143045425,0.021990500390529633,-0.038483377546072006
1771683724829565000,3.64856494140625,0.00916270911693573,0.021990500390529633,-0.04947862774133682
1771683724839894500,3.65889453125,0.00916270911693573,0.022601349279284477,-0.042759306728839874
1771683724850258200,3.669258056640625,0.009773556143045425,0.03298575058579445,-0.03787253051996231
1771683724860609500,3.679609619140625,0.00916270911693573,0.01588202826678753,-0.0525328628718853
1771683724870982000,3.68998193359375,0.010995250195264816,0.026877280324697495,-0.053143709897994995
1771683724881324500,3.700324462890625,0.01588202826678753,0.029320668429136276,-0.04703523963689804
1771683724891705300,3.710705322265625,0.015271181240677834,0.029320668429136276,-0.04214845970273018
1771683724902039600,3.72103955078125,0.013438640162348747,0.023212196305394173,-0.061084724962711334
1771683724912398600,3.731398681640625,0.01588202826678753,0.03298575058579445,-0.037261683493852615
1771683724922754300,3.74175439453125,0.014660334214568138,0.03542914241552353,-0.03298575058579445
1771683724933122300,3.752122314453125,0.015271181240677834,0.02870982140302658,-0.037261683493852615
1771683724943469600,3.762469482421875,0.014660334214568138,0.023823043331503868,-0.030542362481355667
1771683724953845800,3.772845703125,0.017714571207761765,0.028098974376916885,-0.028098974376916885
1771683724964184600,3.7831845703125,0.01588202826678753,0.01710372418165207,-0.02626643143594265
1771683724974569500,3.793569580078125,0.013438640162348747,0.018936265259981155,-0.03176405653357506
1771683724984899600,3.803899658203125,0.012216945178806782,0.015271181240677834,-0.021379653364419937
1771683724995262700,3.8142626953125,0.008551862090826035,0.023823043331503868,-0.021379653364419937
1771683725005614600,3.824614501953125,0.007941014133393764,0.017714571207761765,-0.01710372418165207
1771683725015986200,3.834986083984375,0.008551862090826035,0.01710372418165207,-0.010995250195264816
1771683725026333000,3.8453330078125,0.009773556143045425,0.015271181240677834,-0.007941014133393764
1771683725036710000,3.8557099609375,0.00916270911693573,0.016492875292897224,-0.0006108472589403391
1771683725047044600,3.866044677734375,0.008551862090826035,0.015271181240677834,-0.004886778071522713
1771683725057403100,3.876403076171875,0.007941014133393764,0.016492875292897224,-0.0006108472589403391
1771683725067759600,3.886759521484375,0.007941014133393764,0.025655584409832954,0.0012216945178806782
1771683725078126600,3.897126708984375,0.008551862090826035,0.015271181240677834,0
1771683725088503800,3.90750390625,0.005497625097632408,0.031153209507465363,0.0006108472589403391
1771683725098850300,3.917850341796875,0.006719320081174374,0.03237490355968475,0.0006108472589403391
1771683725109196800,3.92819677734375,0.006108472589403391,0.030542362481355667,0.005497625097632408
1771683725119547100,3.938547119140625,0.005497625097632408,0.026877280324697495,-0.005497625097632408
1771683725129920500,3.94892041015625,0.006108472589403391,0.024433890357613564,-0.0012216945178806782
1771683725140262100,3.95926220703125,0.00916270911693573,0.028098974376916885,0.004275931045413017
1771683725150644200,3.969644287109375,0.00916270911693573,0.013438640162348747,-0.0018325417768210173
1771683725160977200,3.97997705078125,0.009773556143045425,0.025655584409832954,-0.006108472589403391
1771683725171337200,3.990337158203125,0.00916270911693573,0.01588202826678753,-0.0006108472589403391
1771683725181692200,4.000692138671875,0.00916270911693573,0.020157959312200546,-0.0030542362947016954
1771683725192061000,4.01106103515625,0.005497625097632408,0.01588202826678753,-0.015271181240677834
1771683725202407200,4.0214072265625,0.006719320081174374,0.021379653364419937,-0.010995250195264816
1771683725212784600,4.03178466796875,0.006719320081174374,0.020157959312200546,-0.007330167107284069
1771683725223122200,4.0421220703125,0.004886778071522713,0.014660334214568138,-0.01710372418165207
1771683725233479700,4.052479736328125,0.005497625097632408,0.00916270911693573,-0.012827792204916477
1771683725243837200,4.062837158203125,0.008551862090826035,0.012827792204916477,-0.0036650835536420345
1771683725254201300,4.073201416015625,0.009773556143045425,0.004886778071522713,-0.006719320081174374
1771683725264552200,4.08355224609375,0.007330167107284069,0.015271181240677834,-0.0024433890357613564
1771683725274925000,4.093925048828125,0.007941014133393764,0.005497625097632408,-0.015271181240677834
1771683725285267200,4.10426708984375,0.012827792204916477,0.03298575058579445,0.006719320081174374
1771683725295648800,4.114648681640625,0.01038440316915512,-0.01710372418165207,-0.015271181240677834
1771683725305982200,4.124982177734375,0.015271181240677834,0.045202698558568954,-0.009773556143045425
1771683725316341800,4.135341796875,0.014049487188458443,-0.023212196305394173,-0.009773556143045425
1771683725326719000,4.145718994140625,0.015271181240677834,0.03237490355968475,-0.006719320081174374
1771683725337065500,4.1560654296875,0.011606098152697086,-0.021990500390529633,-0.01710372418165207
1771683725347442400,4.1664423828125,0.01588202826678753,0.01588202826678753,-0.0024433890357613564
1771683725357789200,4.1767890625,0.015271181240677834,-0.006719320081174374,-0.012216945178806782
1771683725368127200,4.187127197265625,0.013438640162348747,-0.0006108472589403391,-0.013438640162348747
1771683725378512600,4.1975126953125,0.012827792204916477,-0.00916270911693573,-0.01588202826678753
1771683725388859400,4.207859375,0.017714571207761765,0.008551862090826035,-0.007941014133393764
1771683725399206000,4.218205810546875,0.01832541823387146,-0.01588202826678753,-0.01954711228609085
1771683725409582800,4.228582763671875,0.014049487188458443,0.0036650835536420345,-0.022601349279284477
1771683725419914800,4.238914794921875,0.015271181240677834,0.0036650835536420345,-0.011606098152697086
1771683725430276000,4.249276123046875,0.014049487188458443,0,-0.012216945178806782
1771683725440629800,4.259629638671875,0.010995250195264816,-0.0018325417768210173,-0.01954711228609085
1771683725450999800,4.269999755859375,0.010995250195264816,0.009773556143045425,-0.011606098152697086
1771683725461344800,4.2803447265625,0.012216945178806782,-0.0012216945178806782,-0.014660334214568138
1771683725471723300,4.29072314453125,0.009773556143045425,0,-0.014660334214568138
1771683725482059800,4.301059814453125,0.00916270911693573,0.012827792204916477,-0.02076880633831024
1771683725492447000,4.311447021484375,0.00916270911693573,0.00916270911693573,-0.013438640162348747
1771683725502774800,4.32177490234375,0.007941014133393764,0.01588202826678753,-0.02076880633831024
1771683725513140200,4.33214013671875,0.008551862090826035,0.01588202826678753,-0.023212196305394173
1771683725523489800,4.34248974609375,0.00916270911693573,0.020157959312200546,-0.018936265259981155
1771683725533863700,4.35286376953125,0.009773556143045425,0.02076880633831024,-0.022601349279284477
1771683725544204800,4.363204833984375,0.006719320081174374,0.013438640162348747,-0.025655584409832954
1771683725554587400,4.37358740234375,0.005497625097632408,0.01832541823387146,-0.023212196305394173
1771683725564919800,4.383919921875,0.006719320081174374,0.013438640162348747,-0.018936265259981155
1771683725575280600,4.39428076171875,0.008551862090826035,0.00916270911693573,-0.01954711228609085
1771683725585634800,4.404634765625,0.006108472589403391,0.014049487188458443,-0.028098974376916885
1771683725596004000,4.415004150390625,0.007330167107284069,0.010995250195264816,-0.014049487188458443
1771683725606350800,4.425350830078125,0.007330167107284069,0.004275931045413017,-0.021990500390529633
1771683725616727800,4.435727783203125,0.00916270911693573,0.0006108472589403391,-0.02504473738372326
1771683725627064800,4.44606494140625,0.01038440316915512,0.007330167107284069,-0.023823043331503868
1771683725637451500,4.456451416015625,0.013438640162348747,0.011606098152697086,-0.015271181240677834
1771683725647779800,4.46677978515625,0.01038440316915512,0.007330167107284069,-0.01954711228609085
1771683725658144500,4.47714453125,0.012827792204916477,0.0024433890357613564,-0.021379653364419937
1771683725668521700,4.487521728515625,0.014660334214568138,0.006719320081174374,-0.012216945178806782
1771683725678868200,4.4978681640625,0.015271181240677834,0.007941014133393764,-0.01832541823387146
1771683725689214700,4.508214599609375,0.012827792204916477,0.013438640162348747,-0.01832541823387146
1771683725699567400,4.5185673828125,0.014660334214568138,0.01588202826678753,-0.015271181240677834
1771683725709938400,4.5289384765625,0.01588202826678753,0.023823043331503868,-0.01588202826678753
1771683725720282400,4.539282470703125,0.01710372418165207,0.01038440316915512,-0.01832541823387146
1771683725730640000,4.549639892578125,0.01710372418165207,0.01710372418165207,-0.014049487188458443
1771683725740997400,4.559997314453125,0.020157959312200546,0.01954711228609085,-0.011606098152697086
1771683725751355100,4.570355224609375,0.01954711228609085,0.01588202826678753,-0.014660334214568138
1771683725761712400,4.58071240234375,0.01954711228609085,0.01710372418165207,-0.016492875292897224
1771683725772078800,4.591078857421875,0.01954711228609085,0.020157959312200546,-0.009773556143045425
1771683725782427400,4.601427490234375,0.01832541823387146,0.008551862090826035,-0.013438640162348747
1771683725792802600,4.611802490234375,0.017714571207761765,0.01588202826678753,-0.014049487188458443
1771683725803142400,4.622142333984375,0.015271181240677834,0.008551862090826035,-0.00916270911693573
1771683725813526300,4.6325263671875,0.014660334214568138,0.015271181240677834,-0.013438640162348747
1771683725823857400,4.642857421875,0.012827792204916477,0.01038440316915512,-0.008551862090826035
1771683725834219300,4.65321923828125,0.013438640162348747,0.008551862090826035,-0.00916270911693573
1771683725844572400,4.663572509765625,0.010995250195264816,0.010995250195264816,-0.014660334214568138
1771683725854943000,4.67394287109375,0.010995250195264816,0.010995250195264816,-0.009773556143045425
1771683725865287400,4.684287353515625,0.00916270911693573,0.012827792204916477,-0.009773556143045425
1771683725875666700,4.694666748046875,0.007941014133393764,0.00916270911693573,-0.01038440316915512
1771683725886002400,4.70500244140625,0.007330167107284069,0.006108472589403391,-0.013438640162348747
1771683725896390100,4.71539013671875,0.007330167107284069,0.007330167107284069,-0.005497625097632408
1771683725906717400,4.725717529296875,0.007941014133393764,0.0018325417768210173,-0.00916270911693573
1771683725917083400,4.73608349609375,0.005497625097632408,0.0018325417768210173,-0.013438640162348747
1771683725927432400,4.746432373046875,0.005497625097632408,0.008551862090826035,-0.007330167107284069
1771683725937807000,4.75680712890625,0.006719320081174374,0.013438640162348747,-0.007330167107284069
1771683725948147500,4.7671474609375,0.006719320081174374,0.006108472589403391,-0.014049487188458443
1771683725958530600,4.777530517578125,0.005497625097632408,0.01710372418165207,-0.00916270911693573
1771683725968877300,4.787877197265625,0.008551862090826035,0.011606098152697086,-0.0024433890357613564
1771683725979220000,4.798219970703125,0.007941014133393764,0.021379653364419937,-0.01038440316915512
1771683725989600800,4.808600830078125,0.009773556143045425,0.011606098152697086,0.0030542362947016954
1771683725999935000,4.81893505859375,0.005497625097632408,0.034818295389413834,-0.0024433890357613564
1771683726010294000,4.8292939453125,0.008551862090826035,0.023212196305394173,-0.007941014133393764
1771683726020650000,4.83964990234375,0.007330167107284069,0.03420744836330414,-0.0024433890357613564
1771683726031017700,4.850017822265625,-0.0036650835536420345,0.07085828483104706,0.010995250195264816
1771683726041365000,4.860364990234375,-0.016492875292897224,0.11606097966432571,0.04092676565051079
1771683726051741200,4.8707412109375,-0.009773556143045425,0.16859383881092072,0.05864133685827255
1771683726062080000,4.881080078125,0,0.1185043677687645,0.04031591862440109
1771683726072465000,4.89146484375,0.012827792204916477,0.036039989441633224,-0.01038440316915512
1771683726082795300,4.901795166015625,0.014660334214568138,0.018936265259981155,-0.010995250195264816
1771683726093158100,4.912158203125,0.015271181240677834,0.02504473738372326,-0.004275931045413017
1771683726103510300,4.92251025390625,0.014660334214568138,0.01832541823387146,-0.011606098152697086
1771683726113881600,4.932881591796875,0.014049487188458443,0.014049487188458443,-0.004886778071522713
1771683726124225300,4.943225341796875,0.014049487188458443,0.030542362481355667,-0.0006108472589403391
1771683726134605300,4.953605224609375,0.013438640162348747,0.015271181240677834,0
1771683726144940000,4.96393994140625,0.011606098152697086,0.02504473738372326,0.0012216945178806782
1771683726155298600,4.974298583984375,0.01038440316915512,0.023212196305394173,0.007941014133393764
1771683726165655300,4.9846552734375,0.008551862090826035,0.018936265259981155,0.00916270911693573
1771683726176022000,4.99502197265625,0.007330167107284069,0.021990500390529633,0.004886778071522713
1771683726186399200,5.005399169921875,0.007330167107284069,0.011606098152697086,0.012216945178806782
1771683726196745700,5.015745849609375,0.006719320081174374,0.01954711228609085,0.008551862090826035
1771683726207085300,5.026085205078125,0.005497625097632408,0.012827792204916477,0.011606098152697086
1771683726217469400,5.036469482421875,0.004886778071522713,0.01954711228609085,0.010995250195264816
1771683726227800300,5.04680029296875,0.004275931045413017,0.015271181240677834,0.011606098152697086
1771683726238162400,5.057162353515625,0.0024433890357613564,0.01588202826678753,0.01038440316915512
1771683726248539600,5.06753955078125,0.0024433890357613564,0.011606098152697086,0.014660334214568138
1771683726258886100,5.07788623046875,0.0018325417768210173,0.01038440316915512,0.012216945178806782
1771683726269232600,5.088232666015625,0.0018325417768210173,0.014660334214568138,0.009773556143045425
1771683726289956400,5.108956298828125,0.0030542362947016954,0.012216945178806782,0.011606098152697086
1771683726300302800,5.119302734375,0.0036650835536420345,0.011606098152697086,0.01038440316915512
1771683726310680000,5.12968017578125,0.007330167107284069,0.014049487188458443,0.012216945178806782
1771683726321017900,5.140017822265625,0.007330167107284069,0.013438640162348747,0.011606098152697086
1771683726331403800,5.15040380859375,0.007941014133393764,0.014049487188458443,0.006719320081174374
1771683726341732900,5.16073291015625,0.01038440316915512,0.012827792204916477,0.012827792204916477
1771683726352096800,5.1710966796875,0.011606098152697086,0.009773556143045425,0.009773556143045425
1771683726362448000,5.18144775390625,0.014660334214568138,0.007330167107284069,0.006108472589403391
1771683726372820500,5.191820556640625,0.016492875292897224,0.004886778071522713,0.00916270911693573
1771683726383163000,5.202162841796875,0.017714571207761765,0.008551862090826035,0.007330167107284069
1771683726393544200,5.212544189453125,0.01710372418165207,0.005497625097632408,0.006108472589403391
1771683726403878000,5.2228779296875,0.01710372418165207,0.004275931045413017,0.007330167107284069
1771683726414237200,5.2332373046875,0.018936265259981155,0.0036650835536420345,0.005497625097632408
1771683726424593000,5.243593017578125,0.020157959312200546,-0.0012216945178806782,0.004886778071522713
1771683726434961000,5.2539609375,0.02076880633831024,0.0036650835536420345,0.007330167107284069
1771683726445308000,5.264307861328125,0.01954711228609085,-0.0012216945178806782,0.004886778071522713
1771683726455684600,5.2746845703125,0.01832541823387146,-0.0006108472589403391,0
1771683726466061600,5.2850615234375,0.017714571207761765,-0.0018325417768210173,0.0030542362947016954
1771683726476408000,5.295407958984375,0.01832541823387146,0,0.004886778071522713
1771683726486738000,5.305738037109375,0.017714571207761765,-0.005497625097632408,0.0006108472589403391
1771683726497101300,5.316101318359375,0.016492875292897224,0.0030542362947016954,0.0024433890357613564
1771683726507453000,5.326452880859375,0.015271181240677834,0.0024433890357613564,0.006719320081174374
1771683726517825000,5.336824951171875,0.015271181240677834,0.0036650835536420345,0.004886778071522713
1771683726528168000,5.34716796875,0.014049487188458443,0.0024433890357613564,0
1771683726538548500,5.357548583984375,0.015271181240677834,0.0030542362947016954,0.0036650835536420345
1771683726548895200,5.367895263671875,0.014049487188458443,0.007941014133393764,0.0018325417768210173
1771683726559241700,5.37824169921875,0.012216945178806782,0.0036650835536420345,0.0012216945178806782
1771683726569618700,5.38861865234375,0.011606098152697086,0.0024433890357613564,0.0018325417768210173
1771683726579955500,5.39895556640625,0.012827792204916477,0.004886778071522713,0.0036650835536420345
1771683726590342400,5.40934228515625,0.014660334214568138,0.0018325417768210173,0.012216945178806782
1771683726600670500,5.41967041015625,0.011606098152697086,0.005497625097632408,0.005497625097632408
1771683726611035600,5.43003564453125,0.01038440316915512,0.033596597611904144,0.004275931045413017
1771683726621385500,5.440385498046875,0.01588202826678753,0.04825693368911743,0.04031591862440109
1771683726631759000,5.450759033203125,0.01710372418165207,-0.02504473738372326,-0.008551862090826035
1771683726642100500,5.4611005859375,0.01832541823387146,-0.18081079423427582,-0.08307522535324097
1771683726652482800,5.47148291015625,-0.0006108472589403391,-0.08307522535324097,-0.055587101727724075
1771683726662815500,5.4818154296875,0.021379653364419937,0.26938363909721375,0.13927318155765533
1771683726673176000,5.492176025390625,0.034818295389413834,0.130721315741539,0.08918370306491852
1771683726683530500,5.502530517578125,0.02748812735080719,-0.17286977171897888,-0.09712471067905426
1771683726693899500,5.5128994140625,0.025655584409832954,-0.16859383881092072,-0.09590301662683487
1771683726704245500,5.52324560546875,0.02626643143594265,0.08735115826129913,0.04459185153245926
1771683726714623200,5.533623291015625,0.020157959312200546,0.01710372418165207,0.014049487188458443
1771683726724960500,5.54396044921875,0.016492875292897224,0.007330167107284069,-0.004886778071522713
1771683726735347000,5.554346923828125,0.01832541823387146,0.007941014133393764,0.01038440316915512
1771683726745675500,5.564675537109375,0.016492875292897224,0.011606098152697086,0.0012216945178806782
1771683726756040000,5.5750400390625,0.012827792204916477,0.016492875292897224,-0.0030542362947016954
1771683726766417200,5.585417236328125,0.014049487188458443,0.008551862090826035,0.0018325417768210173
1771683726776763600,5.595763671875,0.020157959312200546,0.007941014133393764,-0.0006108472589403391
1771683726787110100,5.606110107421875,0.020157959312200546,-0.01832541823387146,-0.016492875292897224
1771683726797487400,5.6164873046875,0.021379653364419937,0.015271181240677834,-0.014660334214568138
1771683726807820500,5.626820556640625,0.02504473738372326,0.028098974376916885,0.0024433890357613564
1771683726818180400,5.637180419921875,0.01954711228609085,0.012827792204916477,0.0018325417768210173
1771683726828557600,5.6475576171875,0.01954711228609085,-0.015271181240677834,-0.018936265259981155
1771683726838904000,5.657904052734375,0.01954711228609085,0.012827792204916477,-0.012827792204916477
1771683726849250600,5.66825048828125,0.021379653364419937,0.00916270911693573,-0.0024433890357613564
1771683726859608000,5.678608154296875,0.023823043331503868,0.017714571207761765,0.0036650835536420345
1771683726869974300,5.688974365234375,0.01954711228609085,0.005497625097632408,-0.006719320081174374
1771683726880323000,5.699322998046875,0.01954711228609085,0.009773556143045425,-0.012827792204916477
1771683726890698000,5.709697998046875,0.020157959312200546,0.021990500390529633,-0.0024433890357613564
1771683726901038000,5.7200380859375,0.02076880633831024,0.01710372418165207,-0.004886778071522713
1771683726911421700,5.730421630859375,0.02076880633831024,0.024433890357613564,-0.005497625097632408
1771683726921753000,5.740753173828125,0.021379653364419937,0.024433890357613564,0.0024433890357613564
1771683726932114700,5.75111474609375,0.020157959312200546,0.01954711228609085,-0.0018325417768210173
1771683726942468400,5.76146826171875,0.01954711228609085,0.02626643143594265,0.0006108472589403391
1771683726952838400,5.77183837890625,0.01710372418165207,0.020157959312200546,0.007330167107284069
1771683726963183000,5.78218310546875,0.017714571207761765,0.03542914241552353,0.007941014133393764
1771683726973562000,5.79256201171875,0.017714571207761765,0.020157959312200546,0.006108472589403391
1771683726983898000,5.802898193359375,0.018936265259981155,0.030542362481355667,0.0030542362947016954
1771683726994285600,5.81328564453125,0.01832541823387146,0.024433890357613564,0.0036650835536420345
1771683727004613400,5.82361328125,0.01832541823387146,0.03298575058579445,0.014049487188458443
1771683727014978800,5.833978759765625,0.01588202826678753,0.03420744836330414,0.008551862090826035
1771683727025328400,5.844328369140625,0.013438640162348747,0.034818295389413834,0.006108472589403391
1771683727035702500,5.85470263671875,0.014049487188458443,0.02993151545524597,0.009773556143045425
1771683727046049000,5.865049072265625,0.016492875292897224,0.034818295389413834,0.01588202826678753
1771683727056426000,5.875426025390625,0.01710372418165207,0.022601349279284477,0.018936265259981155
1771683727066758400,5.88575830078125,0.01588202826678753,0.025655584409832954,0.008551862090826035
1771683727077119200,5.896119140625,0.01710372418165207,0.023823043331503868,0.010995250195264816
1771683727087473400,5.906473388671875,0.014660334214568138,0.011606098152697086,0.009773556143045425
1771683727097843000,5.916843017578125,0.01832541823387146,0.017714571207761765,0.012827792204916477
1771683727108189400,5.927189453125,0.01588202826678753,0.004275931045413017,0.017714571207761765
1771683727118566400,5.93756640625,0.01588202826678753,0.01832541823387146,0.015271181240677834
1771683727128913200,5.9479130859375,0.014660334214568138,0.007941014133393764,0.009773556143045425
1771683727139290000,5.9582900390625,0.014660334214568138,0.01588202826678753,0.007941014133393764
1771683727149636600,5.96863671875,0.017714571207761765,0.008551862090826035,0.012216945178806782
1771683727159976000,5.978975830078125,0.01954711228609085,0.004275931045413017,0.007941014133393764
1771683727170360300,5.9893603515625,0.020157959312200546,0.0030542362947016954,0.0024433890357613564
1771683727180691000,5.99969091796875,0.020157959312200546,0.005497625097632408,0.007941014133393764
1771683727191053600,6.010053466796875,0.016492875292897224,0.009773556143045425,0.01038440316915512
1771683727201406000,6.020406005859375,0.013438640162348747,0.018936265259981155,0.0030542362947016954
1771683727211777000,6.030777099609375,0.012216945178806782,0.008551862090826035,-0.004886778071522713
1771683727222121000,6.041120849609375,0.01710372418165207,0.012827792204916477,-0.0024433890357613564
1771683727232478500,6.051478515625,0.021990500390529633,0.009773556143045425,-0.0024433890357613564
1771683727242836000,6.0618359375,0.026877280324697495,-0.0036650835536420345,-0.012216945178806782
1771683727253194000,6.072194091796875,0.028098974376916885,0.006719320081174374,0.0024433890357613564
1771683727263551000,6.082551025390625,0.023212196305394173,0.02076880633831024,-0.0018325417768210173
1771683727273917400,6.09291748046875,0.017714571207761765,-0.0024433890357613564,-0.02076880633831024
1771683727284266000,6.103265869140625,0.013438640162348747,0.02076880633831024,-0.011606098152697086
1771683727294641200,6.11364111328125,0.01588202826678753,0.006108472589403391,-0.0036650835536420345
1771683727304981000,6.12398095703125,0.012827792204916477,-0.04214845970273018,-0.017714571207761765
1771683727315364900,6.13436474609375,0.021379653364419937,-0.017714571207761765,-0.03665083646774292
1771683727325696000,6.144696044921875,0.04947862774133682,0.0781884491443634,0.03237490355968475
1771683727336057900,6.155057861328125,0.06780404597520828,0.1716480851173401,0.09895725548267365
1771683727346411000,6.165410888671875,0.028098974376916885,-0.04153761267662048,-0.013438640162348747
1771683727356781600,6.175781494140625,0.0030542362947016954,-0.25655585527420044,-0.14171656966209412
1771683727367126000,6.1861259765625,0.024433890357613564,-0.11667182296514511,-0.0916270911693573
1771683727377505300,6.19650537109375,0.047646086663007736,0.1435490995645523,0.08063183724880219
1771683727387841000,6.206841064453125,0.04092676565051079,0.13438639044761658,0.07696675509214401
1771683727398229000,6.21722900390625,0.012216945178806782,-0.16187451779842377,-0.08979454636573792
1771683727408575500,6.227575439453125,0.015271181240677834,-0.0922379344701767,-0.0922379344701767
1771683727418922000,6.237921875,0.034818295389413834,0.12278030067682266,0.0794101431965828
1771683727429299200,6.24829931640625,0.023823043331503868,0.0397050715982914,0.045202698558568954
1771683727439628500,6.258628662109375,0.01710372418165207,0.010995250195264816,-0.005497625097632408
1771683727449992200,6.2689921875,0.021990500390529633,0.007330167107284069,0.010995250195264816
1771683727460343600,6.279343505859375,0.02504473738372326,0.023212196305394173,0.02626643143594265
1771683727470716000,6.2897158203125,0.022601349279284477,0.0030542362947016954,-0.005497625097632408
1771683727481058600,6.30005859375,0.021379653364419937,0.023823043331503868,0.0030542362947016954
1771683727491439600,6.310439697265625,0.020157959312200546,0.025655584409832954,0.0036650835536420345
1771683727501773600,6.320773681640625,0.017714571207761765,0.01954711228609085,0.0030542362947016954
1771683727512132600,6.331132568359375,0.01832541823387146,0.03298575058579445,-0.011606098152697086
1771683727522488600,6.341488525390625,0.02504473738372326,0.029320668429136276,0.013438640162348747
1771683727532856300,6.351856201171875,0.022601349279284477,0.016492875292897224,0.007330167107284069
1771683727543203600,6.36220361328125,0.021379653364419937,0.023212196305394173,0.0018325417768210173
1771683727553580000,6.372580078125,0.020157959312200546,0.024433890357613564,0.01954711228609085
1771683727563918600,6.382918701171875,0.02076880633831024,0.021379653364419937,0.0030542362947016954
1771683727574303500,6.393303466796875,0.021379653364419937,0.02748812735080719,0.0006108472589403391
1771683727584633600,6.403633544921875,0.020157959312200546,0.01954711228609085,0.004275931045413017
1771683727594996700,6.413996826171875,0.02076880633831024,0.04153761267662048,-0.006719320081174374
1771683727605348900,6.424348876953125,0.017714571207761765,0.017714571207761765,-0.01588202826678753
1771683727615720400,6.434720458984375,0.018936265259981155,0.0390942245721817,-0.007941014133393764
1771683727626067000,6.44506689453125,0.018936265259981155,0.02626643143594265,-0.004886778071522713
1771683727636444000,6.45544384765625,0.018936265259981155,0.02993151545524597,-0.006719320081174374
1771683727646778600,6.465778564453125,0.01710372418165207,0.01832541823387146,-0.007330167107284069
1771683727657137200,6.47613720703125,0.018936265259981155,0.030542362481355667,-0.0006108472589403391
1771683727667514000,6.48651416015625,0.021379653364419937,0.018936265259981155,-0.0006108472589403391
1771683727677860900,6.49686083984375,0.021990500390529633,0.01710372418165207,-0.007941014133393764
1771683727688237800,6.50723779296875,0.022601349279284477,0.022601349279284477,-0.008551862090826035
1771683727698584300,6.517584228515625,0.021990500390529633,0.015271181240677834,-0.01710372418165207
1771683727708931000,6.52793115234375,0.022601349279284477,0.01954711228609085,-0.011606098152697086
1771683727719308000,6.53830810546875,0.022601349279284477,0.023823043331503868,-0.006719320081174374
1771683727729639000,6.548638916015625,0.024433890357613564,0.021990500390529633,-0.004275931045413017
1771683727739996400,6.558996337890625,0.023212196305394173,0.008551862090826035,-0.005497625097632408
1771683727750378200,6.569378173828125,0.02504473738372326,0.015271181240677834,0.004886778071522713
1771683727760711400,6.57971142578125,0.025655584409832954,0.006108472589403391,0.012216945178806782
1771683727771071500,6.590071533203125,0.02626643143594265,0.014049487188458443,0.01710372418165207
1771683727781426400,6.600426513671875,0.024433890357613564,-0.00916270911693573,0.018936265259981155
1771683727791795000,6.610794921875,0.026877280324697495,0.0006108472589403391,0.006108472589403391
1771683727802141400,6.621141357421875,0.02626643143594265,0.029320668429136276,0.026877280324697495
1771683727812518700,6.6315185546875,0.026877280324697495,-0.0012216945178806782,0.021990500390529633
1771683727822856400,6.6418564453125,0.025655584409832954,0.006108472589403391,0.012216945178806782
1771683727833242400,6.652242431640625,0.021990500390529633,0.005497625097632408,0.018936265259981155
1771683727843571500,6.662571533203125,0.02076880633831024,-0.0012216945178806782,0
1771683727853935400,6.672935302734375,0.018936265259981155,-0.0006108472589403391,0.009773556143045425
1771683727864286500,6.683286376953125,0.01588202826678753,0.009773556143045425,0.018936265259981155
1771683727874659000,6.6936591796875,0.018936265259981155,-0.004275931045413017,0.015271181240677834
1771683727885001500,6.70400146484375,0.016492875292897224,-0.004275931045413017,0.004275931045413017
1771683727895382800,6.7143828125,0.023212196305394173,0.011606098152697086,0.016492875292897224
1771683727905716500,6.724716552734375,0.023823043331503868,-0.0030542362947016954,0.01954711228609085
1771683727916075800,6.73507568359375,0.022601349279284477,-0.004275931045413017,0.0036650835536420345
1771683727926431500,6.745431396484375,0.01832541823387146,0.004275931045413017,-0.0012216945178806782
1771683727936799500,6.755799560546875,0.02076880633831024,0.017714571207761765,0.01710372418165207
1771683727947146500,6.766146484375,0.021990500390529633,-0.02076880633831024,-0.0012216945178806782
1771683727957523200,6.776523193359375,0.04581354558467865,-0.10995250940322876,-0.07452336698770523
1771683727967861500,6.786861572265625,0.08551861345767975,-0.17714570462703705,-0.10811996459960938
1771683727978219000,6.797218994140625,0.06047387793660164,-0.03787253051996231,-0.02748812735080719
1771683727988593400,6.807593505859375,0.03298575058579445,0.00916270911693573,0.012216945178806782
1771683727998940000,6.81793994140625,0.03176405653357506,0.010995250195264816,0.006719320081174374
1771683728009317000,6.828317138671875,0.02748812735080719,0.012827792204916477,-0.009773556143045425
1771683728019649000,6.83864892578125,0.02993151545524597,0.03176405653357506,0
1771683728030010000,6.849010009765625,0.021990500390529633,0.004886778071522713,-0.0012216945178806782
1771683728040364000,6.859364013671875,-0.007330167107284069,-0.031153209507465363,-0.053143709897994995
1771683728050733800,6.86973388671875,-0.0397050715982914,-0.09529217332601547,-0.08307522535324097
1771683728061079000,6.8800791015625,-0.020157959312200546,0.023212196305394173,-0.023823043331503868
1771683728071457500,6.89045751953125,0.015271181240677834,0.04153761267662048,-0.0012216945178806782
1771683728081794000,6.9007939453125,0.014049487188458443,0.05131116881966591,-0.01038440316915512
1771683728092181000,6.911180908203125,0.012827792204916477,0.010995250195264816,-0.020157959312200546
1771683728102509000,6.921509033203125,0.008551862090826035,0.045202698558568954,-0.012827792204916477
1771683728112874200,6.931874267578125,0.0006108472589403391,0.021990500390529633,-0.00916270911693573
1771683728123224000,6.94222412109375,-0.0397050715982914,-0.0030542362947016954,-0.034818295389413834
1771683728133598000,6.952597900390625,-0.07269082218408585,0.016492875292897224,-0.04092676565051079
1771683728143939000,6.96293896484375,-0.038483377546072006,0.014660334214568138,0.03298575058579445
1771683728154321400,6.9733212890625,-0.012827792204916477,0.06291726976633072,0.04947862774133682
1771683728164654300,6.983654296875,0.0024433890357613564,0.022601349279284477,-0.012216945178806782
1771683728175014700,6.9940146484375,-0.013438640162348747,0.0659715011715889,0.034818295389413834
1771683728185369300,7.004369384765625,-0.024433890357613564,0.014660334214568138,0.0036650835536420345
1771683728195738400,7.01473828125,-0.04947862774133682,-0.07513421028852463,-0.054365407675504684
1771683728206115300,7.025115234375,-0.0781884491443634,-0.018936265259981155,-0.045202698558568954
1771683728216461800,7.0354619140625,-0.07085828483104706,0.0018325417768210173,-0.0036650835536420345
1771683728226799400,7.04579931640625,-0.06780404597520828,0.03298575058579445,0.030542362481355667
1771683728237185500,7.056185546875,-0.08612946420907974,0.05986303091049194,0.04337015375494957
1771683728247514400,7.066514404296875,-0.0525328628718853,0.20768806338310242,0.11239589750766754
1771683728257878800,7.076878662109375,-0.06352811306715012,0.13438639044761658,0.06902574002742767
1771683728268229400,7.0872294921875,-0.04825693368911743,0.009773556143045425,-0.014660334214568138
1771683728278602200,7.097602294921875,-0.021379653364419937,-0.07513421028852463,-0.0653606578707695
1771683728288949000,7.107948974609375,0.0024433890357613564,-0.08368607610464096,-0.08857285231351852
1771683728299326000,7.118325927734375,0.014049487188458443,-0.06780404597520828,-0.055587101727724075
1771683728309672400,7.12867236328125,0.01588202826678753,0.05008947476744652,-0.00916270911693573
1771683728320017000,7.139016845703125,0.020157959312200546,0.021379653364419937,-0.004275931045413017
1771683728330396200,7.149396240234375,0.015271181240677834,0.029320668429136276,-0.004275931045413017
1771683728340732000,7.15973193359375,0.00916270911693573,0.0036650835536420345,-0.00916270911693573
1771683728351120000,7.170119873046875,0.007330167107284069,0.01588202826678753,-0.008551862090826035
1771683728361447000,7.180447021484375,0.010995250195264816,0.0012216945178806782,0.0012216945178806782
1771683728371812900,7.190812744140625,0.007330167107284069,0.005497625097632408,0.0024433890357613564
1771683728382162000,7.201161865234375,0.008551862090826035,0.01832541823387146,0.007330167107284069
1771683728392536600,7.21153662109375,0.006719320081174374,0.013438640162348747,-0.0006108472589403391
1771683728402877000,7.221876953125,0.0036650835536420345,0.045202698558568954,0.011606098152697086
1771683728413260300,7.23226025390625,0.0006108472589403391,0.012216945178806782,0.0018325417768210173
1771683728423592000,7.242592041015625,0.0024433890357613564,0.0390942245721817,0
1771683728433953300,7.252953369140625,0.0012216945178806782,0.026877280324697495,0.006719320081174374
1771683728444307000,7.263306884765625,-0.0006108472589403391,0.030542362481355667,0.01038440316915512
1771683728454677000,7.273677001953125,-0.0012216945178806782,0.023823043331503868,-0.0006108472589403391
1771683728465022000,7.28402197265625,-0.004275931045413017,0.046424392610788345,0.006719320081174374
1771683728475400700,7.294400634765625,-0.006108472589403391,0.023212196305394173,0.00916270911693573
1771683728485737000,7.304737060546875,-0.004275931045413017,0.028098974376916885,-0.013438640162348747
1771683728496124400,7.31512451171875,-0.0006108472589403391,0.028098974376916885,-0.006108472589403391
1771683728506452000,7.325451904296875,-0.0018325417768210173,0.03787253051996231,-0.0006108472589403391
1771683728516817400,7.3358173828125,-0.0036650835536420345,0.03237490355968475,-0.01710372418165207
1771683728527167000,7.3461669921875,-0.007330167107284069,0.04337015375494957,-0.01038440316915512
1771683728537541000,7.356541015625,-0.01038440316915512,0.04581354558467865,0.0006108472589403391
1771683728547882000,7.366882080078125,-0.011606098152697086,0.0024433890357613564,-0.013438640162348747
1771683728558264800,7.377264892578125,-0.0036650835536420345,0.037261683493852615,-0.020157959312200546
1771683728568611300,7.387611328125,0.0018325417768210173,0.017714571207761765,0.006719320081174374
1771683728578957800,7.397957763671875,0.0018325417768210173,0.023212196305394173,-0.0030542362947016954
1771683728589335000,7.4083349609375,0.0012216945178806782,0.028098974376916885,-0.008551862090826035
1771683728599669800,7.418669677734375,-0.0012216945178806782,0.03420744836330414,0.0012216945178806782
1771683728610028000,7.429028076171875,-0.0018325417768210173,0.012827792204916477,-0.0036650835536420345
1771683728620384500,7.439384521484375,0,0.03787253051996231,-0.02076880633831024
1771683728630751700,7.449751708984375,0.005497625097632408,0.022601349279284477,-0.0030542362947016954
1771683728641099500,7.460099609375,0.006719320081174374,0.03420744836330414,-0.007941014133393764
1771683728651475500,7.470475341796875,0.006719320081174374,0.04337015375494957,-0.014049487188458443
1771683728661814800,7.480814697265625,0.0036650835536420345,0.055587101727724075,0.007330167107284069
1771683728672199000,7.491198974609375,0,0.03542914241552353,-0.013438640162348747
1771683728682529800,7.50152978515625,-0.0006108472589403391,0.045202698558568954,-0.012827792204916477
1771683728692892200,7.51189208984375,0.0024433890357613564,0.03298575058579445,-0.0012216945178806782
1771683728703244800,7.522244873046875,0.007330167107284069,0.01832541823387146,-0.01588202826678753
1771683728713616000,7.532615966796875,0.004886778071522713,0.02076880633831024,-0.013438640162348747
1771683728723959800,7.542959716796875,0.0036650835536420345,0.038483377546072006,-0.0030542362947016954
1771683728734339300,7.55333935546875,0.0018325417768210173,0.005497625097632408,-0.010995250195264816
1771683728744674800,7.5636748046875,0.0030542362947016954,0.018936265259981155,-0.015271181240677834
1771683728755032600,7.574032470703125,0.01038440316915512,0.012216945178806782,0.00916270911693573
1771683728765389800,7.584389892578125,0.00916270911693573,-0.01588202826678753,0.006108472589403391
1771683728775756300,7.59475634765625,0.008551862090826035,0.014660334214568138,0.0036650835536420345
1771683728786133200,7.60513330078125,0.0024433890357613564,0.0390942245721817,0.028098974376916885
1771683728796479700,7.615479736328125,-0.0036650835536420345,-0.02870982140302658,0.0024433890357613564
1771683728806826500,7.625826416015625,0.0024433890357613564,0.024433890357613564,-0.010995250195264816
1771683728817203500,7.636203369140625,0.00916270911693573,0.029320668429136276,0.036039989441633224
1771683728827534800,7.646534912109375,0.006108472589403391,-0.021990500390529633,0.011606098152697086
1771683728837896700,7.656896728515625,-0.0012216945178806782,0.030542362481355667,0.004886778071522713
1771683728848273700,7.667273681640625,0.0006108472589403391,0.04153761267662048,0.034818295389413834
1771683728858620200,7.6776201171875,-0.006719320081174374,-0.026877280324697495,0.010995250195264816
1771683728868967000,7.687966796875,-0.014660334214568138,0.02504473738372326,0.0036650835536420345
1771683728879343900,7.69834375,0,0.029320668429136276,0.04031591862440109
1771683728889690400,7.7086904296875,-0.004275931045413017,-0.04703523963689804,0.00916270911693573
1771683728900037400,7.719037353515625,-0.007330167107284069,0.02626643143594265,0.012827792204916477
1771683728910414000,7.7294140625,-0.014660334214568138,-0.0030542362947016954,-0.004275931045413017
1771683728920752400,7.73975244140625,-0.014049487188458443,-0.046424392610788345,-0.023212196305394173
1771683728931137800,7.7501376953125,-0.007330167107284069,0.04825693368911743,0
1771683728941467400,7.76046728515625,-0.006719320081174374,0.0012216945178806782,0.010995250195264816
1771683728951830800,7.770830810546875,-0.010995250195264816,-0.028098974376916885,-0.010995250195264816
1771683728962182400,7.781182373046875,-0.008551862090826035,0.037261683493852615,0.0018325417768210173
1771683728972554500,7.791554443359375,-0.007941014133393764,0.022601349279284477,0.0006108472589403391
1771683728982897400,7.8018974609375,-0.01588202826678753,-0.051922015845775604,-0.014660334214568138
1771683728993278200,7.8122783203125,-0.005497625097632408,0.0659715011715889,0.004275931045413017
1771683729003612400,7.8226123046875,0.014660334214568138,-0.0036650835536420345,0.011606098152697086
1771683729013971200,7.83297119140625,0.0024433890357613564,-0.04459185153245926,-0.007330167107284069
1771683729024327400,7.843327392578125,-0.021379653364419937,-0.01710372418165207,-0.0647498071193695
1771683729034695000,7.85369482421875,-0.01038440316915512,0.03420744836330414,0.0018325417768210173
1771683729045042400,7.86404248046875,-0.010995250195264816,0.021379653364419937,0.010995250195264816
1771683729055418600,7.874418701171875,-0.004886778071522713,0.045202698558568954,-0.0006108472589403391
1771683729065757400,7.88475732421875,0.014049487188458443,-0.012827792204916477,-0.01038440316915512
1771683729076142300,7.895142333984375,0.0030542362947016954,0.025655584409832954,-0.007330167107284069
1771683729086472700,7.90547265625,0.0018325417768210173,0.042759306728839874,-0.029320668429136276
1771683729096835300,7.91583544921875,0.012216945178806782,0.01038440316915512,0
1771683729107187700,7.926187744140625,0.0030542362947016954,0.12766708433628082,0.04092676565051079
1771683729117559000,7.93655908203125,-0.004275931045413017,0.17775654792785645,0.07207997888326645
1771683729127902700,7.94690283203125,-0.0036650835536420345,-0.15026842057704926,-0.0653606578707695
1771683729138282800,7.95728271484375,-0.05008947476744652,-0.055587101727724075,-0.130721315741539
1771683729148629200,7.967629150390625,-0.013438640162348747,0.0653606578707695,0.033596597611904144
1771683729158975700,7.977975830078125,0,-0.006719320081174374,0.0012216945178806782
1771683729169353000,7.98835302734375,0.0012216945178806782,0.04459185153245926,-0.023823043331503868
1771683729179690200,7.998690185546875,0.0012216945178806782,-0.005497625097632408,0.016492875292897224
1771683729190076400,8.009076416015626,-0.031153209507465363,0.028098974376916885,-0.01832541823387146
1771683729200405200,8.0194052734375,-0.038483377546072006,0.028098974376916885,-0.01588202826678753
1771683729210769700,8.029769775390625,-0.05008947476744652,0.11483928561210632,0.06902574002742767
1771683729221120300,8.040120361328125,-0.043981000781059265,0.11483928561210632,0.030542362481355667
1771683729231477800,8.050477783203124,-0.030542362481355667,-0.0525328628718853,-0.0397050715982914
1771683729241835300,8.060835205078124,-0.046424392610788345,0.004886778071522713,-0.05619794875383377
1771683729252216800,8.071216796875,-0.021990500390529633,0.05741964280605316,0.01588202826678753
1771683729262550300,8.08155029296875,-0.01710372418165207,0.03237490355968475,0.012216945178806782
1771683729272910000,8.09191015625,-0.014049487188458443,0.07146912813186646,0.0030542362947016954
1771683729283265300,8.102265380859375,-0.015271181240677834,0.014049487188458443,-0.006719320081174374
1771683729293633800,8.1126337890625,-0.02076880633831024,0.061084724962711334,-0.010995250195264816
1771683729303980300,8.122980224609375,-0.004886778071522713,0.047646086663007736,-0.010995250195264816
1771683729314337800,8.133337890625,0.009773556143045425,0.051922015845775604,0.016492875292897224
1771683729324695300,8.1436953125,0.0024433890357613564,0.045202698558568954,-0.020157959312200546
1771683729335081000,8.1540810546875,0.0006108472589403391,0.028098974376916885,-0.022601349279284477
1771683729345410300,8.164410400390626,0.0012216945178806782,0.06902574002742767,-0.016492875292897224
1771683729355774200,8.174774169921875,0.0036650835536420345,0.05864133685827255,-0.0012216945178806782
1771683729366151200,8.185151123046875,0.004275931045413017,0.037261683493852615,-0.01038440316915512
1771683729376497700,8.19549755859375,-0.007941014133393764,0.0397050715982914,-0.0030542362947016954
1771683729386844400,8.205844482421876,-0.04031591862440109,-0.014660334214568138,-0.042759306728839874
1771683729397221400,8.216221435546874,0.0006108472589403391,0.07330167293548584,-0.014049487188458443
1771683729407555300,8.226555419921874,0.024433890357613564,0.051922015845775604,0.05131116881966591
1771683729417914600,8.23691455078125,0.04703523963689804,0.130721315741539,0.053143709897994995
1771683729428291600,8.24729150390625,-0.004886778071522713,-0.023212196305394173,-0.02626643143594265
1771683729438638000,8.25763818359375,-0.04214845970273018,-0.07330167293548584,-0.061084724962711334
1771683729449015300,8.268015380859374,-0.06169557198882103,0.061084724962711334,0.02076880633831024
1771683729459361800,8.27836181640625,-0.007330167107284069,0.0397050715982914,0.05375456064939499
1771683729469708300,8.288708251953125,-0.029320668429136276,0.008551862090826035,0.00916270911693573
1771683729480057900,8.299057861328125,-0.04825693368911743,-0.1050657257437706,-0.05741964280605316
1771683729490432000,8.309431884765624,-0.015271181240677834,0.042759306728839874,0.012216945178806782
1771683729500772900,8.31977294921875,-0.018936265259981155,0.02076880633831024,0.051922015845775604
1771683729511155700,8.33015576171875,-0.017714571207761765,0.062306419014930725,0.0525328628718853
1771683729521488100,8.340488037109376,-0.03237490355968475,-0.051922015845775604,-0.013438640162348747
1771683729531848700,8.3508486328125,-0.043981000781059265,-0.07146912813186646,-0.05375456064939499
1771683729542203100,8.361203125,-0.031153209507465363,0.04825693368911743,0.025655584409832954
1771683729552572400,8.371572509765626,-0.023823043331503868,0.08796200156211853,0.06963659077882767
1771683729562918100,8.381918212890625,-0.016492875292897224,0.02870982140302658,0.004275931045413017
1771683729573296000,8.392296142578125,-0.023212196305394173,-0.09529217332601547,-0.05070032179355621
1771683729583633200,8.402633056640624,-0.01954711228609085,0.016492875292897224,-0.026877280324697495
1771683729594019800,8.413019775390625,-0.012216945178806782,0.10262233763933182,0.061084724962711334
1771683729604348200,8.42334814453125,-0.025655584409832954,0.026877280324697495,0.01954711228609085
1771683729614712800,8.433712890625,-0.031153209507465363,-0.13438639044761658,-0.08918370306491852
1771683729625063200,8.444063232421875,-0.026877280324697495,-0.06352811306715012,-0.05864133685827255
1771683729635436500,8.4544365234375,-0.006108472589403391,0.07207997888326645,0.038483377546072006
1771683729645778200,8.464778076171875,0.007941014133393764,0.10323318839073181,0.0525328628718853
1771683729656160300,8.47516015625,-0.00916270911693573,-0.1044548824429512,-0.05986303091049194
1771683729666493200,8.4854931640625,-0.023212196305394173,-0.11300674080848694,-0.09468132257461548
1771683729676853200,8.495853271484375,-0.016492875292897224,0.030542362481355667,0.02870982140302658
1771683729687208200,8.506208251953124,-0.01038440316915512,0.14843589067459106,0.0787992998957634
1771683729697577000,8.516576904296874,-0.0030542362947016954,-0.0030542362947016954,0.014049487188458443
1771683729707923200,8.526923095703125,-0.02993151545524597,-0.1710372269153595,-0.1044548824429512
1771683729718300700,8.53730078125,-0.03542914241552353,-0.0525328628718853,-0.05497625470161438
1771683729728638200,8.54763818359375,-0.024433890357613564,0.1325538605451584,0.09468132257461548
1771683729739024100,8.558024169921875,-0.0018325417768210173,0.1050657257437706,0.05131116881966591
1771683729749371000,8.568370849609375,-0.013438640162348747,-0.12583453953266144,-0.0794101431965828
1771683729759710700,8.578710693359374,-0.030542362481355667,-0.06047387793660164,-0.08979454636573792
1771683729770094300,8.58909423828125,-0.017714571207761765,0.17958909273147583,0.07696675509214401
1771683729780425700,8.59942578125,0.013438640162348747,0.09284878522157669,0.056808795779943466
1771683729790787600,8.60978759765625,-0.010995250195264816,-0.1319430023431778,-0.10140064358711243
1771683729801140700,8.620140625,-0.033596597611904144,-0.033596597611904144,-0.05497625470161438
1771683729811511300,8.63051123046875,-0.009773556143045425,0.05070032179355621,0.04214845970273018
1771683729821855700,8.640855712890625,-0.011606098152697086,0.08368607610464096,0.03420744836330414
1771683729832234800,8.65123486328125,-0.023212196305394173,-0.03420744836330414,-0.03176405653357506
1771683729842570800,8.66157080078125,-0.04825693368911743,-0.026877280324697495,-0.047646086663007736
1771683729852958500,8.67195849609375,-0.03176405653357506,0.08246438205242157,0.014049487188458443
1771683729863285800,8.68228564453125,-0.012216945178806782,0.1569877415895462,0.08857285231351852
1771683729873651700,8.692651611328126,-0.04581354558467865,-0.053143709897994995,-0.04153761267662048
1771683729884000800,8.703000732421875,-0.0647498071193695,-0.11361759155988693,-0.09651386737823486
1771683729894375200,8.713375244140625,-0.022601349279284477,0.08368607610464096,0.0390942245721817
1771683729904715800,8.7237158203125,0.0030542362947016954,0.1172826737165451,0.06719319522380829
1771683729915099000,8.734098876953125,-0.014660334214568138,-0.07391251623630524,-0.04031591862440109
1771683729925431000,8.74443115234375,-0.030542362481355667,-0.12522368133068085,-0.08979454636573792
1771683729935792000,8.754792236328125,-0.010995250195264816,0.06169557198882103,0.014049487188458443
1771683729946169000,8.765169189453125,0.0024433890357613564,0.11483928561210632,0.06963659077882767
1771683729956515600,8.775515625,-0.018936265259981155,-0.07085828483104706,-0.038483377546072006
1771683729966861000,8.785861083984376,-0.043981000781059265,-0.08551861345767975,-0.08368607610464096
1771683729977218600,8.796218505859375,-0.023212196305394173,0.03237490355968475,0.022601349279284477
1771683729987576000,8.806576171875,-0.01038440316915512,0.09773556143045425,0.07330167293548584
1771683729997963000,8.816962890625,-0.008551862090826035,-0.051922015845775604,-0.024433890357613564
1771683730008309500,8.8273095703125,-0.01832541823387146,-0.05008947476744652,-0.0525328628718853
1771683730018656000,8.837656005859374,0.01588202826678753,0.06413896381855011,0.03237490355968475
1771683730029033200,8.848033203125,0.005497625097632408,0.1453816443681717,0.09468132257461548
1771683730039379700,8.858379638671876,-0.028098974376916885,-0.0525328628718853,-0.03237490355968475
1771683730049726200,8.868726318359375,-0.0659715011715889,-0.03787253051996231,-0.06902574002742767
1771683730060078600,8.87907861328125,-0.045202698558568954,0.06352811306715012,0.03420744836330414
1771683730070450000,8.889449951171875,-0.01832541823387146,0.09468132257461548,0.08612946420907974
1771683730080793600,8.899793701171875,-0.02626643143594265,-0.09284878522157669,-0.026877280324697495
1771683730091173600,8.910173583984376,-0.03176405653357506,-0.020157959312200546,-0.043981000781059265
1771683730101508600,8.920508544921875,-0.013438640162348747,-0.047646086663007736,0.04459185153245926
1771683730111866600,8.93086669921875,-0.0012216945178806782,-0.006108472589403391,0.05375456064939499
1771683730122223600,8.9412236328125,-0.0006108472589403391,-0.09712471067905426,-0.0390942245721817
1771683730132590300,8.95159033203125,0.0018325417768210173,-0.022601349279284477,0.0030542362947016954
1771683730142938600,8.961938720703126,0,-0.054365407675504684,0.014049487188458443
1771683730153314000,8.97231396484375,-0.005497625097632408,-0.036039989441633224,0
1771683730163653600,8.982653564453125,-0.009773556143045425,-0.023212196305394173,-0.05008947476744652
1771683730174037800,8.993037841796875,-0.01710372418165207,-0.038483377546072006,-0.03237490355968475
1771683730184368600,9.00336865234375,-0.01588202826678753,-0.023823043331503868,-0.004886778071522713
1771683730194730800,9.013730712890625,-0.01954711228609085,-0.009773556143045425,-0.02076880633831024
1771683730205083600,9.024083740234374,-0.06047387793660164,0.020157959312200546,-0.029320668429136276
1771683730215454500,9.034454345703125,-0.07757759839296341,-0.01954711228609085,0.008551862090826035
1771683730225798700,9.044798583984376,-0.03237490355968475,0.010995250195264816,-0.0024433890357613564
1771683730236178200,9.05517822265625,-0.04337015375494957,0.038483377546072006,-0.023212196305394173
1771683730246513700,9.065513671875,-0.05864133685827255,0.022601349279284477,0.006108472589403391
1771683730256901600,9.075901611328124,-0.03298575058579445,0.04703523963689804,0.010995250195264816
1771683730267228700,9.086228759765625,-0.030542362481355667,-0.03237490355968475,-0.04337015375494957
1771683730277595000,9.096594970703125,-0.024433890357613564,-0.006108472589403391,-0.04337015375494957
1771683730287943700,9.106943603515624,-0.021990500390529633,0.06291726976633072,0.013438640162348747
1771683730298318600,9.117318603515624,-0.021990500390529633,0.0030542362947016954,-0.01832541823387146
1771683730308665000,9.1276650390625,-0.01588202826678753,-0.014660334214568138,-0.04337015375494957
1771683730319042000,9.1380419921875,-0.01710372418165207,0.020157959312200546,-0.023212196305394173
1771683730329388800,9.148388916015625,-0.015271181240677834,-0.0030542362947016954,-0.010995250195264816
1771683730339731500,9.1587314453125,-0.030542362481355667,-0.05741964280605316,-0.04825693368911743
1771683730350112300,9.1691123046875,-0.043981000781059265,-0.01832541823387146,-0.038483377546072006
1771683730360446500,9.179446533203125,-0.033596597611904144,0.1319430023431778,0.02993151545524597
1771683730370805500,9.189805419921875,0.004275931045413017,0.05008947476744652,0.007941014133393764
1771683730381161500,9.200161376953124,-0.004275931045413017,-0.007330167107284069,-0.04886778071522713
1771683730391529200,9.210529296875,-0.015271181240677834,0.031153209507465363,-0.021379653364419937
1771683730401876500,9.22087646484375,0.007941014133393764,0.10201149433851242,0.014049487188458443
1771683730412252700,9.231252685546876,-0.018936265259981155,0.02748812735080719,-0.007941014133393764
1771683730422591500,9.241591552734375,-0.023823043331503868,-0.0018325417768210173,-0.04886778071522713
1771683730432976400,9.251976318359375,-0.023823043331503868,0.062306419014930725,-0.018936265259981155
1771683730443306500,9.262306396484375,-0.022601349279284477,-0.0030542362947016954,-0.008551862090826035
1771683730453669600,9.272669677734376,-0.02504473738372326,-0.009773556143045425,-0.05986303091049194
1771683730464021500,9.283021484375,-0.023823043331503868,0.02626643143594265,-0.02626643143594265
1771683730474393000,9.29339306640625,-0.024433890357613564,0.01710372418165207,-0.007330167107284069
1771683730484736500,9.303736572265626,-0.020157959312200546,-0.006719320081174374,-0.02626643143594265
1771683730495116800,9.31411669921875,-0.021379653364419937,0.007941014133393764,-0.018936265259981155
1771683730505451500,9.324451416015625,-0.01710372418165207,0.016492875292897224,0.0018325417768210173
1771683730515810000,9.33481005859375,-0.01832541823387146,-0.00916270911693573,0.0018325417768210173
1771683730526187000,9.34518701171875,-0.02993151545524597,0.024433890357613564,-0.02993151545524597
1771683730536533500,9.355533447265625,-0.023823043331503868,0.029320668429136276,-0.00916270911693573
1771683730546881500,9.365881591796875,-0.026877280324697495,0.026877280324697495,-0.010995250195264816
1771683730557257200,9.37625732421875,-0.028098974376916885,-0.010995250195264816,-0.03665083646774292
1771683730567603700,9.386603759765626,-0.02626643143594265,0.03420744836330414,-0.030542362481355667
1771683730577981000,9.39698095703125,-0.021379653364419937,0.05497625470161438,0.012827792204916477
1771683730588327400,9.407327392578125,-0.018936265259981155,-0.0012216945178806782,-0.024433890357613564
1771683730598674000,9.417673828125,-0.014049487188458443,0.02748812735080719,-0.031153209507465363
1771683730609051100,9.428051025390625,-0.0030542362947016954,0.08674030750989914,0.0030542362947016954
1771683730619397600,9.438397705078126,-0.009773556143045425,-0.0006108472589403391,-0.006108472589403391
1771683730629744000,9.448744140625,-0.018936265259981155,0.03542914241552353,-0.04337015375494957
1771683730640099000,9.45909912109375,-0.007330167107284069,0.021990500390529633,-0.021379653364419937
1771683730650467800,9.4694677734375,-0.01038440316915512,0.009773556143045425,-0.014660334214568138
1771683730660814000,9.47981396484375,-0.012827792204916477,-0.03176405653357506,-0.04459185153245926
1771683730671191600,9.490191650390624,-0.014660334214568138,-0.0024433890357613564,-0.0397050715982914
1771683730681529000,9.500529052734375,-0.007330167107284069,0,-0.009773556143045425
1771683730691915300,9.510915283203126,-0.021990500390529633,-0.04031591862440109,-0.02870982140302658
1771683730702244000,9.521244140625,-0.012216945178806782,-0.02748812735080719,-0.0390942245721817
1771683730712608300,9.531608154296874,-0.01038440316915512,-0.015271181240677834,-0.005497625097632408
1771683730722959000,9.541958984375,-0.007941014133393764,-0.03665083646774292,-0.005497625097632408
1771683730733316900,9.55231689453125,-0.014049487188458443,-0.01038440316915512,-0.00916270911693573
1771683730743674400,9.56267431640625,-0.009773556143045425,-0.030542362481355667,0.004275931045413017
1771683730754055700,9.5730556640625,-0.007330167107284069,-0.0036650835536420345,0.012216945178806782
1771683730764389400,9.583389404296875,-0.011606098152697086,-0.03176405653357506,-0.0012216945178806782
1771683730774748700,9.593748779296876,-0.011606098152697086,-0.012827792204916477,-0.0018325417768210173
1771683730785104400,9.6041044921875,-0.007941014133393764,-0.025655584409832954,0.014049487188458443
1771683730795472400,9.614472412109375,-0.01038440316915512,-0.029320668429136276,0.006719320081174374
1771683730805819400,9.6248193359375,-0.006719320081174374,-0.034818295389413834,0
1771683730816196000,9.635196044921875,-0.006719320081174374,-0.020157959312200546,0.03237490355968475
1771683730826534400,9.645534423828124,-0.0036650835536420345,-0.0653606578707695,0.013438640162348747
1771683730836919600,9.65591943359375,-0.007330167107284069,-0.021379653364419937,0.0030542362947016954
1771683730847249400,9.66624951171875,-0.0024433890357613564,-0.046424392610788345,0.04092676565051079
1771683730857612800,9.67661279296875,-0.0018325417768210173,-0.03665083646774292,0.013438640162348747
1771683730867964400,9.68696435546875,-0.006108472589403391,-0.02870982140302658,0.0024433890357613564
1771683730878336500,9.69733642578125,-0.0036650835536420345,-0.02748812735080719,0.034818295389413834
1771683730888683000,9.70768310546875,-0.004886778071522713,-0.06902574002742767,-0.005497625097632408
1771683730899060000,9.71806005859375,-0.0030542362947016954,-0.0018325417768210173,-0.01038440316915512
1771683730909406700,9.72840673828125,-0.0018325417768210173,-0.03176405653357506,0.026877280324697495
1771683730919752000,9.738751953125,-0.004886778071522713,-0.08918370306491852,-0.0024433890357613564
1771683730930130200,9.749130126953125,-0.016492875292897224,-0.043981000781059265,-0.038483377546072006
1771683730940467000,9.759467041015625,-0.006719320081174374,0.010995250195264816,0.03542914241552353
1771683730950854000,9.76985400390625,-0.02504473738372326,-0.09590301662683487,-0.014049487188458443
1771683730961182000,9.780181884765625,-0.04947862774133682,0.016492875292897224,-0.05375456064939499
1771683730971547100,9.790547119140625,-0.04459185153245926,-0.06780404597520828,0.0024433890357613564
1771683730981897000,9.80089697265625,-0.02504473738372326,0.03176405653357506,0.03298575058579445
1771683730992270600,9.8112705078125,-0.004275931045413017,-0.009773556143045425,-0.029320668429136276
1771683731002612000,9.821612060546874,-0.023212196305394173,0.03237490355968475,0.037261683493852615
1771683731012994300,9.831994384765625,-0.004275931045413017,0.007330167107284069,0.05131116881966591
1771683731023327000,9.842326904296876,-0.017714571207761765,-0.033596597611904144,-0.02626643143594265
1771683731033687600,9.8526875,0.0018325417768210173,-0.013438640162348747,-0.0018325417768210173
1771683731044042000,9.8630419921875,0.005497625097632408,0.012827792204916477,0.02626643143594265
1771683731054411000,9.873410888671875,-0.0018325417768210173,0.02504473738372326,-0.007330167107284069
1771683731064757000,9.883757080078125,0.007330167107284069,0.05375456064939499,-0.005497625097632408
1771683731075134700,9.894134765625,-0.006719320081174374,0.021379653364419937,0.02626643143594265
1771683731085472000,9.904471923828124,-0.006719320081174374,0.04947862774133682,-0.004275931045413017
1771683731095858400,9.9148583984375,-0.004886778071522713,0.0525328628718853,0.014049487188458443
1771683731106205000,9.925204833984376,0.006719320081174374,0.023212196305394173,0.03298575058579445
1771683731116551400,9.935551513671875,0.030542362481355667,0.08551861345767975,-0.021990500390529633
1771683731126902000,9.945902099609375,-0.01038440316915512,0.07024743407964706,0.006719320081174374
1771683731137275100,9.956275146484375,-0.01954711228609085,0.054365407675504684,0.009773556143045425
1771683731147617300,9.9666171875,-0.03665083646774292,0.08185353130102158,-0.02076880633831024
1771683731157998800,9.976998779296874,-0.014049487188458443,0.04581354558467865,-0.007330167107284069
1771683731168345300,9.987345458984375,-0.02870982140302658,0.06352811306715012,0.006719320081174374
1771683731178691800,9.99769189453125,-0.024433890357613564,0.05803048983216286,-0.04886778071522713
1771683731189069000,10.008069091796875,-0.018936265259981155,0.012216945178806782,-0.0024433890357613564
1771683731199415600,10.01841552734375,-0.03176405653357506,0.04886778071522713,0.017714571207761765
1771683731209792800,10.028792724609374,-0.02748812735080719,0.045202698558568954,-0.04825693368911743
1771683731220119800,10.039119873046875,-0.012216945178806782,-0.00916270911693573,0.03542914241552353
1771683731230477300,10.049477294921875,-0.03176405653357506,0.07452336698770523,-0.015271181240677834
1771683731240834800,10.059834716796875,-0.030542362481355667,0.010995250195264816,-0.0390942245721817
1771683731251209500,10.07020947265625,-0.025655584409832954,0.014660334214568138,0.034818295389413834
1771683731261549800,10.0805498046875,-0.061084724962711334,0.05070032179355621,0
1771683731271933200,10.09093310546875,-0.025655584409832954,0.0036650835536420345,-0.051922015845775604
1771683731282264800,10.101264892578126,-0.023823043331503868,-0.051922015845775604,0.033596597611904144
1771683731292626200,10.111626220703124,-0.026877280324697495,0.045202698558568954,-0.007330167107284069
1771683731302979800,10.121979736328125,-0.02076880633831024,0.013438640162348747,0.004886778071522713
1771683731313350000,10.132349853515626,-0.011606098152697086,-0.033596597611904144,0.02748812735080719
1771683731323694800,10.14269482421875,-0.021379653364419937,0.046424392610788345,0.017714571207761765
1771683731334073600,10.153073486328125,-0.0036650835536420345,0.006719320081174374,0.014049487188458443
1771683731344409900,10.163409912109374,-0.020157959312200546,-0.014049487188458443,0.01954711228609085
1771683731354797000,10.173797119140625,-0.026877280324697495,0.03176405653357506,-0.00916270911693573
1771683731365124900,10.184124755859376,-0.0018325417768210173,-0.012216945178806782,0.010995250195264816
1771683731375490300,10.194490234375,-0.004275931045413017,0.004275931045413017,0.012827792204916477
1771683731385839900,10.20483984375,-0.0024433890357613564,0.03298575058579445,0.02626643143594265
1771683731396214000,10.215214111328125,0,-0.04703523963689804,0.04886778071522713
1771683731406555000,10.225554931640625,-0.012827792204916477,0.01832541823387146,0.026877280324697495
1771683731416937500,10.2359375,-0.009773556143045425,-0.008551862090826035,0.05070032179355621
1771683731427270000,10.246269775390624,-0.012216945178806782,-0.04031591862440109,0.0653606578707695
1771683731437630700,10.256630615234375,-0.015271181240677834,0.007330167107284069,0.033596597611904144
1771683731447985000,10.26698486328125,-0.023823043331503868,-0.07207997888326645,0.07085828483104706
1771683731458354400,10.2773544921875,-0.04031591862440109,-0.09407047927379608,0.05070032179355621
1771683731468701000,10.287700927734376,-0.014049487188458443,0.023823043331503868,0.02626643143594265
1771683731479057400,10.298057373046875,-0.036039989441633224,-0.05986303091049194,0.07024743407964706
1771683731489424600,10.308424560546875,-0.009773556143045425,-0.03420744836330414,-0.0030542362947016954
1771683731499772400,10.3187724609375,-0.007941014133393764,-0.012827792204916477,0.01710372418165207
1771683731510148000,10.329148193359375,0.0012216945178806782,-0.051922015845775604,0.05864133685827255
1771683731520487400,10.3394873046875,-0.004275931045413017,0.01954711228609085,0.01954711228609085
1771683731530871800,10.349871826171874,-0.0036650835536420345,-0.03176405653357506,0.02626643143594265
1771683731541202400,10.360202392578126,-0.017714571207761765,0.06841489672660828,0.02748812735080719
1771683731551565000,10.37056494140625,-0.018936265259981155,-0.046424392610788345,-0.012827792204916477
1771683731561917700,10.380917724609375,-0.007330167107284069,-0.055587101727724075,0.04337015375494957
1771683731572288500,10.39128857421875,0,0.05131116881966591,0.004275931045413017
1771683731582632700,10.4016328125,0.026877280324697495,0.11422843486070633,0.062306419014930725
1771683731593012200,10.41201220703125,0.03542914241552353,-0.036039989441633224,0.024433890357613564
1771683731603347700,10.42234765625,0.051922015845775604,0.04947862774133682,-0.01954711228609085
1771683731613705500,10.43270556640625,0.03787253051996231,0.0018325417768210173,0.04337015375494957
1771683731624062700,10.443062744140626,0.06658235192298889,0.06780404597520828,0.045202698558568954
1771683731634429000,10.453428955078126,0.055587101727724075,0.0910162404179573,0.02870982140302658
1771683731644777700,10.46377783203125,0.01038440316915512,-0.005497625097632408,0.05131116881966591
1771683731655152600,10.474152587890625,0.007330167107284069,0.05803048983216286,0.0036650835536420345
1771683731665492700,10.48449267578125,0.006719320081174374,0.03420744836330414,0.023212196305394173
1771683731675876400,10.49487646484375,0.03176405653357506,0.04459185153245926,0.04092676565051079
1771683731686222800,10.505222900390624,0.05375456064939499,0.07757759839296341,-0.004275931045413017
1771683731696569300,10.5155693359375,0.03237490355968475,0.02076880633831024,0.03420744836330414
1771683731706922800,10.5259228515625,-0.0018325417768210173,0.0910162404179573,0.022601349279284477
1771683731717293000,10.53629296875,-0.004886778071522713,0.02626643143594265,0.02993151545524597
1771683731727637800,10.5466376953125,-0.008551862090826035,0.05986303091049194,0.053143709897994995
1771683731738016800,10.557016845703124,-0.028098974376916885,0.04337015375494957,0.021379653364419937
1771683731748363300,10.56736328125,-0.014049487188458443,0.05008947476744652,0.05497625470161438
1771683731758740500,10.577740478515626,0.028098974376916885,0.06719319522380829,0.011606098152697086
1771683731769087000,10.5880869140625,-0.007941014133393764,0.03542914241552353,0.030542362481355667
1771683731779425300,10.59842529296875,-0.017714571207761765,0.0916270911693573,0.04092676565051079
1771683731789810700,10.608810791015625,-0.03665083646774292,0.03420744836330414,-0.031153209507465363
1771683731800140300,10.619140380859376,-0.007330167107284069,0.04031591862440109,0.047646086663007736
1771683731810503700,10.629503662109375,0.020157959312200546,0.0781884491443634,0
1771683731820855300,10.639855224609375,-0.04031591862440109,0.0012216945178806782,0.0024433890357613564
1771683731831227400,10.650227294921875,-0.00916270911693573,0.09468132257461548,0.01710372418165207
1771683731841570300,10.6605703125,0.007330167107284069,-0.02993151545524597,-0.05803048983216286
1771683731851951000,10.670951171875,-0.0036650835536420345,0.08124268800020218,0.034818295389413834
1771683731862285300,10.681285400390625,-0.05375456064939499,-0.017714571207761765,-0.047646086663007736
1771683731872644000,10.69164404296875,-0.02504473738372326,0.022601349279284477,-0.014049487188458443
1771683731883000300,10.702000244140624,-0.013438640162348747,0.05070032179355621,0.007941014133393764
1771683731893367800,10.712367919921874,-0.0012216945178806782,-0.07391251623630524,-0.056808795779943466
1771683731903715300,10.72271533203125,-0.010995250195264816,0.10995250940322876,0.045202698558568954
1771683731914091500,10.733091552734376,0.01954711228609085,-0.0018325417768210173,-0.03542914241552353
1771683731924430600,10.7434306640625,0.013438640162348747,0.02993151545524597,0.04214845970273018
1771683731934815000,10.75381494140625,-0.028098974376916885,-0.0030542362947016954,-0.006108472589403391
1771683731945145300,10.764145263671875,-0.029320668429136276,-0.05619794875383377,-0.04459185153245926
1771683731955508200,10.77450830078125,0.01954711228609085,0.11545012891292572,0.09345962852239609
1771683731965860400,10.7848603515625,0.042759306728839874,0.10262233763933182,0.04703523963689804
1771683731976232000,10.79523193359375,0,-0.21685077250003815,-0.06902574002742767
1771683731986575600,10.80557568359375,-0.02870982140302658,0.0397050715982914,-0.056808795779943466
1771683731996955400,10.815955322265625,-0.05925218388438225,-0.0024433890357613564,0.021379653364419937
1771683732007290600,10.82629052734375,0.02504473738372326,-0.022601349279284477,-0.004886778071522713
1771683732017648600,10.836648681640625,0.012216945178806782,0.007941014133393764,-0.01832541823387146
1771683732028005600,10.847005615234375,0.037261683493852615,-0.011606098152697086,0
1771683732038372400,10.857372314453125,0.09407047927379608,-0.01954711228609085,-0.010995250195264816
1771683732048749300,10.867749267578125,0.01710372418165207,0.025655584409832954,0.021379653364419937
1771683732059095800,10.878095703125,-0.028098974376916885,-0.02748812735080719,-0.038483377546072006
1771683732069442600,10.888442626953125,-0.013438640162348747,-0.006108472589403391,0.014049487188458443
1771683732079793200,10.898793212890626,0.023823043331503868,-0.006108472589403391,-0.01954711228609085
1771683732090166000,10.909166015625,0.008551862090826035,-0.054365407675504684,-0.062306419014930725
1771683732100508200,10.919508056640625,0.0030542362947016954,0.03237490355968475,-0.012216945178806782
1771683732110889700,10.9298896484375,0.01710372418165207,-0.07574506103992462,-0.0916270911693573
1771683732121223200,10.94022314453125,0.01588202826678753,0.012216945178806782,-0.02748812735080719
1771683732131583000,10.9505830078125,0.00916270911693573,-0.05741964280605316,-0.07452336698770523
1771683732141938200,10.960938232421874,-0.020157959312200546,0.01832541823387146,-0.026877280324697495
1771683732152306400,10.971306396484374,0.0024433890357613564,-0.025655584409832954,-0.054365407675504684
1771683732162653200,10.981653076171876,0.0012216945178806782,-0.04092676565051079,-0.06352811306715012
1771683732173030100,10.992030029296876,-0.006108472589403391,0.0018325417768210173,-0.038483377546072006
1771683732183368200,11.0023681640625,0,-0.055587101727724075,-0.0787992998957634
1771683732193753900,11.01275390625,-0.047646086663007736,0.021990500390529633,-0.028098974376916885
1771683732204083200,11.023083251953125,-0.08124268800020218,-0.0024433890357613564,-0.0647498071193695
1771683732214446800,11.03344677734375,-0.04581354558467865,-0.00916270911693573,-0.04214845970273018
1771683732224798200,11.043798095703124,-0.045202698558568954,0.029320668429136276,-0.038483377546072006
1771683732235170600,11.054170654296875,-0.04703523963689804,-0.02993151545524597,-0.05619794875383377
1771683732245513200,11.06451318359375,-0.034818295389413834,0.07269082218408585,-0.01588202826678753
1771683732255894300,11.074894287109375,-0.03542914241552353,-0.03787253051996231,-0.07024743407964706
1771683732266240800,11.08524072265625,-0.020157959312200546,0.0525328628718853,-0.020157959312200546
1771683732276587300,11.095587158203125,-0.03176405653357506,0.029320668429136276,-0.05803048983216286
1771683732286943200,11.105943115234375,-0.02993151545524597,0.02748812735080719,-0.021990500390529633
1771683732297311000,11.11631103515625,-0.03176405653357506,0.053143709897994995,-0.0390942245721817
1771683732307658200,11.126658203125,-0.02504473738372326,0.04153761267662048,-0.03176405653357506
1771683732318034700,11.13703466796875,-0.04337015375494957,0.042759306728839874,-0.047646086663007736
1771683732328381200,11.147381103515626,-0.05986303091049194,0.0525328628718853,-0.05619794875383377
1771683732338758400,11.15775830078125,-0.043981000781059265,0.05741964280605316,-0.033596597611904144
1771683732349105000,11.16810498046875,-0.042759306728839874,0.07024743407964706,-0.0012216945178806782
1771683732359445800,11.17844580078125,-0.03542914241552353,0.04886778071522713,-0.024433890357613564
1771683732369828600,11.18882861328125,-0.0390942245721817,0.05986303091049194,-0.006108472589403391
1771683732380160800,11.199160888671875,-0.038483377546072006,0.053143709897994995,-0.016492875292897224
1771683732390521600,11.209521484375,-0.04581354558467865,0.01832541823387146,-0.010995250195264816
1771683732400875800,11.219875732421874,-0.04825693368911743,0.10689827054738998,0.03176405653357506
1771683732411245300,11.230245361328125,-0.0647498071193695,-0.04703523963689804,-0.02993151545524597
1771683732421591000,11.240591064453126,-0.08307522535324097,0.05375456064939499,0.05375456064939499
1771683732431969000,11.250968994140624,-0.07574506103992462,-0.014049487188458443,-0.01588202826678753
1771683732442306000,11.26130615234375,-0.04031591862440109,0.0030542362947016954,0.018936265259981155
1771683732452692500,11.2716923828125,-0.0397050715982914,0.033596597611904144,0.021990500390529633
1771683732463021000,11.28202099609375,-0.03420744836330414,-0.007330167107284069,0.0030542362947016954
1771683732473385700,11.2923857421875,-0.028098974376916885,0.023212196305394173,0.010995250195264816
1771683732483736000,11.302736083984374,-0.06291726976633072,0.023823043331503868,0.028098974376916885
1771683732494109400,11.313109375,-0.06658235192298889,0.0659715011715889,0.04092676565051079
1771683732504451000,11.323451171875,-0.025655584409832954,-0.06352811306715012,0.00916270911693573
1771683732514833000,11.3338330078125,-0.0397050715982914,0.10201149433851242,0.08002099394798279
1771683732525166000,11.344166015625,-0.05008947476744652,-0.05497625470161438,0.006108472589403391
1771683732535526100,11.354526123046876,-0.02504473738372326,0.08796200156211853,0.09651386737823486
1771683732545881000,11.364881103515625,0.02626643143594265,-0.10873081535100937,-0.02626643143594265
1771683732556249900,11.375249755859375,-0.022601349279284477,0.05864133685827255,0.07696675509214401
1771683732566596000,11.38559619140625,-0.025655584409832954,-0.016492875292897224,0.016492875292897224
1771683732576973300,11.395973388671875,-0.009773556143045425,-0.02748812735080719,0.009773556143045425
1771683732587311000,11.40631103515625,-0.021379653364419937,0.023823043331503868,0.04825693368911743
1771683732597697000,11.416697021484374,-0.036039989441633224,0.01588202826678753,0.03542914241552353
1771683732608026000,11.427026123046875,0.013438640162348747,0.0030542362947016954,0.030542362481355667
1771683732618390300,11.437390380859375,-0.03176405653357506,0.012827792204916477,0.04947862774133682
1771683732628767200,11.447767333984375,-0.05986303091049194,0.07024743407964706,0.03665083646774292
1771683732639113700,11.45811376953125,-0.006108472589403391,0.016492875292897224,-0.017714571207761765
1771683732649460500,11.46846044921875,0.033596597611904144,-0.010995250195264816,0.01038440316915512
1771683732659813600,11.478813720703124,-0.04214845970273018,0.0030542362947016954,-0.047646086663007736
1771683732670184000,11.489183837890625,-0.038483377546072006,0.11606097966432571,-0.029320668429136276
1771683732680528600,11.499528564453126,-0.01038440316915512,-0.0525328628718853,-0.038483377546072006
1771683732690907600,11.50990771484375,-0.053143709897994995,0.130721315741539,0.021990500390529633
1771683732701243600,11.52024365234375,-0.036039989441633224,0.0018325417768210173,-0.06047387793660164
1771683732711601200,11.53060107421875,-0.005497625097632408,0.1325538605451584,0.021379653364419937
1771683732721958700,11.540958740234375,-0.02626643143594265,-0.09956810623407364,-0.028098974376916885
1771683732732316200,11.551316162109375,-0.013438640162348747,0.1704263836145401,0.05070032179355621
1771683732742673700,11.561673583984375,0.0024433890357613564,-0.07146912813186646,-0.09529217332601547
1771683732753031200,11.57203125,-0.05070032179355621,0.04459185153245926,0.0006108472589403391
1771683732763388700,11.582388671875,-0.04825693368911743,0.006108472589403391,-0.051922015845775604
1771683732773746200,11.59274609375,-0.08979454636573792,0.0910162404179573,-0.024433890357613564
1771683732784103700,11.603103759765625,-0.04459185153245926,-0.018936265259981155,-0.05741964280605316
1771683732794461200,11.613461181640625,-0.030542362481355667,0.056808795779943466,-0.01710372418165207
1771683732804818700,11.623818603515625,-0.00916270911693573,-0.034818295389413834,-0.04337015375494957
1771683732815176200,11.63417626953125,0.10201149433851242,-0.026877280324697495,-0.021379653364419937
1771683732825533700,11.64453369140625,0.03665083646774292,0.007330167107284069,0.01588202826678753
1771683732835891200,11.65489111328125,-0.08796200156211853,-0.018936265259981155,-0.02870982140302658
1771683732846248700,11.665248779296874,-0.04031591862440109,0.03542914241552353,-0.04153761267662048
1771683732856606200,11.675606201171876,-0.07330167293548584,0.01038440316915512,-0.007941014133393764
1771683732866964000,11.6859638671875,-0.028098974376916885,-0.0036650835536420345,-0.05070032179355621
1771683732877321500,11.696321533203125,-0.07024743407964706,0.05741964280605316,0.0018325417768210173
1771683732887679000,11.706678955078125,0.009773556143045425,0.043981000781059265,-0.004886778071522713
1771683732898036500,11.717036376953125,0.012827792204916477,0.02748812735080719,0.03787253051996231
1771683732908393700,11.727393798828125,-0.021379653364419937,-0.053143709897994995,-0.03420744836330414
1771683732918751200,11.737751220703124,-0.008551862090826035,0.012827792204916477,-0.02076880633831024
1771683732929109000,11.74810888671875,0,-0.03176405653357506,-0.03237490355968475
1771683732939466500,11.758466552734374,-0.02626643143594265,0.01954711228609085,-0.01832541823387146
1771683732949824000,11.768823974609376,0.011606098152697086,0.014660334214568138,-0.018936265259981155
1771683732960181500,11.779181396484375,-0.0012216945178806782,0.03420744836330414,-0.0036650835536420345
1771683732970539000,11.7895390625,-0.028098974376916885,0.01832541823387146,0.004275931045413017
1771683732980896500,11.799896484375,-0.004886778071522713,0.015271181240677834,-0.016492875292897224
1771683732991254000,11.81025390625,0.05619794875383377,0.03298575058579445,0.01038440316915512
1771683733001611500,11.820611572265625,-0.012216945178806782,0.023212196305394173,0.028098974376916885
1771683733011969000,11.830968994140624,-0.04459185153245926,0.01588202826678753,-0.004275931045413017
1771683733022326500,11.841326416015624,-0.034818295389413834,-0.0012216945178806782,-0.0036650835536420345
1771683733032684000,11.85168408203125,-0.017714571207761765,0.06169557198882103,0.012827792204916477
1771683733043041500,11.86204150390625,-0.08063183724880219,0.00916270911693573,-0.0012216945178806782
1771683733053399000,11.87239892578125,-0.07330167293548584,0.07024743407964706,-0.01588202826678753
1771683733063756500,11.882756591796875,0.0024433890357613564,-0.021990500390529633,-0.005497625097632408
1771683733074114000,11.893114013671875,-0.018936265259981155,0.0024433890357613564,0.0006108472589403391
1771683733084471600,11.903471435546875,-0.010995250195264816,0.01954711228609085,0.014660334214568138
1771683733094829000,11.9138291015625,0.023823043331503868,0.009773556143045425,-0.0024433890357613564
1771683733105186600,11.9241865234375,-0.06841489672660828,0.01588202826678753,0.007941014133393764
1771683733115544000,11.9345439453125,-0.04092676565051079,0.026877280324697495,-0.029320668429136276
1771683733125901600,11.944901611328126,-0.02076880633831024,0.03237490355968475,-0.013438640162348747
1771683733136259000,11.955259033203125,-0.028098974376916885,-0.010995250195264816,0.0030542362947016954
1771683733146616600,11.965616455078125,-0.021379653364419937,0.04153761267662048,-0.018936265259981155
1771683733156974000,11.97597412109375,-0.031153209507465363,0.008551862090826035,-0.022601349279284477
1771683733167331600,11.98633154296875,-0.023823043331503868,-0.01832541823387146,-0.017714571207761765
1771683733177689000,11.996689208984375,-0.06047387793660164,0.024433890357613564,-0.008551862090826035
1771683733188046600,12.007046630859374,-0.038483377546072006,0.022601349279284477,-0.03665083646774292
1771683733198404000,12.017404052734374,-0.026877280324697495,-0.01710372418165207,-0.036039989441633224
1771683733208761600,12.02776171875,-0.0006108472589403391,-0.06902574002742767,-0.06169557198882103
1771683733219119000,12.038119140625,-0.023212196305394173,0.0036650835536420345,-0.08368607610464096
1771683733229476600,12.0484765625,-0.05131116881966591,-0.04825693368911743,-0.1044548824429512
1771683733239834000,12.058834228515625,-0.04581354558467865,0.028098974376916885,-0.07085828483104706
1771683733250191600,12.069191650390625,-0.025655584409832954,-0.0036650835536420345,-0.07391251623630524
1771683733260549000,12.079549072265625,-0.030542362481355667,-0.014049487188458443,-0.07696675509214401
1771683733270906600,12.08990673828125,-0.03542914241552353,0.006108472589403391,-0.04825693368911743
1771683733281264000,12.10026416015625,-0.006719320081174374,0.05375456064939499,-0.054365407675504684
1771683733291621600,12.11062158203125,0,-0.014049487188458443,-0.05803048983216286
1771683733301979100,12.120979248046876,0.01038440316915512,0.10811996459960938,-0.007941014133393764
1771683733312336600,12.131336669921875,-0.054365407675504684,-0.03665083646774292,-0.10262233763933182
1771683733322694100,12.141694091796875,-0.02626643143594265,0.02626643143594265,-0.08918370306491852
1771683733333051600,12.1520517578125,-0.016492875292897224,0.022601349279284477,-0.06902574002742767
1771683733343409200,12.1624091796875,-0.025655584409832954,0.05925218388438225,-0.07574506103992462
1771683733353766700,12.1727666015625,-0.0018325417768210173,0.09712471067905426,-0.04092676565051079
1771683733364124200,12.183124267578124,0.05375456064939499,0.06902574002742767,-0.05864133685827255
1771683733374481700,12.193481689453124,0.016492875292897224,0.1588202863931656,-0.00916270911693573
1771683733384839200,12.203839111328126,-0.0397050715982914,0.04153761267662048,-0.05619794875383377
1771683733395196700,12.21419677734375,-0.0647498071193695,0.05986303091049194,-0.05070032179355621
1771683733405554200,12.22455419921875,-0.08246438205242157,-0.022601349279284477,-0.07391251623630524
1771683733415911700,12.23491162109375,-0.04703523963689804,0.09834641218185425,-0.02076880633831024
1771683733426269200,12.245269287109375,-0.028098974376916885,0.029320668429136276,-0.05008947476744652
1771683733436627000,12.255626953125,-0.037261683493852615,0.022601349279284477,-0.03237490355968475
1771683733446984400,12.265984375,-0.1044548824429512,0.06658235192298889,-0.015271181240677834
1771683733457341700,12.276341796875,-0.08796200156211853,-0.004886778071522713,-0.06352811306715012
1771683733467699200,12.28669921875,-0.062306419014930725,-0.0030542362947016954,0.05803048983216286
1771683733478056700,12.297056640625,-0.015271181240677834,0.05131116881966591,0.01588202826678753
1771683733488414200,12.307414306640625,-0.056808795779943466,0.013438640162348747,-0.023212196305394173
1771683733498772000,12.31777197265625,-0.0024433890357613564,0.03665083646774292,-0.0036650835536420345
1771683733509129500,12.32812939453125,-0.06658235192298889,0.02748812735080719,-0.021990500390529633
1771683733519487000,12.338487060546875,-0.04459185153245926,-0.004886778071522713,0.01038440316915512
1771683733529844500,12.348844482421875,-0.022601349279284477,0.045202698558568954,0.03542914241552353
1771683733540202000,12.359201904296874,0.0006108472589403391,-0.0910162404179573,0.03787253051996231
1771683733550559500,12.3695595703125,0.031153209507465363,0.12583453953266144,0.09284878522157669
1771683733560917000,12.3799169921875,0.0647498071193695,0.009773556143045425,-0.028098974376916885
1771683733571274500,12.3902744140625,-0.03237490355968475,-0.004275931045413017,-0.008551862090826035
1771683733581632000,12.400632080078125,-0.05619794875383377,0.034818295389413834,0.009773556143045425
1771683733591989500,12.410989501953125,-0.11483928561210632,0.023212196305394173,0.017714571207761765
1771683733602347000,12.421346923828125,-0.1185043677687645,-0.02504473738372326,0.038483377546072006
1771683733612704500,12.43170458984375,-0.055587101727724075,0.01588202826678753,0.05925218388438225
1771683733623062000,12.44206201171875,-0.042759306728839874,0.014660334214568138,0.08368607610464096
1771683733633419500,12.45241943359375,0.007330167107284069,-0.024433890357613564,0.06841489672660828
1771683733643777000,12.462777099609376,-0.06047387793660164,0.037261683493852615,0.07085828483104706
1771683733654134500,12.473134521484376,-0.015271181240677834,-0.08490777015686035,0.0006108472589403391
1771683733664492000,12.483491943359375,0.07635590434074402,-0.05131116881966591,0.02076880633831024
1771683733674849500,12.493849609375,0.06963659077882767,-0.025655584409832954,0.029320668429136276
1771683733685207000,12.50420703125,-0.030542362481355667,-0.013438640162348747,0.04092676565051079
1771683733695564500,12.514564453125,-0.09040539711713791,0.01038440316915512,0.06291726976633072
1771683733705922000,12.524922119140625,-0.04153761267662048,-0.036039989441633224,0.04337015375494957
