time,seconds_elapsed,z,y,x
1773047900616714000,0.3007138671875,5.901896953582764,6.955935478210449,-1.4344971179962158
1773047900626688800,0.310688720703125,6.021538257598877,6.869793891906738,-1.4536397457122803
1773047900636665900,0.320665771484375,6.1363935470581055,6.640082836151123,-1.5254244804382324
1773047900646642000,0.330641845703125,6.1363935470581055,6.539584159851074,-1.415354609489441
1773047900656618800,0.34061865234375,6.1124653816223145,6.395416736602783,-1.171286702156067
1773047900666595000,0.350594970703125,6.011966705322266,6.266204357147217,-1.0277173519134521
1773047900676571600,0.360571533203125,5.877968788146973,6.381059646606445,-1.1377872228622437
1773047900686451700,0.37045166015625,5.734399318695068,6.495915412902832,-1.0133603811264038
1773047900696331800,0.380331787109375,5.581258773803711,6.778866767883301,-0.9990034699440002
1773047900706499000,0.3904990234375,5.490331649780273,6.955935478210449,-0.711864709854126
1773047900716552000,0.400552001953125,5.413163185119629,7.0995049476623535,-0.4001995921134949
1773047900736446000,0.420446044921875,5.74397087097168,7.171289443969727,-0.3762713670730591
1773047900746325800,0.43032568359375,6.0023956298828125,7.070790767669678,-0.06999006122350693
1773047900756205800,0.440205810546875,6.337390899658203,6.970292568206787,0.34636107087135315
1773047900766127900,0.4501279296875,6.6969122886657715,7.003791809082031,0.6771687865257263
1773047900776086500,0.46008642578125,7.0031938552856445,7.16650390625,0.8063812255859375
1773047900786266600,0.4702666015625,7.33340311050415,7.310073375701904,0.8877372145652771
1773047900796379000,0.48037890625,7.558926582336426,7.386643409729004,0.9786644577980042
1773047900806266600,0.4902666015625,7.6498541831970215,7.324429988861084,0.7202396392822266
1773047900816261400,0.500261474609375,7.664210796356201,7.262216567993164,0.22193430364131927
1773047900826220000,0.510219970703125,7.505686283111572,7.295716285705566,0.13579268753528595
1773047900836200400,0.520200439453125,7.285546779632568,7.381857872009277,0.32243284583091736
1773047900846173400,0.53017333984375,7.151548862457275,7.655237674713135,0.4707878530025482
1773047900856150800,0.54015087890625,6.883552551269531,7.7461652755737305,0.5958128571510315
1773047900866126600,0.550126708984375,6.601199626922607,7.477570533752441,0.6819544434547424
1773047900876103200,0.560103271484375,6.413960933685303,7.506284713745117,0.48035913705825806
1773047900886079700,0.570079833984375,6.251249313354492,7.534998416900635,0.25064817070961
1773047900896056300,0.580056396484375,6.265605926513672,7.650452136993408,0.13579268753528595
1773047900906033000,0.590032958984375,6.318248271942139,7.8179497718811035,0.2841476798057556
1773047900916009500,0.600009521484375,6.208178520202637,7.813164234161377,0.23629122972488403
1773047900925889300,0.60988916015625,6.035895347595215,7.755736351013184,0.020937198773026466
1773047900935707000,0.619706787109375,6.055037498474121,7.798807144165039,-0.4576273262500763
1773047900945706200,0.629706298828125,6.184250354766846,7.631309509277344,-0.6305087804794312
1773047900955664400,0.639664306640625,6.375676155090332,7.578667640686035,-0.5874379873275757
1773047900965659100,0.6496591796875,6.749554634094238,7.626523971557617,-0.6400800347328186
1773047900975620900,0.659620849609375,7.33340311050415,7.9280195236206055,-1.0133603811264038
1773047900985801000,0.669801025390625,8.02791976928711,8.387441635131836,-1.171286702156067
1773047900995833300,0.679833251953125,8.69372272491455,8.72782039642334,-1.420140266418457
1773047901005798100,0.689798095703125,9.157930374145508,8.723034858703613,-1.7940187454223633
1773047901015784200,0.6997841796875,9.354142189025879,8.444869041442871,-1.8945173025131226
1773047901025751300,0.709751220703125,9.401998519897461,8.11944580078125,-1.9615163803100586
1773047901035735600,0.719735595703125,9.263215065002441,7.803592681884766,-2.0859432220458984
1773047901045615600,0.72961572265625,8.923434257507324,7.118647575378418,-1.7030915021896362
1773047901055431400,0.739431396484375,8.660223007202148,6.26141881942749,-0.9320043921470642
1773047901065425000,0.7494248046875,8.066205024719238,6.141777515411377,-0.1417747437953949
1773047901075388000,0.759387939453125,7.352545738220215,6.481558322906494,0.37507495284080505
1773047901085567700,0.769567626953125,6.897909641265869,6.601797580718994,0.7728816866874695
1773047901095600000,0.77960009765625,6.615556240081787,6.711867332458496,0.9260223507881165
1773047901105564000,0.78956396484375,6.308676719665527,6.984649181365967,0.8255237936973572
1773047901115550500,0.799550537109375,6.0502519607543945,7.1234331130981445,0.3367897868156433
1773047901125517000,0.80951708984375,5.777470111846924,7.18086051940918,-0.3188436031341553
1773047901135501800,0.819501708984375,5.552545070648193,7.420143127441406,-0.9367900490760803
1773047901145382000,0.8293818359375,5.446662425994873,7.645666599273682,-1.262213945388794
1773047901155197400,0.839197509765625,5.461617469787598,7.803592681884766,-1.2717852592468262
1773047901165377500,0.84937744140625,5.5142598152160645,7.851449489593506,-1.113858938217163
1773047901175410200,0.85941015625,5.485546112060547,7.765307903289795,-1.01814603805542
1773047901185376500,0.86937646484375,5.466403484344482,7.679165840148926,-0.9511470198631287
1773047901195361300,0.879361328125,5.571687698364258,7.789236068725586,-0.9224331378936768
1773047901205329700,0.88932958984375,5.729613780975342,7.942376613616943,-0.8458628058433533
1773047901215313000,0.89931298828125,5.925825119018555,7.88494873046875,-0.7740781307220459
1773047901225282800,0.90928271484375,6.198606967926025,7.650452136993408,-0.7692924737930298
1773047901235264800,0.9192646484375,6.385247230529785,7.540382385253906,-0.8027920126914978
1773047901245236000,0.929236083984375,6.356533527374268,7.616952896118164,-0.7884350419044495
1773047901255217000,0.939216796875,6.126822471618652,7.626523971557617,-0.6687939167022705
1773047901265189000,0.949189208984375,5.988038539886475,7.511070251464844,-0.625723123550415
1773047901275169000,0.9591689453125,5.988038539886475,7.51585578918457,-0.7932206988334656
1773047901285181200,0.96918115234375,6.07896614074707,7.616952896118164,-1.046859860420227
1773047901295164400,0.979164306640625,6.21774959564209,7.588238716125488,-1.109073281288147
1773047901305044500,0.98904443359375,6.232106685638428,7.396214962005615,-1.0995019674301147
1773047901314924300,0.99892431640625,6.098108291625977,7.3292155265808105,-1.2047861814498901
1773047901325048600,1.009048583984375,6.117250919342041,7.262216567993164,-1.415354609489441
1773047901335031600,1.019031494140625,6.122036933898926,7.386643409729004,-1.6983058452606201
1773047901345001700,1.029001708984375,6.189035892486572,7.491927623748779,-1.7748762369155884
1773047901354983400,1.0389833984375,6.265605926513672,7.487142086029053,-1.8083757162094116
1773047901364955000,1.048954833984375,6.236892223358154,7.458428382873535,-1.8897316455841064
1773047901374935600,1.058935546875,6.117250919342041,7.540382385253906,-2.0141584873199463
1773047901384908000,1.068907958984375,6.232106685638428,7.448856830596924,-1.7365909814834595
1773047901394888000,1.078887939453125,6.361319065093994,7.22871732711792,-1.2430713176727295
1773047901404767700,1.088767822265625,6.447460651397705,7.3292155265808105,-1.2287144660949707
1773047901414627000,1.098626953125,6.567699909210205,7.559525012969971,-1.4727823734283447
1773047901424814000,1.10881396484375,6.5389862060546875,7.712665557861328,-1.5738791227340698
1773047901434797000,1.118797119140625,6.356533527374268,7.727022647857666,-1.5254244804382324
1773047901444767500,1.128767578125,6.035895347595215,7.549953460693359,-1.534995675086975
1773047901454749000,1.1387490234375,5.796612739562988,7.448856830596924,-1.5493526458740234
1773047901464720600,1.148720703125,5.724828243255615,7.63609504699707,-1.4919248819351196
1773047901474701300,1.158701416015625,5.791827201843262,7.707880020141602,-1.2287144660949707
1773047901484673800,1.168673828125,5.949753284454346,7.621738433837891,-1.0755738019943237
1773047901494653400,1.1786533203125,6.141179084777832,7.631309509277344,-1.0612168312072754
1773047901504627000,1.188626953125,6.327819347381592,7.712665557861328,-1.0037890672683716
1773047901514606000,1.198606201171875,6.413960933685303,7.655237674713135,-0.778863787651062
1773047901524580000,1.208580078125,6.6107707023620605,7.51585578918457,-0.6305087804794312
1773047901534558700,1.218558837890625,6.816553592681885,7.444071292877197,-0.6640082597732544
1773047901544438800,1.228438720703125,7.012764930725098,7.487142086029053,-0.6975077986717224
1773047901554298000,1.238298095703125,6.960123062133789,7.45364236831665,-0.6735795736312866
1773047901564486100,1.248486083984375,7.051050186157227,7.314858913421631,-0.6735795736312866
1773047901574468400,1.25846826171875,7.199405193328857,6.692724704742432,-0.046061836183071136
1773047901584439300,1.268439208984375,7.213762283325195,6.227919101715088,0.389431893825531
1773047901594420500,1.27842041015625,7.261618614196777,7.070790767669678,-0.9607182741165161
1773047901604300300,1.28830029296875,7.036693096160889,7.664809226989746,-1.420140266418457
1773047901614159400,1.298159423828125,6.749554634094238,7.655237674713135,-1.290927767753601
1773047901624345600,1.308345703125,6.548557281494141,7.626523971557617,-1.6408780813217163
1773047901634329300,1.318329345703125,6.303891181945801,7.41535758972168,-1.333998680114746
1773047901644209400,1.32820947265625,6.236892223358154,7.085147857666016,-1.089930772781372
1773047901654067700,1.338067626953125,6.34217643737793,6.97986364364624,-1.0564311742782593
1773047901664252000,1.348251953125,6.519843578338623,7.0755767822265625,-1.0085747241973877
1773047901674237200,1.3582373046875,6.7351975440979,7.118647575378418,-0.8602197170257568
1773047901684213800,1.3682138671875,7.031907558441162,7.032505512237549,-0.7166503667831421
1773047901704070400,1.3880703125,7.2089762687683105,7.16650390625,-0.6783652305603027
1773047901713928400,1.397928466796875,7.1611199378967285,7.271788120269775,-0.711864709854126
1773047901723917000,1.4079169921875,7.070192813873291,7.310073375701904,-0.6783652305603027
1773047901733884000,1.4178837890625,7.0271220207214355,7.357929706573486,-0.6687939167022705
1773047901743870200,1.4278701171875,7.036693096160889,7.362715244293213,-0.6352944374084473
1773047901753838800,1.4378388671875,7.070192813873291,7.3052873611450195,-0.6113662123680115
1773047901764017400,1.448017333984375,7.0462646484375,7.2430739402771,-0.5778666734695435
1773047901774007300,1.45800732421875,6.960123062133789,7.10429048538208,-0.6017948985099792
1773047901783970600,1.467970458984375,6.864409923553467,7.022934436798096,-0.7214360237121582
1773047901793958000,1.4779580078125,6.754340171813965,7.061219692230225,-0.7932206988334656
1773047901803838000,1.487837890625,6.6969122886657715,7.037291526794434,-0.8027920126914978
1773047901813695700,1.49769580078125,6.6490559577941895,7.008577346801758,-0.8027920126914978
1773047901823682800,1.507682861328125,6.663413047790527,7.022934436798096,-0.8075776696205139
1773047901833651000,1.51765087890625,6.749554634094238,7.10429048538208,-0.8267202377319336
1773047901843830000,1.527830078125,6.816553592681885,7.1473612785339355,-0.8410771489143372
1773047901853819400,1.5378193359375,6.92183780670166,7.094718933105469,-0.8602197170257568
1773047901863783200,1.547783203125,7.094120979309082,6.975078105926514,-0.9176474809646606
1773047901873770000,1.55777001953125,7.242475986480713,6.927221775054932,-0.9655039310455322
1773047901883736600,1.567736572265625,7.304689407348633,6.91765022277832,-1.0037890672683716
1773047901893721300,1.577721435546875,7.304689407348633,6.941578388214111,-1.085145115852356
1773047901903601400,1.587601318359375,7.223333358764648,6.946363925933838,-1.2335001230239868
1773047901913459500,1.59745947265625,7.1228346824646,7.003791809082031,-1.3196417093276978
1773047901923448800,1.60744873046875,7.0271220207214355,7.008577346801758,-1.3100703954696655
1773047901933415200,1.617415283203125,6.931408882141113,6.941578388214111,-1.3818551301956177
1773047901943401700,1.627401611328125,6.854838848114014,6.922435760498047,-1.4919248819351196
1773047901953370400,1.637370361328125,6.802196502685547,6.893722057342529,-1.534995675086975
1773047901963549000,1.647548828125,6.845267295837402,6.893722057342529,-1.4775680303573608
1773047901973538800,1.657538818359375,6.840481758117676,6.898507595062256,-1.4009976387023926
1773047901983502300,1.66750244140625,6.835696220397949,6.812366008758545,-1.32921302318573
1773047901993489400,1.677489501953125,6.816553592681885,6.798008918762207,-1.26699960231781
1773047902003369200,1.687369140625,6.716054916381836,6.802794933319092,-1.1377872228622437
1773047902013227000,1.69722705078125,6.567699909210205,6.869793891906738,-1.0372886657714844
1773047902023214300,1.70721435546875,6.452246189117432,6.932007312774658,-0.9750752449035645
1773047902033182200,1.71718212890625,6.457031726837158,6.951149940490723,-0.9846464991569519
1773047902043167500,1.72716748046875,6.591628074645996,6.936792850494385,-0.9942178130149841
1773047902053137200,1.73713720703125,6.739983081817627,6.951149940490723,-0.9798609018325806
1773047902063314700,1.747314697265625,6.888338088989258,6.965506553649902,-0.9272187948226929
1773047902073305300,1.757305419921875,6.926623344421387,6.970292568206787,-0.9080761671066284
1773047902083268000,1.76726806640625,6.912266254425049,6.955935478210449,-0.7740781307220459
1773047902093256000,1.777255859375,6.974479675292969,6.893722057342529,-0.6448656916618347
1773047902103135700,1.7871357421875,7.1611199378967285,6.740581512451172,-0.6735795736312866
1773047902112993500,1.79699365234375,7.381259441375732,6.5874409675598145,-0.7166503667831421
1773047902122980400,1.80698046875,7.621140003204346,6.501298904418945,-0.7022934556007385
1773047902132948700,1.81694873046875,7.716853141784668,6.52044153213501,-0.6879364848136902
1773047902142933200,1.826933349609375,7.510472297668457,6.606583118438721,-0.6113662123680115
1773047902152903400,1.8369033203125,7.347760200500488,6.56829833984375,-0.44805604219436646
1773047902163080700,1.847080810546875,7.232904434204102,6.495915412902832,-0.3523431420326233
1773047902173071600,1.857071533203125,7.1132636070251465,6.563512325286865,-0.36191442608833313
1773047902183033900,1.867033935546875,6.988836765289307,6.640082836151123,-0.4001995921134949
1773047902193022000,1.87702197265625,7.017550468444824,6.664011001586914,-0.3475574851036072
1773047902202902000,1.886902099609375,7.199405193328857,6.616154670715332,-0.3044866919517517
1773047902212759600,1.896759521484375,7.515257835388184,6.534798622131348,-0.2997010350227356
1773047902222940200,1.906940185546875,7.841279983520508,6.424130439758301,-0.3523431420326233
1773047902232928300,1.91692822265625,8.042277336120605,6.33798885345459,-0.47198426723480225
1773047902242808300,1.926808349609375,8.15234661102295,6.26141881942749,-0.5874379873275757
1773047902252665900,1.936665771484375,8.209774017333984,6.189633846282959,-0.7166503667831421
1773047902262846500,1.946846435546875,8.157132148742676,6.180062770843506,-0.7501499056816101
1773047902272834800,1.956834716796875,8.003992080688477,6.175277233123779,-0.7549355626106262
1773047902282799900,1.9667998046875,7.716853141784668,6.1944193840026855,-0.7884350419044495
1773047902292785700,1.97678564453125,7.400402069091797,6.2566328048706055,-0.7740781307220459
1773047902302753000,1.9867529296875,7.151548862457275,6.27577543258667,-0.7501499056816101
1773047902312737000,1.996737060546875,7.1132636070251465,6.208776473999023,-0.6687939167022705
1773047902322706200,2.0067060546875,7.022336483001709,6.294918060302734,-0.6161518096923828
1773047902332689000,2.01668896484375,7.118049144744873,6.40020227432251,-0.5491527915000916
1773047902342659600,2.02665966796875,7.127620220184326,6.309275150299072,-0.3332005441188812
1773047902352640800,2.036640869140625,7.290332317352295,6.448058605194092,-0.4336991012096405
1773047902362612700,2.04661279296875,7.621140003204346,6.764509677886963,-0.6017948985099792
1773047902372593200,2.05659326171875,7.683353424072266,6.865008354187012,-0.6687939167022705
1773047902382566000,2.06656591796875,7.731209754943848,6.826723098754883,-0.745364248752594
1773047902392545500,2.076545654296875,7.774280548095703,6.826723098754883,-0.8506484627723694
1773047902402519300,2.086519287109375,7.7838521003723145,6.8554368019104,-0.9702895879745483
1773047902412498200,2.096498291015625,7.6498541831970215,6.879364967346191,-1.085145115852356
1773047902422472400,2.106472412109375,7.409973621368408,6.831508636474609,-0.9798609018325806
1773047902432450800,2.116450927734375,7.194619655609131,6.673582553863525,-0.9320043921470642
1773047902442425600,2.126425537109375,6.93619441986084,6.625725746154785,-1.0037890672683716
1773047902452403700,2.13640380859375,6.634698867797852,6.6831536293029785,-1.113858938217163
1773047902462378800,2.146378662109375,6.394818305969238,6.678368091583252,-1.0755738019943237
1773047902472356600,2.156356689453125,6.294320106506348,6.702296257019043,-0.9224331378936768
1773047902482332200,2.166332275390625,6.236892223358154,6.936792850494385,-0.9367900490760803
1773047902492309800,2.176309814453125,6.122036933898926,6.960721015930176,-0.865005373954773
1773047902502285300,2.186285400390625,6.208178520202637,6.91765022277832,-0.7501499056816101
1773047902512262700,2.1962626953125,6.380461692810059,6.850651264190674,-0.5778666734695435
1773047902522238500,2.206238525390625,6.582056999206543,6.831508636474609,-0.41934216022491455
1773047902532215800,2.2162158203125,6.806982040405273,6.750152587890625,-0.3236292600631714
1773047902542191600,2.226191650390625,7.1228346824646,6.640082836151123,-0.39062830805778503
1773047902552168700,2.236168701171875,7.453044414520264,6.616154670715332,-0.41934216022491455
1773047902562144800,2.246144775390625,7.659425258636475,6.668796539306641,-0.3523431420326233
1773047902572121900,2.256121826171875,7.755138397216797,6.553941249847412,-0.3810569941997528
1773047902582098200,2.26609814453125,7.802994728088379,6.342774391174316,-0.39541393518447876
1773047902592075000,2.276074951171875,7.893921852111816,6.299703598022461,-0.4863412082195282
1773047902602051300,2.28605126953125,7.999206066131592,6.266204357147217,-0.5443671345710754
1773047902612028200,2.296028076171875,8.090133666992188,6.251847267150879,-0.6400800347328186
1773047902622004500,2.30600439453125,8.075776100158691,6.294918060302734,-0.7932206988334656
1773047902631981300,2.315981201171875,7.913064479827881,6.328417778015137,-0.9320043921470642
1773047902641957600,2.32595751953125,7.716853141784668,6.33798885345459,-1.0372886657714844
1773047902651934500,2.3359345703125,7.573283672332764,6.270989894866943,-0.8937192559242249
1773047902661911000,2.3459111328125,7.491329669952393,6.266204357147217,-0.7501499056816101
1773047902671887600,2.3558876953125,7.433901786804199,6.304489612579346,-0.7740781307220459
1773047902681864200,2.3658642578125,7.539783954620361,6.26141881942749,-0.7501499056816101
1773047902691841000,2.375841064453125,7.597211837768555,6.189633846282959,-0.6400800347328186
1773047902701817300,2.3858173828125,7.558926582336426,6.1226348876953125,-0.5539384484291077
1773047902711794200,2.395794189453125,7.611568927764893,6.055635929107666,-0.6305087804794312
1773047902721770800,2.405770751953125,7.70249605178833,6.065207004547119,-0.592223584651947
1773047902731747300,2.415747314453125,7.788637638092041,6.218348026275635,-0.357128769159317
1773047902741724000,2.425723876953125,7.802994728088379,6.38584566116333,-0.3236292600631714
1773047902751700500,2.435700439453125,7.869993686676025,6.452844619750977,-0.44327038526535034
1773047902761677000,2.445677001953125,7.999206066131592,6.433701992034912,-0.5204389095306396
1773047902771654000,2.45565380859375,8.09970474243164,6.414559364318848,-0.5006981492042542
1773047902781630500,2.46563037109375,8.204988479614258,6.33798885345459,-0.47198426723480225
1773047902791607000,2.47560693359375,8.343772888183594,6.285346984863281,-0.5300102233886719
1773047902801583600,2.48558349609375,8.429914474487305,6.251847267150879,-0.6448656916618347
1773047902811560200,2.495560302734375,8.391629219055176,6.2566328048706055,-0.8075776696205139
1773047902821536800,2.505536865234375,8.204988479614258,6.227919101715088,-0.8889335989952087
1773047902831513600,2.515513671875,7.932207107543945,6.2327046394348145,-1.0277173519134521
1773047902841490200,2.525490234375,7.659425258636475,6.247061729431152,-1.1569297313690186
1773047902851466800,2.535466796875,7.362117290496826,6.280561447143555,-1.1904292106628418
1773047902861365800,2.54536572265625,7.079763889312744,6.266204357147217,-1.2191431522369385
1773047902871334700,2.555334716796875,6.873981475830078,6.227919101715088,-1.1569297313690186
1773047902881396500,2.565396484375,6.792625427246094,6.203990936279297,-1.0133603811264038
1773047902891374800,2.575374755859375,6.806982040405273,6.270989894866943,-0.9942178130149841
1773047902901350000,2.585349853515625,6.754340171813965,6.32363224029541,-1.0133603811264038
1773047902911327700,2.59532763671875,6.615556240081787,6.242276191711426,-0.9511470198631287
1773047902921303000,2.605302978515625,6.500700950622559,6.2327046394348145,-0.8841479420661926
1773047902931281000,2.615281005859375,6.4187469482421875,6.361917018890381,-0.8697910308837891
1773047902941256400,2.62525634765625,6.4666032791137695,6.50608491897583,-0.8793623447418213
1773047902951233800,2.63523388671875,6.601199626922607,6.668796539306641,-0.778863787651062
1773047902961054500,2.645054443359375,6.806982040405273,6.702296257019043,-0.5874379873275757
1773047902971016200,2.65501611328125,7.041478633880615,6.620940208435059,-0.3475574851036072
1773047902981162800,2.665162841796875,7.256833076477051,6.56829833984375,-0.12741780281066895
1773047902991143400,2.675143310546875,7.496115207672119,6.515655994415283,0.006580262444913387
1773047903001116000,2.685115966796875,7.70249605178833,6.40020227432251,0.08315058797597885
1773047903011095800,2.695095703125,7.95134973526001,6.299703598022461,-0.012562318705022335
1773047903021069300,2.7050693359375,8.195417404174805,6.218348026275635,-0.0891326442360878
1773047903031048400,2.71504833984375,8.26241683959961,6.1944193840026855,-0.1417747437953949
1773047903041022500,2.7250224609375,8.166703224182129,6.227919101715088,-0.20398813486099243
1773047903051001000,2.7350009765625,8.023134231567383,6.290132522583008,-0.2805584669113159
1773047903060975900,2.744975830078125,7.846065521240234,6.2566328048706055,-0.29012975096702576
1773047903070954000,2.7549541015625,7.6977105140686035,6.132206439971924,-0.26620152592658997
1773047903080890400,2.764890380859375,7.606783390045166,6.108277797698975,-0.24227328598499298
1773047903090864400,2.774864501953125,7.573283672332764,6.165705680847168,-0.2949153780937195
1773047903100882400,2.78488232421875,7.52004337310791,6.184848308563232,-0.29012975096702576
1773047903110860800,2.79486083984375,7.534998416900635,6.1465630531311035,-0.3236292600631714
1773047903120835800,2.8048359375,7.5637125968933105,6.184848308563232,-0.42412781715393066
1773047903130813700,2.814813720703125,7.544569969177246,6.2566328048706055,-0.45284169912338257
1773047903140789000,2.8247890625,7.52004337310791,6.347560405731201,-0.5054838061332703
1773047903150766600,2.8347666015625,7.515257835388184,6.409773826599121,-0.44327038526535034
1773047903160646700,2.844646728515625,7.592426300048828,6.409773826599121,-0.2949153780937195
1773047903170526700,2.854526611328125,7.70249605178833,6.530013084411621,-0.251844584941864
1773047903180656600,2.86465673828125,7.750352382659912,6.5874409675598145,-0.18963119387626648
1773047903190632200,2.874632080078125,7.7838521003723145,6.558726787567139,-0.0891326442360878
1773047903200610000,2.884610107421875,7.755138397216797,6.467201232910156,0.0975075215101242
1773047903210585600,2.894585693359375,7.707281589508057,6.371488571166992,0.23629122972488403
1773047903220602000,2.90460205078125,7.769495010375977,6.2327046394348145,0.3080759048461914
1773047903230582000,2.91458203125,7.793423175811768,6.347560405731201,0.34636107087135315
1773047903240516600,2.9245166015625,7.755138397216797,6.510870456695557,0.18364913761615753
1773047903250492000,2.934491943359375,7.6498541831970215,6.58265495300293,-0.0077766734175384045
1773047903260371700,2.944371826171875,7.534998416900635,6.56829833984375,0.03529413416981697
1773047903270251800,2.954251708984375,7.476972579956055,6.46241569519043,0.1501496136188507
1773047903280431900,2.964431884765625,7.524828910827637,6.333203315734863,0.26500511169433594
1773047903290439400,2.974439453125,7.678567886352539,6.227919101715088,0.3655036687850952
1773047903300415200,2.984415283203125,7.865208148956299,6.0747785568237305,0.4468596279621124
1773047903310392600,2.994392578125,7.946564197540283,5.888138294219971,0.42293140292167664
1773047903320329700,3.004329833984375,7.836493968963623,5.811567783355713,0.42293140292167664
1773047903330303000,3.014302978515625,7.630711555480957,5.892923831939697,0.37507495284080505
1773047903340244200,3.024244140625,7.275975227355957,5.955137252807617,0.26500511169433594
1773047903350214100,3.034214111328125,7.051050186157227,6.036493301391602,0.19800607860088348
1773047903360094200,3.04409423828125,6.969694137573242,6.127420425415039,0.1788634955883026
1773047903369974300,3.053974365234375,7.022336483001709,6.26141881942749,0.2027917206287384
1773047903380073000,3.064072998046875,7.17069149017334,6.318846225738525,0.3798605799674988
1773047903390040600,3.07404052734375,7.429116249084473,6.270989894866943,0.6340979933738708
1773047903399987500,3.083987548828125,7.779066562652588,6.19920539855957,0.916451096534729
1773047903409953000,3.093953125,8.09970474243164,6.189633846282959,1.184447169303894
1773047903419901700,3.103901611328125,8.243273735046387,6.189633846282959,1.275374412536621
1773047903429865700,3.11386572265625,8.295916557312012,6.218348026275635,1.160519003868103
1773047903439816400,3.12381640625,8.209774017333984,6.26141881942749,1.1461620330810547
1773047903449778700,3.13377880859375,7.994420528411865,6.318846225738525,1.1413763761520386
1773047903459847000,3.143846923828125,7.860422611236572,6.38584566116333,0.9930213689804077
1773047903469820200,3.153820068359375,7.817351341247559,6.328417778015137,0.8925228714942932
1773047903479645200,3.163645263671875,7.802994728088379,6.424130439758301,0.7106683254241943
1773047903489603600,3.173603515625,7.70249605178833,6.510870456695557,0.48514479398727417
1773047903499521000,3.18352099609375,7.587640762329102,6.510870456695557,0.29371899366378784
1773047903509475300,3.193475341796875,7.472187042236328,6.46241569519043,0.21714866161346436
1773047903519281400,3.203281494140625,7.2951178550720215,6.366703033447266,0.26500511169433594
1773047903529220900,3.213220947265625,7.146762847900391,6.285346984863281,0.32721850275993347
1773047903539349500,3.223349609375,7.007979393005371,6.247061729431152,0.3320041298866272
1773047903549308200,3.23330810546875,6.8309102058410645,6.208776473999023,0.2841476798057556
1773047903559379700,3.243379638671875,6.620342254638672,6.218348026275635,0.2554338276386261
1773047903569350000,3.253349853515625,6.558128833770752,6.21356201171875,0.2602194547653198
1773047903579230000,3.26322998046875,6.548557281494141,6.371488571166992,0.18364913761615753
1773047903589092000,3.273092041015625,6.567699909210205,6.467201232910156,0.12622138857841492
1773047903599054300,3.283054443359375,6.653841495513916,6.544369697570801,0.1788634955883026
1773047903609007600,3.293007568359375,6.768697261810303,6.544369697570801,0.26500511169433594
1773047903618968800,3.30296875,7.0031938552856445,6.467201232910156,0.47557350993156433
1773047903628922600,3.312922607421875,7.237690448760986,6.452844619750977,0.638883650302887
1773047903639102700,3.323102783203125,7.45782995223999,6.491129398345947,0.8015955686569214
1773047903649282800,3.33328271484375,7.530212879180908,6.486343860626221,1.0648061037063599
1773047903659462700,3.343462646484375,7.554141044616699,6.481558322906494,1.1940184831619263
1773047903669568300,3.353568359375,7.443472862243652,6.476772785186768,1.2035897970199585
1773047903679527400,3.36352734375,7.323832035064697,6.5252275466918945,1.1078768968582153
1773047903689518000,3.37351806640625,7.232904434204102,6.625725746154785,1.0265209674835205
1773047903699480800,3.383480712890625,7.2472615242004395,6.702296257019043,0.9930213689804077
1773047903709468700,3.39346875,7.319046497344971,6.687939167022705,0.9068797826766968
1773047903719434200,3.403434326171875,7.433901786804199,6.563512325286865,0.9595218896865845
1773047903729419800,3.413419677734375,7.438687324523926,6.534798622131348,1.1030912399291992
1773047903739387600,3.4233876953125,7.266404151916504,6.678368091583252,0.9643075466156006
1773047903749371400,3.433371337890625,7.132406234741211,6.606583118438721,0.8781659007072449
1773047903759340800,3.4433408203125,7.0462646484375,6.539584159851074,0.882951557636261
1773047903769323300,3.4533232421875,6.917052268981934,6.678368091583252,0.8542376756668091
1773047903779294200,3.463294189453125,6.93619441986084,6.678368091583252,0.9547362327575684
1773047903789275400,3.473275390625,6.931408882141113,6.750152587890625,0.9020941257476807
1773047903799247600,3.48324755859375,7.041478633880615,6.778866767883301,0.9020941257476807
1773047903809228000,3.49322802734375,7.199405193328857,6.750152587890625,0.9499505758285522
1773047903819201000,3.503200927734375,7.357331275939941,6.692724704742432,1.0600204467773438
1773047903829180700,3.5131806640625,7.568498134613037,6.592226505279541,1.1365907192230225
1773047903839154400,3.523154541015625,7.76470947265625,6.5252275466918945,1.160519003868103
1773047903849133300,3.53313330078125,7.850851058959961,6.50608491897583,1.1653046607971191
1773047903859107600,3.543107666015625,7.88913631439209,6.510870456695557,1.1222338676452637
1773047903869086200,3.553086181640625,7.917850017547607,6.443273067474365,1.1174482107162476
1773047903879061000,3.56306103515625,7.88913631439209,6.530013084411621,1.0408778190612793
1773047903889039000,3.5730390625,7.836493968963623,6.573083877563477,0.9834501147270203
1773047903898919200,3.582919189453125,7.793423175811768,6.592226505279541,0.9690931439399719
1773047903908779000,3.592779052734375,7.635497093200684,6.5874409675598145,0.9595218896865845
1773047903918967600,3.602967529296875,7.314260482788086,6.606583118438721,1.00259268283844
1773047903928949200,3.61294921875,7.362117290496826,6.620940208435059,0.9499505758285522
1773047903938920700,3.622920654296875,7.438687324523926,6.58265495300293,0.973878800868988
1773047903948901600,3.632901611328125,7.328617572784424,6.563512325286865,0.9547362327575684
1773047903958874000,3.6428740234375,7.285546779632568,6.486343860626221,0.8925228714942932
1773047903968854300,3.652854248046875,7.328617572784424,6.424130439758301,0.9978070259094238
1773047903978827500,3.66282763671875,7.299903869628906,6.390631198883057,1.2035897970199585
1773047903988807000,3.672806884765625,7.314260482788086,6.390631198883057,1.275374412536621
1773047903998781000,3.682781005859375,7.366902828216553,6.395416736602783,1.184447169303894
1773047904008759600,3.692759521484375,7.467401027679443,6.218348026275635,0.9978070259094238
1773047904018734000,3.702734130859375,7.491329669952393,5.921638011932373,0.849452018737793
1773047904028712700,3.712712646484375,7.6498541831970215,5.456831932067871,1.031306505203247
1773047904038687500,3.7226875,7.8795647621154785,5.825924873352051,0.2841476798057556
1773047904048665600,3.73266552734375,7.903493404388428,6.227919101715088,0.09272187948226929
1773047904058679800,3.7426796875,8.018348693847656,6.333203315734863,-0.2805584669113159
1773047904068661500,3.75266162109375,8.018348693847656,6.357131481170654,-0.6879364848136902
1773047904078594300,3.76259423828125,7.774280548095703,6.452844619750977,-0.6927221417427063
1773047904088569600,3.772569580078125,7.630711555480957,6.539584159851074,-0.8937192559242249
1773047904098546200,3.782546142578125,7.52004337310791,6.606583118438721,-1.1186445951461792
1773047904108523000,3.79252294921875,7.52004337310791,6.7070817947387695,-1.2813565731048584
1773047904118499600,3.80249951171875,7.52004337310791,7.003791809082031,-1.482353687286377
1773047904128476400,3.812476318359375,7.510472297668457,7.013363361358643,-1.3483555316925049
1773047904138453000,3.822452880859375,7.654639720916748,6.640082836151123,-0.8937192559242249
1773047904148429600,3.8324296875,7.82692289352417,6.318846225738525,-0.5443671345710754
1773047904158406100,3.84240625,7.95134973526001,6.227919101715088,-0.3188436031341553
1773047904168383000,3.852383056640625,7.956135272979736,6.247061729431152,-0.1944168359041214
1773047904178359600,3.862359619140625,7.917850017547607,6.242276191711426,-0.0891326442360878
1773047904188336000,3.872336181640625,7.7838521003723145,6.208776473999023,0.08315058797597885
1773047904198313000,3.88231298828125,7.597211837768555,6.184848308563232,0.1788634955883026
1773047904208289500,3.89228955078125,7.390830993652344,6.165705680847168,0.22193430364131927
1773047904218266000,3.90226611328125,7.218547821044922,6.1944193840026855,0.20757736265659332
1773047904228243000,3.912242919921875,6.979265213012695,6.299703598022461,0.39900317788124084
1773047904238219500,3.922219482421875,6.897909641265869,6.414559364318848,0.638883650302887
1773047904248196000,3.932196044921875,6.92183780670166,6.376274108886719,0.849452018737793
1773047904258173000,3.9421728515625,6.974479675292969,6.304489612579346,0.9786644577980042
1773047904268149500,3.9521494140625,7.118049144744873,6.251847267150879,1.1748759746551514
1773047904278126300,3.962126220703125,7.357331275939941,6.318846225738525,1.2658032178878784
1773047904288103000,3.97210302734375,7.549355506896973,6.544369697570801,1.1030912399291992
1773047904297983000,3.98198291015625,7.7455668449401855,6.620940208435059,1.0456634759902954
1773047904307843000,3.991843017578125,7.884350776672363,6.649653911590576,1.1318050622940063
1773047904318033000,4.002032958984375,7.917850017547607,6.486343860626221,1.2323036193847656
1773047904328013800,4.012013916015625,7.908278942108154,6.395416736602783,1.2658032178878784
1773047904337986000,4.021986083984375,7.922635555267334,6.381059646606445,1.1126625537872314
1773047904347966200,4.03196630859375,7.860422611236572,6.223133563995361,1.1174482107162476
1773047904357939500,4.041939453125,7.692924976348877,6.1944193840026855,1.1940184831619263
1773047904367918800,4.0519189453125,7.472187042236328,6.165705680847168,1.1365907192230225
1773047904377892900,4.061892822265625,7.299903869628906,5.955137252807617,1.2179467678070068
1773047904387871700,4.071871826171875,7.141977310180664,5.9407806396484375,1.2275179624557495
1773047904397846300,4.08184619140625,6.98405122756958,6.002993583679199,1.1509476900100708
1773047904407824600,4.09182470703125,6.945765972137451,6.1226348876953125,1.1461620330810547
1773047904417799400,4.10179931640625,6.917052268981934,6.290132522583008,1.031306505203247
1773047904427777500,4.111777587890625,6.93619441986084,5.5005011558532715,2.046461582183838
1773047904437752800,4.1217529296875,7.299903869628906,5.9886369705200195,1.4093725681304932
1773047904447730700,4.131730712890625,7.33340311050415,6.184848308563232,1.466800332069397
1773047904457706200,4.141706298828125,7.630711555480957,6.52044153213501,0.5814558863639832
1773047904467683800,4.151683837890625,7.510472297668457,6.577869415283203,0.8638089895248413
1773047904477564000,4.16156396484375,7.692924976348877,6.601797580718994,0.9882357716560364
1773047904487423700,4.171423828125,7.601997375488281,7.070790767669678,0.5718846321105957
1773047904497418800,4.181418701171875,7.486543655395508,6.888936519622803,0.7489534616470337
1773047904507380700,4.191380615234375,7.429116249084473,6.534798622131348,1.2658032178878784
1773047904517566000,4.20156591796875,7.486543655395508,6.27577543258667,1.6013965606689453
1773047904527550500,4.211550537109375,7.635497093200684,6.270989894866943,1.7066807746887207
1773047904537519400,4.221519287109375,7.836493968963623,6.318846225738525,1.740180253982544
1773047904547502300,4.23150244140625,7.936992645263672,6.270989894866943,1.7545372247695923
1773047904557472800,4.24147265625,7.989634990692139,6.227919101715088,1.7066807746887207
1773047904567454500,4.251454345703125,8.061419486999512,6.203990936279297,1.6205391883850098
1773047904577334500,4.26133447265625,8.051848411560059,6.189633846282959,1.5146567821502686
1773047904587193600,4.271193603515625,8.02791976928711,6.189633846282959,1.3902299404144287
1773047904597379300,4.28137939453125,8.008777618408203,6.180062770843506,1.2705888748168945
1773047904607363600,4.291363525390625,7.95134973526001,6.180062770843506,1.2562319040298462
1773047904617332700,4.301332763671875,7.88913631439209,6.1944193840026855,1.31365966796875
1773047904627315500,4.3113154296875,7.82692289352417,6.1944193840026855,1.3471591472625732
1773047904637286100,4.3212861328125,7.740781307220459,6.127420425415039,1.2801600694656372
1773047904647267600,4.331267578125,7.692924976348877,6.060421466827393,1.1892328262329102
1773047904657239600,4.341239501953125,7.654639720916748,6.060421466827393,1.098305583000183
1773047904667220000,4.351219970703125,7.582854747772217,6.108277797698975,1.0887342691421509
1773047904677193000,4.36119287109375,7.486543655395508,6.208776473999023,1.1126625537872314
1773047904687172600,4.371172607421875,7.486543655395508,6.242276191711426,1.179661512374878
1773047904697052700,4.381052734375,7.606783390045166,6.1704912185668945,1.399801254272461
1773047904706912300,4.390912353515625,7.57806921005249,6.117849349975586,1.0217353105545044
1773047904717099500,4.401099609375,7.443472862243652,6.573083877563477,1.0456634759902954
1773047904727082500,4.41108251953125,7.500900745391846,6.649653911590576,1.1126625537872314
1773047904737053000,4.421052978515625,7.6498541831970215,6.471987247467041,1.1748759746551514
1773047904747034600,4.43103466796875,7.7838521003723145,6.347560405731201,1.399801254272461
1773047904757006300,4.44100634765625,7.8317084312438965,6.270989894866943,1.5194423198699951
1773047904766987000,4.450987060546875,7.903493404388428,6.328417778015137,1.3615161180496216
1773047904776866800,4.46086669921875,7.975277900695801,6.40020227432251,1.0217353105545044
1773047904786726100,4.47072607421875,7.884350776672363,6.491129398345947,0.9260223507881165
1773047904796718800,4.48071875,7.750352382659912,6.597012042999268,0.8350951075553894
1773047904806682600,4.4906826171875,7.616354465484619,6.597012042999268,0.7250252366065979
1773047904816866000,4.500865966796875,7.544569969177246,6.530013084411621,0.6675975322723389
1773047904826852000,4.51085205078125,7.496115207672119,6.433701992034912,0.638883650302887
1773047904836819700,4.52081982421875,7.472187042236328,6.270989894866943,0.729810893535614
1773047904846803700,4.5308037109375,7.424330234527588,6.093921184539795,0.7824530005455017
1773047904856772900,4.54077294921875,7.290332317352295,5.955137252807617,0.7537391185760498
1773047904866755600,4.550755615234375,7.17069149017334,5.955137252807617,0.6867401003837585
1773047904876726500,4.5607265625,7.017550468444824,6.084349632263184,0.672383189201355
1773047904886708000,4.5707080078125,6.945765972137451,6.2327046394348145,0.7585247755050659
1773047904896587800,4.580587890625,6.988836765289307,6.366703033447266,0.8781659007072449
1773047904906447000,4.590447021484375,7.118049144744873,6.495915412902832,0.9499505758285522
1773047904926617000,4.6106171875,7.70249605178833,6.745367050170898,1.074377417564392
1773047904936586500,4.62058642578125,8.070990562438965,6.726224422454834,1.160519003868103
1773047904946569000,4.63056884765625,8.453842163085938,6.530013084411621,1.275374412536621
1773047904956540000,4.640539794921875,8.808578491210938,6.290132522583008,1.3710874319076538
1773047904966521000,4.65052099609375,8.95693302154541,6.113063812255859,1.3758729696273804
1773047904976493300,4.660493408203125,8.84207820892334,5.969494342803955,1.3615161180496216
1773047904986473700,4.6704736328125,8.511270523071289,5.888138294219971,1.3232308626174927
1773047904996446500,4.680446533203125,8.066205024719238,5.883352756500244,1.2323036193847656
1773047905006426400,4.69042626953125,7.601997375488281,5.907280921936035,1.1988041400909424
1773047905016400000,4.70039990234375,7.1371917724609375,6.002993583679199,1.179661512374878
1773047905026379000,4.71037890625,6.768697261810303,6.13699197769165,1.1413763761520386
1773047905036353300,4.720353271484375,6.634698867797852,6.208776473999023,1.1748759746551514
1773047905046332000,4.730331787109375,6.663413047790527,6.218348026275635,1.2849457263946533
1773047905056306700,4.740306640625,6.883552551269531,6.242276191711426,1.399801254272461
1773047905066284800,4.750284912109375,7.213762283325195,6.26141881942749,1.495514154434204
1773047905076260000,4.760260009765625,7.573283672332764,6.2327046394348145,1.6109678745269775
1773047905086238000,4.770238037109375,8.01356315612793,6.160920143127441,1.649253010749817
1773047905096118000,4.780117919921875,8.415556907653809,6.0987067222595215,1.6923238039016724
1773047905105977900,4.789977783203125,8.684151649475098,6.165705680847168,1.8263218402862549
1773047905116166700,4.800166748046875,8.70807933807373,6.218348026275635,1.8502501249313354
1773047905126148400,4.8101484375,8.602795600891113,6.218348026275635,1.7306089401245117
1773047905136120000,4.8201201171875,8.300702095031738,6.251847267150879,1.5337992906570435
1773047905146100700,4.830100830078125,7.946564197540283,6.247061729431152,1.3950155973434448
1773047905156073500,4.840073486328125,7.664210796356201,6.1944193840026855,1.3758729696273804
1773047905166053400,4.850053466796875,7.438687324523926,6.156134605407715,1.3902299404144287
1773047905176027000,4.86002685546875,7.218547821044922,6.165705680847168,1.3710874319076538
1773047905186006000,4.870006103515625,7.074978351593018,6.1465630531311035,1.3232308626174927
1773047905195886000,4.879885986328125,7.017550468444824,6.1226348876953125,1.2035897970199585
1773047905205745700,4.88974560546875,7.0271220207214355,6.117849349975586,1.0408778190612793
1773047905215933400,4.899933349609375,7.10847806930542,6.165705680847168,0.9308080077171326
1773047905225916200,4.909916259765625,7.266404151916504,6.294918060302734,0.8398807644844055
1773047905235886800,4.919886962890625,7.510472297668457,6.342774391174316,0.7537391185760498
1773047905245868300,4.929868408203125,7.822137355804443,6.395416736602783,0.6675975322723389
1773047905255840300,4.93984033203125,8.157132148742676,6.40020227432251,0.6580262184143066
1773047905265820700,4.949820556640625,8.405985832214355,6.33798885345459,0.7058826684951782
1773047905275793700,4.959793701171875,8.559126853942871,6.318846225738525,0.672383189201355
1773047905285773300,4.969773193359375,8.679366111755371,6.251847267150879,0.6101697683334351
1773047905295653400,4.9796533203125,8.684151649475098,6.079564094543457,0.5240281820297241
1773047905305513000,4.989512939453125,8.583653450012207,5.9407806396484375,0.48514479398727417
1773047905315700200,4.9997001953125,8.449056625366211,5.873781204223633,0.45164528489112854
1773047905325683200,5.00968310546875,8.161917686462402,5.840281963348389,0.3846462368965149
1773047905335653600,5.019653564453125,7.874779224395752,5.854638576507568,0.26500511169433594
1773047905345635300,5.02963525390625,7.582854747772217,5.883352756500244,0.13579268753528595
1773047905355607000,5.03960693359375,7.2089762687683105,5.969494342803955,-0.022133609279990196
1773047905365587700,5.049587646484375,6.99840784072876,6.079564094543457,-0.08434699475765228
1773047905375560400,5.059560546875,6.945765972137451,6.093921184539795,-0.06999006122350693
1773047905385540400,5.069540283203125,6.969694137573242,6.055635929107666,0.030508488416671753
1773047905395513900,5.079513916015625,7.118049144744873,6.002993583679199,0.09272187948226929
1773047905405493000,5.089492919921875,7.2472615242004395,6.036493301391602,0.06400800496339798
1773047905415467300,5.09946728515625,7.366902828216553,6.084349632263184,0.020937198773026466
1773047905425446000,5.10944580078125,7.472187042236328,6.093921184539795,-0.0029910283628851175
1773047905435420700,5.119420654296875,7.57806921005249,6.113063812255859,-0.046061836183071136
1773047905445398800,5.129398681640625,7.57806921005249,6.180062770843506,-0.12741780281066895
1773047905455373800,5.139373779296875,7.534998416900635,6.290132522583008,-0.19920247793197632
1773047905465352000,5.14935205078125,7.500900745391846,6.347560405731201,-0.2949153780937195
1773047905475327500,5.159327392578125,7.438687324523926,6.409773826599121,-0.3810569941997528
1773047905485305000,5.16930517578125,7.419544696807861,6.452844619750977,-0.36191442608833313
1773047905495280600,5.17928076171875,7.462615489959717,6.438487529754639,-0.2709871530532837
1773047905505258200,5.18925830078125,7.554141044616699,6.314060688018799,-0.19920247793197632
1773047905515234000,5.199234130859375,7.57806921005249,6.127420425415039,-0.15134602785110474
1773047905525211400,5.20921142578125,7.554141044616699,5.9264235496521,-0.10827522724866867
1773047905535091500,5.219091552734375,7.429116249084473,5.868995666503906,-0.022133609279990196
1773047905545164800,5.229164794921875,7.218547821044922,5.950351715087891,0.04007977992296219
1773047905565117400,5.249117431640625,6.907480716705322,6.203990936279297,0.0687936544418335
1773047905575094800,5.2590947265625,6.902695178985596,6.333203315734863,0.12622138857841492
1773047905585070800,5.26907080078125,7.036693096160889,6.46241569519043,0.29850462079048157
1773047905595048000,5.2790478515625,7.280761241912842,6.495915412902832,0.6245267391204834
1773047905605024300,5.289024169921875,7.582854747772217,6.414559364318848,0.9834501147270203
1773047905615001300,5.29900146484375,7.917850017547607,6.309275150299072,1.1222338676452637
1773047905624977700,5.308977783203125,8.200202941894531,6.270989894866943,1.2035897970199585
1773047905634954500,5.31895458984375,8.449056625366211,6.266204357147217,1.2705888748168945
1773047905644834600,5.32883447265625,8.645866394042969,6.223133563995361,1.3806586265563965
1773047905654694700,5.338694580078125,8.712865829467773,6.180062770843506,1.4620146751403809
1773047905664884200,5.34888427734375,8.660223007202148,6.1944193840026855,1.3519448041915894
1773047905674865200,5.358865234375,8.48734188079834,6.165705680847168,1.155733346939087
1773047905684837600,5.368837646484375,8.118846893310547,6.0747785568237305,1.098305583000183
1773047905694817800,5.37881787109375,7.635497093200684,6.041278839111328,1.0648061037063599
1773047905704791000,5.388791015625,7.1611199378967285,6.069993019104004,0.9690931439399719
1773047905714770400,5.3987705078125,6.802196502685547,6.1465630531311035,0.9403793215751648
1773047905724744400,5.408744384765625,6.471388816833496,6.108277797698975,1.0169496536254883
1773047905734723300,5.418723388671875,6.222535133361816,6.036493301391602,0.9978070259094238
1773047905744697900,5.42869775390625,6.064609050750732,6.079564094543457,0.9260223507881165
1773047905754676200,5.43867626953125,6.0263237953186035,6.21356201171875,0.8638089895248413
1773047905764651000,5.448651123046875,6.107679843902588,6.40020227432251,0.8877372145652771
1773047905774629000,5.458629150390625,6.385247230529785,6.597012042999268,1.031306505203247
1773047905784604400,5.4686044921875,6.835696220397949,6.721438884735107,1.1748759746551514
1773047905794582300,5.478582275390625,7.357331275939941,6.7692952156066895,1.1461620330810547
1773047905804557800,5.488557861328125,7.9657063484191895,6.778866767883301,1.0648061037063599
1773047905814535400,5.498535400390625,8.48734188079834,6.850651264190674,0.9212366938591003
1773047905824511200,5.50851123046875,8.851649284362793,6.8554368019104,0.8255237936973572
1773047905834488800,5.51848876953125,9.110074043273926,6.678368091583252,0.7441678643226624
1773047905844464600,5.528464599609375,9.143573760986328,6.419344902038574,0.5718846321105957
1773047905854442000,5.53844189453125,8.84207820892334,6.132206439971924,0.40378883481025696
1773047905864418000,5.54841796875,8.319844245910645,5.959922790527344,0.25064817070961
1773047905874395100,5.55839501953125,7.6977105140686035,5.888138294219971,0.20757736265659332
1773047905884371500,5.568371337890625,6.931408882141113,5.873781204223633,0.21236300468444824
1773047905894348500,5.5783486328125,6.1603217124938965,5.931209087371826,0.18364913761615753
1773047905904324900,5.588324951171875,5.519045352935791,6.0125651359558105,0.21236300468444824
1773047905914301700,5.5983017578125,5.102096080780029,6.1226348876953125,0.31764721870422363
1773047905924278300,5.6082783203125,4.920241355895996,6.21356201171875,0.5527420043945312
1773047905934255000,5.618255126953125,5.039882659912109,6.304489612579346,0.7968099117279053
1773047905944231700,5.628231689453125,5.471189022064209,6.404987812042236,1.031306505203247
1773047905954208500,5.63820849609375,6.0023956298828125,6.50608491897583,1.3806586265563965
1773047905964184800,5.648184814453125,6.5868425369262695,6.539584159851074,1.7832510471343994
1773047905974161700,5.65816162109375,7.328617572784424,6.544369697570801,1.9507486820220947
1773047905984138200,5.66813818359375,8.085348129272461,6.592226505279541,1.898106575012207
1773047905994115000,5.678114990234375,8.866005897521973,6.640082836151123,1.811964988708496
1773047906004091600,5.688091552734375,9.613164901733398,6.7070817947387695,1.7832510471343994
1773047906014068500,5.698068359375,10.149157524108887,6.7070817947387695,1.811964988708496
1773047906024045000,5.708045166015625,10.517651557922363,6.6352972984313965,1.7066807746887207
1773047906034022000,5.71802197265625,10.671390533447266,6.553941249847412,1.3567304611206055
1773047906043902000,5.72790185546875,10.565508842468262,6.491129398345947,0.8303094506263733
1773047906053762000,5.737761962890625,10.192228317260742,6.352345943450928,0.29850462079048157
1773047906063951600,5.74795166015625,9.66102123260498,6.165705680847168,-0.0891326442360878
1773047906073932500,5.7579326171875,9.06700325012207,5.9647088050842285,-0.31405797600746155
1773047906083905000,5.767905029296875,8.50169849395752,5.825924873352051,-0.5006981492042542
1773047906093885200,5.77788525390625,7.994420528411865,5.754140377044678,-0.7022934556007385
1773047906103858400,5.7878583984375,7.510472297668457,5.715855121612549,-0.8315058946609497
1773047906113837800,5.797837890625,7.074978351593018,5.701498031616211,-0.8602197170257568
1773047906123811800,5.807811767578125,6.802196502685547,5.763711452484131,-0.8841479420661926
1773047906133790700,5.817790771484375,6.692126750946045,5.811567783355713,-0.778863787651062
1773047906143670800,5.8276708984375,6.763911247253418,5.878567218780518,-0.4384847581386566
1773047906153530400,5.8375302734375,6.93619441986084,5.9407806396484375,0.001794616924598813
1773047906163718400,5.847718505859375,7.232904434204102,6.017350673675537,0.4133601188659668
1773047906173700900,5.857700927734375,7.510472297668457,6.203990936279297,0.7154539823532104
1773047906183671800,5.867671875,7.712067604064941,6.4289164543151855,0.9212366938591003
1773047906193653000,5.877653076171875,7.846065521240234,6.577869415283203,1.160519003868103
1773047906203533000,5.887532958984375,7.874779224395752,6.664011001586914,1.4476577043533325
1773047906213392400,5.897392333984375,7.898707389831543,6.692724704742432,1.7114664316177368
1773047906223563500,5.9075634765625,7.922635555267334,6.687939167022705,1.80717933177948
1773047906233556000,5.917555908203125,7.860422611236572,6.7070817947387695,1.7353945970535278
1773047906243520000,5.92752001953125,7.664210796356201,6.597012042999268,1.6253247261047363
1773047906253509000,5.937509033203125,7.500900745391846,6.457630157470703,1.4141582250595093
1773047906263476000,5.94747607421875,7.405188083648682,6.40020227432251,1.1126625537872314
1773047906273462500,5.957462646484375,7.2951178550720215,6.352345943450928,0.9355936646461487
1773047906283431200,5.96743115234375,7.213762283325195,6.328417778015137,0.8398807644844055
1773047906293416000,5.977416015625,7.151548862457275,6.333203315734863,0.8111668825149536
1773047906303386000,5.98738623046875,7.132406234741211,6.32363224029541,0.729810893535614
1773047906313369000,5.997369140625,7.1611199378967285,6.366703033447266,0.672383189201355
1773047906323340800,6.0073408203125,7.2951178550720215,6.318846225738525,0.7441678643226624
1773047906333322500,6.017322509765625,7.52004337310791,6.227919101715088,0.7776673436164856
1773047906343295200,6.027295166015625,7.759923934936523,6.117849349975586,0.8590233325958252
1773047906353276000,6.03727587890625,7.941778182983398,5.974279880523682,0.916451096534729
1773047906363249400,6.04724951171875,7.994420528411865,5.849853038787842,0.8925228714942932
1773047906373229300,6.057229248046875,7.874779224395752,5.787639617919922,0.882951557636261
1773047906383203300,6.067203369140625,7.558926582336426,5.754140377044678,0.8446664214134216
1773047906393083400,6.07708349609375,7.266404151916504,5.782854080200195,0.7537391185760498
1773047906402963500,6.08696337890625,7.0462646484375,5.859424591064453,0.6340979933738708
1773047906413136000,6.097135986328125,6.964908599853516,5.983851432800293,0.5958128571510315
1773047906423116800,6.10711669921875,7.051050186157227,6.156134605407715,0.6197410821914673
1773047906433089300,6.11708935546875,7.280761241912842,6.2566328048706055,0.6628118753433228
1773047906443069400,6.1270693359375,7.530212879180908,6.309275150299072,0.7585247755050659
1773047906453042700,6.137042724609375,7.874779224395752,6.33798885345459,0.8159525394439697
1773047906463022000,6.14702197265625,8.267202377319336,6.433701992034912,0.6580262184143066
1773047906472996000,6.15699609375,8.655437469482422,6.544369697570801,0.50907301902771
1773047906482975000,6.16697509765625,9.019146919250488,6.56829833984375,0.35114672780036926
1773047906492949500,6.176949462890625,9.224929809570312,6.495915412902832,0.1453639715909958
1773047906502928000,6.186927978515625,9.172286987304688,6.32363224029541,-0.06999006122350693
1773047906512902700,6.196902587890625,8.794221878051758,6.108277797698975,-0.2709871530532837
1773047906522881000,6.206881103515625,8.123632431030273,5.9647088050842285,-0.45284169912338257
1773047906532856000,6.21685595703125,7.390830993652344,5.854638576507568,-0.6161518096923828
1773047906542834000,6.226833984375,6.629913330078125,5.73978328704834,-0.6879364848136902
1773047906552809500,6.2368095703125,5.854040622711182,5.711069583892822,-0.7166503667831421
1773047906562787300,6.246787353515625,5.260022163391113,5.792425632476807,-0.778863787651062
1773047906572764000,6.256763916015625,4.83888578414917,5.888138294219971,-0.7597211599349976
1773047906592717000,6.276717041015625,5.030311584472656,6.103492259979248,-0.4815555512905121
1773047906602693000,6.286693115234375,5.547759532928467,6.266204357147217,-0.357128769159317
1773047906612670200,6.296670166015625,6.476174354553223,6.38584566116333,-0.23748764395713806
1773047906622646500,6.306646484375,7.664210796356201,6.481558322906494,-0.09391828626394272
1773047906632623600,6.31662353515625,8.784649848937988,6.534798622131348,0.006580262444913387
1773047906642600000,6.326599853515625,9.751948356628418,6.438487529754639,0.13579268753528595
1773047906652576800,6.33657666015625,10.445867538452148,6.33798885345459,0.2841476798057556
1773047906662553000,6.346552978515625,10.800602912902832,6.309275150299072,0.29371899366378784
1773047906672530200,6.3565302734375,10.853245735168457,6.32363224029541,0.14057832956314087
1773047906682506500,6.366506591796875,10.642078399658203,6.132206439971924,0.10707881301641464
1773047906692483600,6.376483642578125,10.039087295532227,5.845067501068115,0.04007977992296219
1773047906702460000,6.3864599609375,9.19143009185791,5.605785369873047,-0.0891326442360878
1773047906712436700,6.396436767578125,8.248059272766113,5.467001438140869,-0.1657029688358307
1773047906722413300,6.406413330078125,7.371688365936279,5.351547718048096,-0.23748764395713806
1773047906732390100,6.41639013671875,6.596413612365723,5.2941203117370605,-0.2709871530532837
1773047906742366700,6.42636669921875,5.949753284454346,5.337191104888916,-0.37148571014404297
1773047906752343600,6.436343505859375,5.4759745597839355,5.519643783569336,-0.4289134442806244
1773047906762320100,6.446320068359375,5.236093997955322,5.792425632476807,-0.39062830805778503
1773047906772297000,6.456296875,5.240880012512207,6.069993019104004,-0.19920247793197632
1773047906782273500,6.4662734375,5.629115104675293,6.280561447143555,0.11665010452270508
1773047906792250400,6.47625048828125,6.222535133361816,6.476772785186768,0.5958128571510315
1773047906802227000,6.48622705078125,6.864409923553467,6.597012042999268,1.0887342691421509
1773047906812203500,6.49620361328125,7.323832035064697,6.687939167022705,1.4859428405761719
1773047906822180400,6.506180419921875,7.6977105140686035,6.774080753326416,1.835893154144287
1773047906832157000,6.516156982421875,8.090133666992188,6.798008918762207,2.1134605407714844
1773047906842133800,6.5261337890625,8.358129501342773,6.798008918762207,2.2857437133789062
1773047906852110300,6.5361103515625,8.535198211669922,6.750152587890625,2.3718855381011963
1773047906862087200,6.546087158203125,8.626724243164062,6.649653911590576,2.400599241256714
1773047906872063700,6.556063720703125,8.684151649475098,6.539584159851074,2.2331018447875977
1773047906882040300,6.566040283203125,8.617152214050293,6.457630157470703,1.9411773681640625
1773047906892017200,6.57601708984375,8.420342445373535,6.381059646606445,1.7306089401245117
1773047906901994000,6.585993896484375,8.214560508728027,6.318846225738525,1.4859428405761719
1773047906911970600,6.595970458984375,7.95134973526001,6.165705680847168,1.2610175609588623
1773047906921947100,6.605947021484375,7.70249605178833,5.9886369705200195,1.1270195245742798
1773047906931924000,6.615924072265625,7.472187042236328,5.854638576507568,1.00259268283844
1773047906941900500,6.625900634765625,7.280761241912842,5.725426197052002,0.9547362327575684
1773047906951877400,6.63587744140625,7.098906517028809,5.6344990730285645,0.973878800868988
1773047906961854000,6.64585400390625,6.940980434417725,5.60099983215332,0.9068797826766968
1773047906971830500,6.65583056640625,6.912266254425049,5.6823554039001465,0.7489534616470337
1773047906981807400,6.665807373046875,6.98405122756958,5.830710411071777,0.6005984544754028
1773047906991784000,6.675783935546875,7.1132636070251465,6.031707763671875,0.576670229434967
1773047907001760800,6.6857607421875,7.290332317352295,6.218348026275635,0.6628118753433228
1773047907011737300,6.6957373046875,7.453044414520264,6.433701992034912,0.7680960893630981
1773047907021714200,6.705714111328125,7.654639720916748,6.640082836151123,0.8638089895248413
1773047907031690800,6.715690673828125,7.841279983520508,6.783652305603027,1.0360921621322632
1773047907041667600,6.72566748046875,7.999206066131592,6.788437843322754,1.2801600694656372
1773047907051644200,6.73564404296875,8.09970474243164,6.716653347015381,1.5194423198699951
1773047907061621000,6.74562109375,8.166703224182129,6.64486837387085,1.6301103830337524
1773047907071597600,6.75559765625,8.15234661102295,6.678368091583252,1.5194423198699951
1773047907081574400,6.765574462890625,8.008777618408203,6.774080753326416,1.2801600694656372
1773047907091551000,6.775551025390625,7.841279983520508,6.831508636474609,1.1413763761520386
1773047907101527800,6.78552783203125,7.630711555480957,6.8410797119140625,1.0265209674835205
1773047907111504400,6.79550439453125,7.798209190368652,7.013363361358643,0.8398807644844055
1773047907121481200,6.805481201171875,7.913064479827881,7.16650390625,0.5862415432929993
1773047907131457800,6.815457763671875,8.271987915039062,7.204789161682129,0.2745763957500458
1773047907141434400,6.825434326171875,7.898707389831543,6.898507595062256,0.06400800496339798
1773047907151411200,6.8354111328125,7.984848976135254,6.6352972984313965,-0.37148571014404297
1773047907161387800,6.8453876953125,8.248059272766113,6.534798622131348,-0.625723123550415
1773047907171364600,6.855364501953125,8.023134231567383,6.409773826599121,-0.5443671345710754
1773047907181341200,6.865341064453125,7.822137355804443,6.002993583679199,-1.0516455173492432
1773047907191318000,6.875318115234375,7.549355506896973,6.031707763671875,-1.2095718383789062
1773047907201294600,6.885294677734375,7.1371917724609375,5.998208045959473,-1.1042876243591309
1773047907211271400,6.895271484375,6.806982040405273,5.754140377044678,-1.2861422300338745
1773047907221248000,6.905248046875,6.313462734222412,5.734997749328613,-1.2047861814498901
1773047907231224800,6.915224853515625,5.925825119018555,5.873781204223633,-1.2335001230239868
1773047907241201400,6.925201416015625,5.739185333251953,5.935994625091553,-1.1042876243591309
1773047907251178200,6.93517822265625,5.815755367279053,6.0125651359558105,-0.8123632669448853
1773047907261154800,6.94515478515625,6.165107727050781,6.15134859085083,-0.6640082597732544
1773047907271131600,6.955131591796875,6.6490559577941895,6.342774391174316,-0.5150550603866577
1773047907281108200,6.965108154296875,7.242475986480713,6.486343860626221,-0.26620152592658997
1773047907291084800,6.975084716796875,7.822137355804443,6.5874409675598145,-0.012562318705022335
1773047907301061600,6.9850615234375,8.310273170471191,6.620940208435059,0.26500511169433594
1773047907311038200,6.9950380859375,8.736793518066406,6.553941249847412,0.5623133182525635
1773047907321015000,7.00501513671875,9.09093189239502,6.471987247467041,0.7680960893630981
1773047907330991600,7.01499169921875,9.220144271850586,6.390631198883057,0.8303094506263733
1773047907340968400,7.024968505859375,9.157930374145508,6.328417778015137,0.6867401003837585
1773047907350945000,7.034945068359375,8.933005332946777,6.270989894866943,0.4181457459926605
1773047907360883000,7.044883056640625,8.50169849395752,6.089135646820068,0.1453639715909958
1773047907370855700,7.054855712890625,8.023134231567383,5.945566177368164,-0.12741780281066895
1773047907380875300,7.064875244140625,7.554141044616699,5.931209087371826,-0.357128769159317
1773047907390852600,7.0748525390625,7.0654072761535645,5.931209087371826,-0.5252245664596558
1773047907400828700,7.08482861328125,6.682555675506592,5.816353797912598,-0.5970092415809631
1773047907410806000,7.094805908203125,6.40438985824585,5.67756986618042,-0.6927221417427063
1773047907420782000,7.104781982421875,6.284748554229736,5.653641700744629,-0.836291491985321
1773047907430759200,7.11475927734375,6.313462734222412,5.67756986618042,-0.865005373954773
1773047907440696600,7.124696533203125,6.461817741394043,5.67756986618042,-0.745364248752594
1773047907450669800,7.134669921875,6.7351975440979,5.648856163024902,-0.6065805554389954
1773047907460650000,7.14464990234375,7.041478633880615,5.672784328460693,-0.5054838061332703
1773047907470623700,7.154623779296875,7.376473903656006,5.763711452484131,-0.41934216022491455
1773047907480603400,7.164603271484375,7.692924976348877,5.9886369705200195,-0.2805584669113159
1773047907490577700,7.17457763671875,8.01356315612793,6.184848308563232,-0.1178465187549591
1773047907500401700,7.184401611328125,8.367700576782227,6.26141881942749,0.12143574655056
1773047907510361000,7.194361083984375,8.631509780883789,6.309275150299072,0.5240281820297241
1773047907520471000,7.204470947265625,8.799007415771484,6.357131481170654,0.882951557636261
1773047907530445800,7.21444580078125,8.803792953491211,6.419344902038574,1.155733346939087
1773047907540463400,7.22446337890625,8.70807933807373,6.495915412902832,1.337587833404541
1773047907550442200,7.234442138671875,8.516056060791016,6.438487529754639,1.404586911201477
1773047907560322300,7.244322265625,8.291130065917969,6.352345943450928,1.3280165195465088
1773047907570182100,7.25418212890625,8.056633949279785,6.32363224029541,1.1700903177261353
1773047907580370200,7.2643701171875,7.802994728088379,6.223133563995361,0.9834501147270203
1773047907590352400,7.274352294921875,7.616354465484619,6.1226348876953125,0.7585247755050659
1773047907600323600,7.284323486328125,7.467401027679443,6.055635929107666,0.494716078042984
1773047907610304800,7.2943046875,7.371688365936279,5.993422508239746,0.2602194547653198
1773047907620238000,7.304238037109375,7.357331275939941,5.979065418243408,0.15493527054786682
1773047907630214700,7.314214599609375,7.33340311050415,5.955137252807617,0.1501496136188507
1773047907640152600,7.324152587890625,7.338188648223877,5.912066459655762,0.11665010452270508
1773047907650125300,7.334125244140625,7.376473903656006,5.916851997375488,0.07357929646968842
1773047907660067300,7.3440673828125,7.338188648223877,5.9647088050842285,0.13100704550743103
1773047907670036700,7.35403662109375,7.256833076477051,6.017350673675537,0.2602194547653198
1773047907679981800,7.36398193359375,7.261618614196777,6.007779598236084,0.26979073882102966
1773047907689949000,7.373948974609375,7.448258876800537,5.916851997375488,0.15493527054786682
1773047907699896600,7.383896484375,7.779066562652588,5.749354839324951,0.29371899366378784
1773047907709861600,7.393861572265625,8.008777618408203,5.969494342803955,0.14057832956314087
1773047907719811000,7.40381103515625,8.090133666992188,6.0508503913879395,0.020937198773026466
1773047907729774600,7.413774658203125,8.075776100158691,5.878567218780518,-0.0891326442360878
1773047907739725600,7.4237255859375,7.95134973526001,5.787639617919922,-0.20398813486099243
1773047907749687800,7.433687744140625,7.788637638092041,5.849853038787842,-0.3284149169921875
1773047907759679000,7.443678955078125,7.654639720916748,6.065207004547119,-0.3188436031341553
1773047907769644000,7.45364404296875,7.573283672332764,6.208776473999023,-0.2949153780937195
1773047907779516200,7.46351611328125,7.630711555480957,6.280561447143555,-0.2231307178735733
1773047907789472000,7.473471923828125,7.874779224395752,6.175277233123779,-0.06041877344250679
1773047907799430700,7.4834306640625,7.932207107543945,6.333203315734863,-0.39062830805778503
1773047907809386800,7.49338671875,8.094919204711914,6.56829833984375,-0.13698910176753998
1773047907819345200,7.50334521484375,8.482556343078613,6.419344902038574,0.025722842663526535
1773047907829301500,7.513301513671875,8.851649284362793,6.175277233123779,0.020937198773026466
1773047907839259600,7.523259765625,9.17707347869873,5.921638011932373,0.020937198773026466
1773047907849216300,7.53321630859375,9.19143009185791,5.955137252807617,-0.12741780281066895
1773047907859174400,7.54317431640625,9.033503532409668,5.912066459655762,0.06400800496339798
1773047907869131000,7.553131103515625,8.976076126098633,5.644070625305176,0.3032902777194977
1773047907879011800,7.56301171875,8.583653450012207,5.495715618133545,-0.09391828626394272
1773047907888960800,7.572960693359375,7.980063438415527,5.4765729904174805,-0.06999006122350693
1773047907898964500,7.582964599609375,7.606783390045166,5.462215900421143,0.3607180118560791
1773047907908919300,7.592919189453125,7.338188648223877,5.341976642608643,0.6532405614852905
1773047907919099100,7.60309912109375,7.199405193328857,5.164907455444336,0.7968099117279053
1773047907929279200,7.613279296875,7.055835723876953,5.346762180328369,0.6149554252624512
1773047907939459300,7.623459228515625,7.079763889312744,5.5722856521606445,1.093519926071167
1773047907949565000,7.63356494140625,7.357331275939941,5.711069583892822,1.5290136337280273
1773047907959523800,7.64352392578125,7.692924976348877,5.763711452484131,1.4333007335662842
1773047907969514800,7.6535146484375,8.142775535583496,5.830710411071777,1.1413763761520386
1773047907979477200,7.663477294921875,8.617152214050293,5.955137252807617,1.0121639966964722
1773047907989465600,7.673465576171875,9.023932456970215,6.0747785568237305,1.0600204467773438
1773047907999430700,7.6834306640625,9.325428009033203,6.055635929107666,1.1174482107162476
1773047908009416700,7.693416748046875,9.354142189025879,5.945566177368164,1.093519926071167
1773047908019384300,7.70338427734375,9.148359298706055,5.840281963348389,1.0648061037063599
1773047908029368300,7.713368408203125,8.799007415771484,5.715855121612549,1.074377417564392
1773047908039337700,7.723337646484375,8.511270523071289,5.529214859008789,1.2418749332427979
1773047908049320400,7.733320556640625,8.066205024719238,5.577071189880371,0.7872386574745178
1773047908059291100,7.743291015625,7.716853141784668,5.768496990203857,0.494716078042984
1773047908069272600,7.7532724609375,7.342974662780762,5.835496425628662,0.605384111404419
1773047908079244800,7.763244873046875,7.079763889312744,5.672784328460693,0.5623133182525635
1773047908089225200,7.77322509765625,6.883552551269531,5.5483574867248535,0.355932354927063
1773047908099198200,7.7831982421875,6.787839412689209,5.639284610748291,0.2554338276386261
1773047908109177900,7.793177734375,6.950551509857178,5.878567218780518,0.3080759048461914
1773047908119151600,7.803151611328125,7.228118896484375,6.103492259979248,0.2793620526790619
1773047908129130800,7.813130859375,7.716853141784668,6.2566328048706055,0.16929219663143158
1773047908139105300,7.823105224609375,8.372486114501953,6.342774391174316,0.2027917206287384
1773047908149084000,7.833083984375,8.995218276977539,6.318846225738525,0.3798605799674988
1773047908159058700,7.84305859375,9.473783493041992,6.1944193840026855,0.4612165689468384
1773047908169036800,7.853036865234375,9.6466646194458,6.026922225952148,0.494716078042984
1773047908179012000,7.86301220703125,9.704092025756836,5.935994625091553,0.5042873620986938
1773047908188990000,7.872989990234375,9.507282257080078,5.845067501068115,0.4372883439064026
1773047908198965500,7.882965576171875,8.96650505065918,5.687141418457031,0.2267199456691742
1773047908208943400,7.892943359375,8.391629219055176,5.49092960357666,0.06400800496339798
1773047908218823400,7.902823486328125,7.82692289352417,5.327619552612305,-0.07477571070194244
1773047908228640800,7.912640869140625,7.304689407348633,5.289334297180176,-0.20877377688884735
1773047908238820900,7.92282080078125,6.79741096496582,5.313262462615967,-0.2949153780937195
1773047908248854800,7.932854736328125,6.4426751136779785,5.332405090332031,-0.3762713670730591
1773047908258825700,7.94282568359375,6.27996301651001,5.351547718048096,-0.44805604219436646
1773047908268807200,7.95280712890625,6.289534091949463,5.413761138916016,-0.47676992416381836
1773047908278779400,7.962779296875,6.529414653778076,5.471786975860596,-0.5054838061332703
1773047908288759800,7.972759765625,6.897909641265869,5.5387864112854,-0.4815555512905121
1773047908298732800,7.98273291015625,7.323832035064697,5.562714576721191,-0.44805604219436646
1773047908308712400,7.99271240234375,7.688138961791992,5.624927997589111,-0.4145565330982208
1773047908318725000,8.00272509765625,8.01356315612793,5.667998790740967,-0.42412781715393066
1773047908328708000,8.0127080078125,8.171489715576172,5.648856163024902,-0.4289134442806244
1773047908338640000,8.022639892578125,8.161917686462402,5.696712493896484,-0.44327038526535034
1773047908348617700,8.03261767578125,8.047062873840332,5.773283004760742,-0.5252245664596558
1773047908358593300,8.04259326171875,7.903493404388428,5.825924873352051,-0.625723123550415
1773047908368571000,8.05257080078125,7.7455668449401855,5.830710411071777,-0.7022934556007385
1773047908378547000,8.062546875,7.549355506896973,5.830710411071777,-0.745364248752594
1773047908388524300,8.072524169921875,7.342974662780762,5.811567783355713,-0.8267202377319336
1773047908398500400,8.082500244140626,7.232904434204102,5.768496990203857,-0.9080761671066284
1773047908408477700,8.092477783203124,7.194619655609131,5.725426197052002,-0.9702895879745483
1773047908418357500,8.102357421875,7.218547821044922,5.672784328460693,-1.0372886657714844
1773047908428175000,8.112175048828124,7.2472615242004395,5.60099983215332,-1.042074203491211
1773047908438355200,8.122355224609375,7.2951178550720215,5.529214859008789,-1.0037890672683716
1773047908448389400,8.132389404296875,7.400402069091797,5.481358528137207,-0.9320043921470642
1773047908458269400,8.14226953125,7.510472297668457,5.467001438140869,-0.8602197170257568
1773047908468086000,8.1520859375,7.630711555480957,5.471786975860596,-0.7166503667831421
1773047908478081300,8.162081298828125,7.76470947265625,5.495715618133545,-0.5252245664596558
1773047908488043000,8.17204296875,7.893921852111816,5.60099983215332,-0.3284149169921875
1773047908498223000,8.18222314453125,8.008777618408203,5.715855121612549,-0.20398813486099243
1773047908508255700,8.192255859375,8.310273170471191,5.67756986618042,0.05922235921025276
1773047908518220800,8.202220703125,8.626724243164062,5.653641700744629,0.4325026869773865
1773047908528207000,8.21220703125,8.913862228393555,5.711069583892822,0.8733802437782288
1773047908538087200,8.222087158203125,9.186644554138184,5.749354839324951,1.1700903177261353
1773047908547903000,8.231903076171875,9.464211463928223,5.744568824768066,1.3040883541107178
1773047908557895000,8.24189501953125,9.617950439453125,5.701498031616211,1.3950155973434448
1773047908567859200,8.251859130859375,9.651450157165527,5.663212776184082,1.5726827383041382
1773047908577848300,8.261848388671876,9.637093544006348,5.639284610748291,1.6971094608306885
1773047908587815200,8.271815185546876,9.531210899353027,5.624927997589111,1.8167506456375122
1773047908597995000,8.2819951171875,9.387641906738281,5.644070625305176,1.9076778888702393
1773047908608027100,8.292027099609374,9.134002685546875,5.67756986618042,1.9698911905288696
1773047908617988400,8.30198828125,8.880363464355469,5.696712493896484,1.9938194751739502
1773047908627977500,8.3119775390625,8.655437469482422,5.6344990730285645,2.0416758060455322
1773047908637941800,8.321941650390626,8.46341323852539,5.620141983032227,2.11824631690979
1773047908647928600,8.331928466796874,8.26241683959961,5.629713535308838,2.0751755237579346
1773047908657895400,8.3418955078125,8.037490844726562,5.720640659332275,2.0129621028900146
1773047908667880200,8.351880126953125,7.898707389831543,5.840281963348389,2.0273189544677734
1773047908677849000,8.36184912109375,7.893921852111816,5.868995666503906,2.0368902683258057
1773047908687832000,8.37183203125,7.989634990692139,5.873781204223633,2.0273189544677734
1773047908697802500,8.381802490234374,8.104490280151367,5.821139335632324,1.984248161315918
1773047908707784400,8.391784423828126,8.142775535583496,5.749354839324951,1.8550357818603516
1773047908717756200,8.401756103515625,8.104490280151367,5.648856163024902,1.7018951177597046
1773047908727736800,8.41173681640625,8.02791976928711,5.55314302444458,1.495514154434204
1773047908737709600,8.42170947265625,7.932207107543945,5.43290376663208,1.2083754539489746
1773047908747689700,8.431689697265625,7.865208148956299,5.413761138916016,0.9547362327575684
1773047908757663200,8.441663330078125,7.812565803527832,5.423332691192627,0.7585247755050659
1773047908767642600,8.451642578125,7.822137355804443,5.394618511199951,0.5575276613235474
1773047908777522400,8.4615224609375,7.88913631439209,5.346762180328369,0.3607180118560791
1773047908787339800,8.47133984375,8.018348693847656,5.298905849456787,0.18843477964401245
1773047908797337300,8.48133740234375,8.142775535583496,5.217549800872803,0.01136590726673603
1773047908807297300,8.49129736328125,8.243273735046387,5.14576530456543,-0.13698910176753998
1773047908817477400,8.501477294921875,8.329415321350098,5.078765869140625,-0.3044866919517517
1773047908827510500,8.511510498046874,8.468199729919434,5.02133846282959,-0.5826523303985596
1773047908837477000,8.52147705078125,8.578866958618164,5.016552448272705,-0.8123632669448853
1773047908847462100,8.531462158203125,8.583653450012207,5.08355188369751,-0.9128618240356445
1773047908857430800,8.5414306640625,8.525627136230469,5.1840500831604,-0.9559326171875
1773047908867414000,8.5514140625,8.353343963623047,5.24626350402832,-1.0372886657714844
1773047908877384200,8.56138427734375,8.133204460144043,5.2941203117370605,-1.089930772781372
1773047908887366100,8.5713662109375,7.941778182983398,5.337191104888916,-1.0947163105010986
1773047908897337900,8.581337890625,7.774280548095703,5.4041900634765625,-1.1425727605819702
1773047908907318800,8.59131884765625,7.568498134613037,5.4041900634765625,-1.1282159090042114
1773047908917291300,8.601291259765626,7.381259441375732,5.37069034576416,-1.01814603805542
1773047908927271400,8.611271484375,7.2711896896362305,5.303691387176514,-0.8554341197013855
1773047908937245000,8.621244873046875,7.2089762687683105,5.265406131744385,-0.7166503667831421
1773047908947224300,8.631224365234376,7.180262565612793,5.236692428588867,-0.5443671345710754
1773047908957104400,8.6411044921875,7.228118896484375,5.303691387176514,-0.30927231907844543
1773047908966921700,8.650921630859376,7.371688365936279,5.394618511199951,-0.15134602785110474
1773047908976919300,8.660919189453125,7.635497093200684,5.456831932067871,-0.046061836183071136
1773047908986879200,8.670879150390626,7.999206066131592,5.486144065856934,0.19800607860088348
1773047908997059000,8.68105908203125,8.353343963623047,5.55314302444458,0.5042873620986938
1773047909007092200,8.69109228515625,8.698508262634277,5.586642742156982,0.6580262184143066
1773047909017058800,8.701058837890624,9.047860145568848,5.5483574867248535,0.672383189201355
1773047909027043800,8.7110439453125,9.34457015991211,5.534000396728516,0.5575276613235474
1773047909036924000,8.720923828125,9.425926208496094,5.55314302444458,0.26500511169433594
1773047909046740000,8.730739990234374,9.301499366760254,5.529214859008789,-0.01734796352684498
1773047909056920000,8.740920166015625,8.995218276977539,5.385047435760498,-0.18005990982055664
1773047909066953200,8.750953125,8.544769287109375,5.231906890869141,-0.1944168359041214
1773047909076919600,8.76091943359375,8.008777618408203,5.169693470001221,-0.05563312768936157
1773047909086904600,8.770904541015625,7.476972579956055,5.217549800872803,0.09272187948226929
1773047909096873200,8.780873291015626,6.99840784072876,5.270191669464111,0.2554338276386261
1773047909106856700,8.790856689453125,6.615556240081787,5.385047435760498,0.39421752095222473
1773047909116827000,8.800826904296875,6.485745906829834,5.562714576721191,0.5479564070701599
1773047909126808800,8.810808837890624,6.6490559577941895,5.792425632476807,0.8446664214134216
1773047909136689000,8.82068896484375,7.055835723876953,6.0125651359558105,1.1653046607971191
1773047909146505500,8.83050537109375,7.621140003204346,6.141777515411377,1.3471591472625732
1773047909156685600,8.840685546875,8.26241683959961,6.165705680847168,1.591825246810913
1773047909166719000,8.850718994140625,8.971290588378906,6.180062770843506,1.7688941955566406
1773047909176599000,8.86059912109375,9.583852767944336,6.189633846282959,1.7832510471343994
1773047909186415000,8.8704150390625,10.005587577819824,6.103492259979248,1.6636099815368652
1773047909196595200,8.88059521484375,10.220941543579102,5.916851997375488,1.4859428405761719
1773047909206628400,8.89062841796875,10.14437198638916,5.691926956176758,1.246660590171814
1773047909216594400,8.900594482421875,9.742377281188965,5.442475318908691,1.098305583000183
1773047909226579700,8.910579833984375,9.143573760986328,5.265406131744385,0.9595218896865845
1773047909236548000,8.920548095703126,8.425128936767578,5.126622676849365,0.7824530005455017
1773047909246531600,8.930531494140626,7.798209190368652,5.054837703704834,0.6532405614852905
1773047909256411600,8.94041162109375,7.33340311050415,4.983053207397461,0.494716078042984
1773047909266228000,8.95022802734375,7.036693096160889,4.95912504196167,0.32721850275993347
1773047909276222500,8.960222412109376,6.969694137573242,4.9399824142456055,0.26979073882102966
1773047909286185000,8.97018505859375,7.132406234741211,4.954339504241943,0.2745763957500458
1773047909296365000,8.980364990234374,7.443472862243652,5.0979084968566895,0.29371899366378784
1773047909306397700,8.990397705078125,7.908278942108154,5.284548759460449,0.2841476798057556
1773047909316362200,9.0003623046875,8.458627700805664,5.389832973480225,0.2602194547653198
1773047909326348800,9.010348876953126,9.038289070129395,5.4520463943481445,0.2793620526790619
1773047909336316000,9.02031591796875,9.583852767944336,5.467001438140869,0.3415754437446594
1773047909346300700,9.03030078125,9.952945709228516,5.49092960357666,0.4085744619369507
1773047909356269600,9.04026953125,10.096514701843262,5.447260856628418,0.42771705985069275
1773047909366252500,9.05025244140625,10.005587577819824,5.346762180328369,0.3032902777194977
1773047909376132600,9.060132568359375,9.665806770324707,5.274977684020996,0.12622138857841492
1773047909385991700,9.06999169921875,9.210572242736816,5.284548759460449,-0.06520441919565201
1773047909396176600,9.0801767578125,8.784649848937988,5.279763221740723,-0.2566302418708801
1773047909406161700,9.09016162109375,8.3629150390625,5.270191669464111,-0.5102694034576416
1773047909416130000,9.100130126953125,8.02791976928711,5.274977684020996,-0.6831508874893188
1773047909426113500,9.110113525390625,7.779066562652588,5.260620594024658,-0.6544370055198669
1773047909436083700,9.120083740234374,7.597211837768555,5.188836097717285,-0.6017948985099792
1773047909446066000,9.13006591796875,7.443472862243652,5.126622676849365,-0.534795880317688
1773047909456037400,9.140037353515625,7.390830993652344,5.150550842285156,-0.4863412082195282
1773047909466018300,9.150018310546875,7.376473903656006,5.14576530456543,-0.44805604219436646
1773047909475991000,9.159990966796874,7.424330234527588,5.193621635437012,-0.3810569941997528
1773047909485971200,9.16997119140625,7.554141044616699,5.255835056304932,-0.24227328598499298
1773047909495944700,9.17994482421875,7.726424217224121,5.289334297180176,-0.1178465187549591
1773047909505924000,9.189924072265624,7.82692289352417,5.289334297180176,-0.05563312768936157
1773047909515898400,9.1998984375,7.946564197540283,5.375475883483887,0.07357929646968842
1773047909525877200,9.209877197265625,8.018348693847656,5.43290376663208,0.13579268753528595
1773047909535851800,9.219851806640625,8.051848411560059,5.505286693572998,0.2027917206287384
1773047909545830400,9.229830322265625,8.161917686462402,5.562714576721191,0.1740778535604477
1773047909555805400,9.239805419921876,8.248059272766113,5.437689304351807,-0.07956135272979736
1773047909565783600,9.249783447265624,8.300702095031738,5.481358528137207,-0.13220344483852386
1773047909575758800,9.2597587890625,8.295916557312012,5.562714576721191,-0.06041877344250679
1773047909585737000,9.269737060546875,8.22413158416748,5.514857769012451,-0.0364905446767807
1773047909595616800,9.27961669921875,8.15234661102295,5.4520463943481445,-0.11306086927652359
1773047909605477000,9.28947705078125,8.056633949279785,5.456831932067871,-0.18484555184841156
1773047909615666000,9.299666015625,8.01356315612793,5.5005011558532715,-0.18484555184841156
1773047909625647900,9.30964794921875,8.056633949279785,5.505286693572998,-0.21355941891670227
1773047909635619600,9.31961962890625,8.161917686462402,5.505286693572998,-0.2183450609445572
1773047909645600300,9.329600341796874,8.252845764160156,5.495715618133545,-0.12263216078281403
1773047909655480300,9.339480224609375,8.329415321350098,5.471786975860596,0.01136590726673603
1773047909665340000,9.34933984375,8.396414756774902,5.467001438140869,0.18843477964401245
1773047909675332600,9.35933251953125,8.425128936767578,5.4520463943481445,0.37028929591178894
1773047909685296600,9.369296630859376,8.477770805358887,5.43290376663208,0.4420739710330963
1773047909695480000,9.37947998046875,8.539983749389648,5.418546676635742,0.5240281820297241
1773047909705466400,9.38946630859375,8.60758113861084,5.4281182289123535,0.5862415432929993
1773047909715434000,9.39943408203125,8.62193775177002,5.413761138916016,0.6293123364448547
1773047909725418200,9.409418212890625,8.626724243164062,5.418546676635742,0.672383189201355
1773047909735387400,9.419387451171875,8.602795600891113,5.4041900634765625,0.672383189201355
1773047909745370400,9.429370361328125,8.59322452545166,5.437689304351807,0.5910272002220154
1773047909755341000,9.439341064453124,8.574081420898438,5.423332691192627,0.4660021960735321
1773047909765322800,9.44932275390625,8.563912391662598,5.447260856628418,0.3655036687850952
1773047909775294700,9.459294677734375,8.520841598510742,5.456831932067871,0.2841476798057556
1773047909785275400,9.469275390625,8.434700012207031,5.442475318908691,0.24107688665390015
1773047909795248400,9.479248291015624,8.305487632751465,5.49092960357666,0.19800607860088348
1773047909805228300,9.489228271484375,8.128418922424316,5.60099983215332,0.12143574655056
1773047909815202000,9.4992021484375,7.975277900695801,5.715855121612549,0.09272187948226929
1773047909825181200,9.50918115234375,7.865208148956299,5.854638576507568,0.001794616924598813
1773047909835155500,9.519155517578126,7.76470947265625,5.945566177368164,-0.11306086927652359
1773047909845134300,9.52913427734375,7.654639720916748,6.089135646820068,-0.15613168478012085
1773047909855109000,9.539109130859375,7.539783954620361,6.285346984863281,-0.13698910176753998
1773047909865087500,9.54908740234375,7.409973621368408,6.424130439758301,-0.08434699475765228
1773047909875062800,9.559062744140626,7.280761241912842,6.544369697570801,-0.022133609279990196
1773047909885040600,9.56904052734375,7.223333358764648,6.697510719299316,0.030508488416671753
1773047909894920700,9.578920654296875,7.17069149017334,6.8554368019104,0.0687936544418335
1773047909904781000,9.588781005859374,7.1132636070251465,6.955935478210449,0.13579268753528595
1773047909914969900,9.598969970703125,7.055835723876953,7.022934436798096,0.2745763957500458
1773047909924951600,9.60895166015625,7.0462646484375,7.04207706451416,0.39421752095222473
1773047909934923500,9.618923583984374,7.094120979309082,7.027719974517822,0.42771705985069275
1773047909944904200,9.628904296875,7.070192813873291,6.97986364364624,0.5186443328857422
1773047909954877000,9.638876953125,7.0462646484375,6.898507595062256,0.6005984544754028
1773047909964857000,9.648857177734374,6.993622303009033,6.7692952156066895,0.6628118753433228
1773047909974830600,9.65883056640625,6.99840784072876,6.63051176071167,0.6101697683334351
1773047909984810000,9.66881005859375,7.0893354415893555,6.553941249847412,0.5718846321105957
1773047909994784300,9.6787841796875,7.118049144744873,6.52044153213501,0.5042873620986938
1773047910004763100,9.68876318359375,7.156334400177002,6.448058605194092,0.5186443328857422
1773047910014738000,9.698738037109376,7.252047061920166,6.342774391174316,0.5138586759567261
1773047910024716300,9.70871630859375,7.342974662780762,6.2566328048706055,0.3846462368965149
1773047910034691300,9.71869140625,7.481758117675781,6.227919101715088,0.31764721870422363
1773047910044669400,9.72866943359375,7.582854747772217,6.175277233123779,0.3032902777194977
1773047910054645000,9.73864501953125,7.6498541831970215,6.079564094543457,0.34636107087135315
1773047910064622800,9.748622802734374,7.7216386795043945,5.9407806396484375,0.3798605799674988
1773047910074503000,9.7585029296875,7.735995769500732,5.835496425628662,0.4372883439064026
1773047910084363300,9.76836328125,7.759923934936523,5.778068542480469,0.47557350993156433
1773047910094358000,9.77835791015625,7.740781307220459,5.768496990203857,0.4899304509162903
1773047910104320300,9.7883203125,7.731209754943848,5.792425632476807,0.5575276613235474
1773047910114505700,9.798505615234374,7.76470947265625,5.849853038787842,0.638883650302887
1773047910124490200,9.808490234375,7.740781307220459,5.912066459655762,0.6197410821914673
1773047910134459100,9.818459228515625,7.712067604064941,6.0125651359558105,0.638883650302887
1773047910144442400,9.8284423828125,7.630711555480957,6.127420425415039,0.672383189201355
1773047910154322400,9.838322509765625,7.621140003204346,6.223133563995361,0.6963114142417908
1773047910164181500,9.848181396484375,7.601997375488281,6.333203315734863,0.6867401003837585
1773047910174366500,9.858366455078125,7.659425258636475,6.501298904418945,0.7585247755050659
1773047910184351500,9.8683515625,7.793423175811768,6.625725746154785,0.6963114142417908
1773047910194320100,9.878320068359375,7.869993686676025,6.668796539306641,0.6245267391204834
1773047910204303400,9.888303466796875,8.023134231567383,6.6352972984313965,0.6484549641609192
1773047910214273500,9.8982734375,8.142775535583496,6.58265495300293,0.7393822073936462
1773047910224255700,9.908255859375,8.228917121887207,6.501298904418945,0.8207381963729858
1773047910234227200,9.918227294921875,8.219346046447754,6.404987812042236,0.8877372145652771
1773047910244208400,9.92820849609375,8.109275817871094,6.251847267150879,0.8925228714942932
1773047910254088200,9.938088134765625,7.960920810699463,6.089135646820068,0.8303094506263733
1773047910263947800,9.94794775390625,7.82692289352417,5.974279880523682,0.7345965504646301
1773047910274134300,9.95813427734375,7.678567886352539,5.921638011932373,0.6963114142417908
1773047910284118000,9.968117919921875,7.544569969177246,5.878567218780518,0.6867401003837585
1773047910293998000,9.977998046875,7.414759159088135,5.849853038787842,0.7058826684951782
1773047910303857200,9.987857177734375,7.323832035064697,5.86421012878418,0.6771687865257263
1773047910314041600,9.99804150390625,7.2711896896362305,5.9264235496521,0.576670229434967
1773047910324027000,10.00802685546875,7.242475986480713,5.9886369705200195,0.5288137793540955
1773047910333995000,10.0179951171875,7.2472615242004395,6.084349632263184,0.6197410821914673
1773047910343979000,10.02797900390625,7.290332317352295,6.13699197769165,0.6819544434547424
1773047910353948700,10.03794873046875,7.376473903656006,6.1944193840026855,0.6915257573127747
1773047910363931100,10.04793115234375,7.476972579956055,6.280561447143555,0.7154539823532104
1773047910373902300,10.05790234375,7.491329669952393,6.381059646606445,0.7393822073936462
1773047910383883800,10.0678837890625,7.524828910827637,6.409773826599121,0.8303094506263733
1773047910393856000,10.07785595703125,7.630711555480957,6.40020227432251,0.8303094506263733
1773047910403836400,10.08783642578125,7.731209754943848,6.433701992034912,0.7872386574745178
1773047910413809700,10.0978095703125,7.88913631439209,6.424130439758301,0.729810893535614
1773047910423789300,10.107789306640624,7.994420528411865,6.376274108886719,0.7154539823532104
1773047910433763300,10.117763427734374,7.984848976135254,6.318846225738525,0.7058826684951782
1773047910443742500,10.127742431640625,7.893921852111816,6.26141881942749,0.6867401003837585
1773047910453717000,10.137717041015625,7.76470947265625,6.2566328048706055,0.5910272002220154
1773047910463695400,10.1476953125,7.573283672332764,6.2566328048706055,0.5186443328857422
1773047910473670400,10.15767041015625,7.409973621368408,6.251847267150879,0.42293140292167664
1773047910483648800,10.167648681640625,7.338188648223877,6.237490653991699,0.3607180118560791
1773047910493528800,10.17752880859375,7.304689407348633,6.208776473999023,0.355932354927063
1773047910503389000,10.187388916015625,7.2711896896362305,6.223133563995361,0.3846462368965149
1773047910513577500,10.197577392578125,7.261618614196777,6.280561447143555,0.494716078042984
1773047910523559400,10.207559326171875,7.280761241912842,6.309275150299072,0.5575276613235474
1773047910533531100,10.21753125,7.357331275939941,6.280561447143555,0.6580262184143066
1773047910543512000,10.227511962890626,7.539783954620361,6.242276191711426,0.672383189201355
1773047910553484800,10.23748486328125,7.76470947265625,6.242276191711426,0.6915257573127747
1773047910563465000,10.24746484375,7.8795647621154785,6.247061729431152,0.7728816866874695
1773047910573438500,10.2574384765625,7.936992645263672,6.19920539855957,0.9116654396057129
1773047910583417900,10.26741796875,7.908278942108154,6.141777515411377,0.9978070259094238
1773047910593391900,10.277391845703125,7.8317084312438965,6.103492259979248,1.007378339767456
1773047910603371000,10.28737109375,7.76470947265625,6.13699197769165,0.9499505758285522
1773047910613345500,10.297345458984376,7.712067604064941,6.180062770843506,0.8446664214134216
1773047910623324200,10.30732421875,7.692924976348877,6.1704912185668945,0.7920243144035339
1773047910633299200,10.31729931640625,7.70249605178833,6.165705680847168,0.7680960893630981
1773047910643277300,10.32727734375,7.6737823486328125,6.189633846282959,0.7585247755050659
1773047910653252900,10.3372529296875,7.597211837768555,6.26141881942749,0.7537391185760498
1773047910663230700,10.347230712890624,7.467401027679443,6.309275150299072,0.7680960893630981
1773047910673206500,10.35720654296875,7.33340311050415,6.318846225738525,0.7680960893630981
1773047910683184000,10.36718408203125,7.275975227355957,6.328417778015137,0.7010970115661621
1773047910693160000,10.377159912109375,7.328617572784424,6.347560405731201,0.638883650302887
1773047910703137500,10.387137451171874,7.45782995223999,6.404987812042236,0.638883650302887
1773047910713113600,10.397113525390624,7.549355506896973,6.457630157470703,0.6867401003837585
1773047910723091000,10.407091064453125,7.64028263092041,6.395416736602783,0.7393822073936462
1773047910733067300,10.4170673828125,7.635497093200684,6.342774391174316,0.7728816866874695
1773047910743044400,10.42704443359375,7.616354465484619,6.381059646606445,0.7441678643226624
1773047910753020700,10.437020751953124,7.601997375488281,6.357131481170654,0.729810893535614
1773047910762998000,10.446998046875,7.6498541831970215,6.304489612579346,0.7250252366065979
1773047910772877800,10.4568779296875,7.6977105140686035,6.251847267150879,0.6915257573127747
1773047910782738200,10.46673828125,7.735995769500732,6.19920539855957,0.6436693072319031
1773047910792734000,10.47673388671875,7.664210796356201,6.180062770843506,0.6197410821914673
1773047910802695400,10.4866953125,7.510472297668457,6.203990936279297,0.6005984544754028
1773047910812881400,10.49688134765625,7.366902828216553,6.218348026275635,0.5718846321105957
1773047910822865700,10.50686572265625,7.299903869628906,6.203990936279297,0.5335994362831116
1773047910832835000,10.5168349609375,7.390830993652344,6.180062770843506,0.48514479398727417
1773047910842817800,10.52681787109375,7.505686283111572,6.189633846282959,0.48035913705825806
1773047910852788700,10.536788818359375,7.530212879180908,6.218348026275635,0.5527420043945312
1773047910862770200,10.546770263671876,7.554141044616699,6.223133563995361,0.672383189201355
1773047910872742100,10.5567421875,7.568498134613037,6.227919101715088,0.7106683254241943
1773047910882722800,10.566722900390625,7.5637125968933105,6.247061729431152,0.7585247755050659
1773047910892695800,10.57669580078125,7.587640762329102,6.294918060302734,0.7250252366065979
1773047910902675700,10.58667578125,7.678567886352539,6.33798885345459,0.672383189201355
1773047910912649500,10.5966494140625,7.817351341247559,6.309275150299072,0.6580262184143066
1773047910922628900,10.60662890625,7.893921852111816,6.285346984863281,0.672383189201355
1773047910932603100,10.61660302734375,7.956135272979736,6.309275150299072,0.6771687865257263
1773047910942581800,10.626581787109375,7.927421569824219,6.342774391174316,0.6867401003837585
1773047910952461800,10.6364619140625,7.802994728088379,6.318846225738525,0.729810893535614
1773047910962321700,10.64632177734375,7.735995769500732,6.280561447143555,0.6963114142417908
1773047910972510000,10.656510009765626,7.735995769500732,6.266204357147217,0.6149554252624512
1773047910982492400,10.666492431640625,7.716853141784668,6.270989894866943,0.5910272002220154
1773047910992463600,10.676463623046875,7.606783390045166,6.294918060302734,0.5862415432929993
1773047911002444800,10.68644482421875,7.510472297668457,6.290132522583008,0.6532405614852905
1773047911012417300,10.696417236328125,7.39561653137207,6.27577543258667,0.7154539823532104
1773047911022397700,10.706397705078125,7.261618614196777,6.280561447143555,0.729810893535614
1773047911032371000,10.716370849609374,7.189833641052246,6.304489612579346,0.6628118753433228
1773047911042350600,10.7263505859375,7.1611199378967285,6.342774391174316,0.6197410821914673
1773047911052324600,10.73632470703125,7.204190731048584,6.347560405731201,0.6245267391204834
1773047911062303700,10.7463037109375,7.309474945068359,6.309275150299072,0.6197410821914673
1773047911072278300,10.7562783203125,7.386045455932617,6.357131481170654,0.6101697683334351
1773047911082257000,10.7662568359375,7.405188083648682,6.40020227432251,0.6867401003837585
1773047911092231700,10.776231689453125,7.390830993652344,6.424130439758301,0.7776673436164856
1773047911102210000,10.7862099609375,7.352545738220215,6.371488571166992,0.8446664214134216
1773047911112185300,10.796185302734376,7.405188083648682,6.361917018890381,0.7920243144035339
1773047911122163200,10.8061630859375,7.554141044616699,6.333203315734863,0.7250252366065979
1773047911132139000,10.816138916015625,7.6977105140686035,6.342774391174316,0.6819544434547424
1773047911142116600,10.82611669921875,7.8317084312438965,6.366703033447266,0.7202396392822266
1773047911152093400,10.836093505859376,7.8795647621154785,6.342774391174316,0.7728816866874695
1773047911172046800,10.856046875,7.70249605178833,6.2566328048706055,0.7154539823532104
1773047911182023000,10.86602294921875,7.616354465484619,6.314060688018799,0.6771687865257263
1773047911192000300,10.876000244140625,7.544569969177246,6.33798885345459,0.5862415432929993
1773047911201976600,10.8859765625,7.582854747772217,6.314060688018799,0.5623133182525635
1773047911211954000,10.895953857421874,7.57806921005249,6.27577543258667,0.6245267391204834
1773047911221930200,10.90593017578125,7.57806921005249,6.270989894866943,0.605384111404419
1773047911231907300,10.9159072265625,7.530212879180908,6.318846225738525,0.5670989751815796
1773047911241883600,10.925883544921875,7.472187042236328,6.342774391174316,0.5431707501411438
1773047911251860700,10.93586083984375,7.438687324523926,6.318846225738525,0.5042873620986938
1773047911261837300,10.94583740234375,7.453044414520264,6.299703598022461,0.39900317788124084
1773047911271814400,10.955814453125,7.549355506896973,6.333203315734863,0.32721850275993347
1773047911281791000,10.965791015625,7.558926582336426,6.347560405731201,0.35114672780036926
1773047911291767800,10.975767822265626,7.549355506896973,6.395416736602783,0.40378883481025696
1773047911301744400,10.985744384765624,7.443472862243652,6.328417778015137,0.48514479398727417
1773047911311721500,10.995721435546875,7.381259441375732,6.299703598022461,0.5718846321105957
1773047911321698000,11.005697998046875,7.366902828216553,6.357131481170654,0.50907301902771
1773047911331675000,11.0156748046875,7.376473903656006,6.424130439758301,0.47557350993156433
1773047911341651700,11.025651611328126,7.467401027679443,6.4289164543151855,0.5042873620986938
1773047911351628500,11.035628662109374,7.597211837768555,6.409773826599121,0.50907301902771
1773047911361566500,11.04556640625,7.678567886352539,6.381059646606445,0.5383850932121277
1773047911371539500,11.05553955078125,7.659425258636475,6.38584566116333,0.6340979933738708
1773047911381558800,11.065558837890626,7.534998416900635,6.438487529754639,0.6867401003837585
1773047911391536400,11.075536376953124,7.462615489959717,6.414559364318848,0.7154539823532104
1773047911401512400,11.085512451171875,7.462615489959717,6.357131481170654,0.6963114142417908
1773047911411489800,11.09548974609375,7.52004337310791,6.32363224029541,0.605384111404419
1773047911421465900,11.1054658203125,7.5637125968933105,6.333203315734863,0.5623133182525635
1773047911431443200,11.115443115234376,7.539783954620361,6.361917018890381,0.5862415432929993
1773047911441419500,11.12541943359375,7.45782995223999,6.309275150299072,0.6436693072319031
1773047911451396900,11.13539697265625,7.376473903656006,6.280561447143555,0.6628118753433228
1773047911461334300,11.145334228515624,7.342974662780762,6.270989894866943,0.6101697683334351
1773047911471307500,11.1553076171875,7.414759159088135,6.314060688018799,0.5240281820297241
1773047911481326600,11.16532666015625,7.544569969177246,6.33798885345459,0.5240281820297241
1773047911491304400,11.175304443359375,7.664210796356201,6.33798885345459,0.5479564070701599
1773047911501280300,11.1852802734375,7.755138397216797,6.347560405731201,0.50907301902771
1773047911511257900,11.1952578125,7.740781307220459,6.366703033447266,0.494716078042984
1773047911521234000,11.20523388671875,7.678567886352539,6.438487529754639,0.5623133182525635
1773047911531211300,11.215211181640624,7.582854747772217,6.495915412902832,0.6771687865257263
1773047911541187600,11.2251875,7.52004337310791,6.46241569519043,0.6963114142417908
1773047911551165000,11.2351650390625,7.558926582336426,6.409773826599121,0.6867401003837585
1773047911561141000,11.24514111328125,7.659425258636475,6.414559364318848,0.6580262184143066
1773047911571118300,11.255118408203124,7.678567886352539,6.457630157470703,0.7058826684951782
1773047911581094700,11.2650947265625,7.57806921005249,6.404987812042236,0.7250252366065979
1773047911591071700,11.27507177734375,7.476972579956055,6.328417778015137,0.729810893535614
1773047911601048300,11.28504833984375,7.376473903656006,6.294918060302734,0.6915257573127747
1773047911611025200,11.295025146484376,7.314260482788086,6.333203315734863,0.48035913705825806
1773047911621001700,11.305001708984374,7.2951178550720215,6.395416736602783,0.39900317788124084
1773047911630978800,11.314978759765625,7.323832035064697,6.366703033447266,0.389431893825531
1773047911640955400,11.324955322265625,7.438687324523926,6.318846225738525,0.389431893825531
1773047911650932500,11.334932373046875,7.510472297668457,6.333203315734863,0.3798605799674988
1773047911660908800,11.34490869140625,7.486543655395508,6.376274108886719,0.4133601188659668
1773047911670886000,11.354885986328124,7.381259441375732,6.443273067474365,0.48035913705825806
1773047911680862500,11.364862548828125,7.285546779632568,6.448058605194092,0.5042873620986938
1773047911690839300,11.37483935546875,7.256833076477051,6.4289164543151855,0.4995017349720001
1773047911700816100,11.384816162109376,7.342974662780762,6.438487529754639,0.45643091201782227
1773047911710793000,11.39479296875,7.414759159088135,6.448058605194092,0.48514479398727417
1773047911720769800,11.404769775390625,7.453044414520264,6.471987247467041,0.5718846321105957
1773047911730746600,11.41474658203125,7.433901786804199,6.457630157470703,0.638883650302887
1773047911740684300,11.424684326171874,7.429116249084473,6.404987812042236,0.6628118753433228
1773047911750657300,11.4346572265625,7.476972579956055,6.4289164543151855,0.6436693072319031
1773047911760638000,11.444637939453125,7.534998416900635,6.419344902038574,0.6436693072319031
1773047911770611700,11.45461181640625,7.654639720916748,6.414559364318848,0.6101697683334351
1773047911780591600,11.464591552734374,7.788637638092041,6.352345943450928,0.5479564070701599
1773047911790566000,11.47456591796875,7.860422611236572,6.290132522583008,0.4612165689468384
1773047911800545000,11.484544921875,7.8077802658081055,6.309275150299072,0.4085744619369507
1773047911810519800,11.494519775390625,7.64028263092041,6.32363224029541,0.4181457459926605
1773047911820498700,11.504498779296876,7.467401027679443,6.357131481170654,0.47557350993156433
1773047911830474000,11.514473876953126,7.352545738220215,6.381059646606445,0.4372883439064026
1773047911840452400,11.524452392578125,7.366902828216553,6.38584566116333,0.4085744619369507
1773047911850428000,11.534427978515625,7.390830993652344,6.424130439758301,0.4085744619369507
1773047911860444700,11.544444580078125,7.419544696807861,6.467201232910156,0.45164528489112854
1773047911870424300,11.55442431640625,7.424330234527588,6.481558322906494,0.5288137793540955
1773047911880398000,11.564398193359375,7.405188083648682,6.46241569519043,0.5862415432929993
1773047911890377200,11.574377197265624,7.419544696807861,6.486343860626221,0.6340979933738708
1773047911900313000,11.58431298828125,7.45782995223999,6.52044153213501,0.6293123364448547
1773047911910287600,11.59428759765625,7.481758117675781,6.5252275466918945,0.6532405614852905
1773047911920227800,11.604227783203125,7.544569969177246,6.481558322906494,0.6245267391204834
1773047911930199000,11.614198974609375,7.558926582336426,6.424130439758301,0.5527420043945312
1773047911940142600,11.624142578125,7.500900745391846,6.424130439758301,0.5240281820297241
1773047911950111000,11.634111083984376,7.376473903656006,6.443273067474365,0.5288137793540955
1773047911959991000,11.643990966796874,7.218547821044922,6.419344902038574,0.5431707501411438
1773047911969870800,11.653870849609374,7.1611199378967285,6.366703033447266,0.5814558863639832
1773047911979971800,11.663971923828125,7.199405193328857,6.318846225738525,0.5042873620986938
1773047911989938200,11.673938232421875,7.2711896896362305,6.318846225738525,0.4420739710330963
1773047911999886600,11.683886474609375,7.338188648223877,6.357131481170654,0.4612165689468384
1773047912009851100,11.69385107421875,7.371688365936279,6.381059646606445,0.5186443328857422
1773047912020031000,11.704031005859376,7.429116249084473,6.381059646606445,0.5718846321105957
1773047912030076400,11.714076416015626,7.453044414520264,6.46241569519043,0.5186443328857422
1773047912039956500,11.72395654296875,7.500900745391846,6.52044153213501,0.5042873620986938
1773047912049836500,11.73383642578125,7.534998416900635,6.606583118438721,0.494716078042984
1773047912059716400,11.74371630859375,7.731209754943848,6.5874409675598145,0.39421752095222473
1773047912069600500,11.7536005859375,7.884350776672363,6.573083877563477,0.45164528489112854
1773047912079506400,11.76350634765625,7.917850017547607,6.5491557121276855,0.48035913705825806
1773047912089470200,11.77347021484375,7.817351341247559,6.544369697570801,0.5240281820297241
1773047912099421200,11.783421142578124,7.6737823486328125,6.544369697570801,0.5958128571510315
1773047912109383700,11.7933837890625,7.491329669952393,6.448058605194092,0.5718846321105957
1773047912119336000,11.8033359375,7.342974662780762,6.376274108886719,0.5042873620986938
1773047912129297400,11.81329736328125,7.290332317352295,6.357131481170654,0.47557350993156433
1773047912139250700,11.823250732421876,7.213762283325195,6.309275150299072,0.4660021960735321
1773047912149211400,11.83321142578125,7.132406234741211,6.266204357147217,0.4995017349720001
1773047912159126800,11.843126708984375,7.079763889312744,6.2566328048706055,0.5670989751815796
1773047912169083000,11.853082763671875,7.0654072761535645,6.294918060302734,0.5431707501411438
1773047912179003000,11.8630029296875,7.098906517028809,6.33798885345459,0.5138586759567261
1773047912188955400,11.872955322265625,7.1850481033325195,6.4289164543151855,0.4707878530025482
1773047912198956000,11.8829560546875,7.342974662780762,6.457630157470703,0.4899304509162903
1773047912208913400,11.892913330078125,7.491329669952393,6.438487529754639,0.50907301902771
1773047912219093500,11.903093505859376,7.597211837768555,6.486343860626221,0.5527420043945312
1773047912229273300,11.9132734375,7.57806921005249,6.558726787567139,0.6340979933738708
1773047912239453400,11.923453369140624,7.505686283111572,6.606583118438721,0.7010970115661621
1773047912249559000,11.93355908203125,7.472187042236328,6.597012042999268,0.7920243144035339
1773047912259515600,11.943515625,7.510472297668457,6.5252275466918945,0.7441678643226624
1773047912269508600,11.953508544921876,7.582854747772217,6.510870456695557,0.6245267391204834
1773047912279469300,11.96346923828125,7.6737823486328125,6.534798622131348,0.6245267391204834
1773047912289459200,11.973459228515624,7.712067604064941,6.457630157470703,0.7202396392822266
1773047912299423000,11.983423095703126,7.611568927764893,6.357131481170654,0.7106683254241943
1773047912309410000,11.99341015625,7.481758117675781,6.328417778015137,0.6245267391204834
1773047912319376600,12.003376708984375,7.390830993652344,6.32363224029541,0.5335994362831116
1773047912329361700,12.013361572265625,7.338188648223877,6.357131481170654,0.4660021960735321
1773047912339330300,12.023330322265625,7.376473903656006,6.381059646606445,0.45643091201782227
1773047912349313800,12.033313720703125,7.438687324523926,6.404987812042236,0.48514479398727417
1773047912359284000,12.043283935546874,7.558926582336426,6.33798885345459,0.5527420043945312
1773047912369266000,12.053265869140626,7.57806921005249,6.376274108886719,0.45643091201782227
1773047912379237600,12.063237548828125,7.524828910827637,6.476772785186768,0.4372883439064026
1773047912389218600,12.073218505859375,7.544569969177246,6.501298904418945,0.4707878530025482
1773047912399191000,12.08319091796875,7.558926582336426,6.404987812042236,0.48035913705825806
1773047912409171200,12.093171142578125,7.592426300048828,6.381059646606445,0.4707878530025482
1773047912419144700,12.103144775390625,7.625925540924072,6.390631198883057,0.5186443328857422
1773047912429124000,12.1131240234375,7.630711555480957,6.366703033447266,0.5288137793540955
1773047912439098400,12.123098388671876,7.597211837768555,6.328417778015137,0.5670989751815796
1773047912449077200,12.1330771484375,7.453044414520264,6.352345943450928,0.5718846321105957
1773047912459051800,12.1430517578125,7.371688365936279,6.395416736602783,0.4612165689468384
1773047912469030400,12.153030517578125,7.280761241912842,6.443273067474365,0.355932354927063
1773047912479005400,12.16300537109375,7.232904434204102,6.4289164543151855,0.26979073882102966
1773047912488983600,12.172983642578124,7.275975227355957,6.419344902038574,0.19800607860088348
1773047912498959000,12.182958984375,7.323832035064697,6.433701992034912,0.21236300468444824
1773047912508937000,12.19293701171875,7.328617572784424,6.433701992034912,0.24107688665390015
1773047912518912500,12.20291259765625,7.237690448760986,6.457630157470703,0.3128615617752075
1773047912528890400,12.212890380859376,7.074978351593018,6.433701992034912,0.4899304509162903
1773047912538866200,12.2228662109375,6.940980434417725,6.390631198883057,0.729810893535614
1773047912548843800,12.23284375,7.012764930725098,6.366703033447266,0.763310432434082
1773047912558819800,12.24281982421875,6.993622303009033,6.270989894866943,0.7010970115661621
1773047912568797200,12.252797119140626,6.98405122756958,6.342774391174316,0.7537391185760498
1773047912578773200,12.262773193359376,7.180262565612793,6.32363224029541,0.8255237936973572
1773047912588750600,12.27275048828125,7.328617572784424,6.242276191711426,0.9978070259094238
1773047912598727000,12.282726806640625,7.582854747772217,6.342774391174316,1.1509476900100708
1773047912608704000,12.2927041015625,7.850851058959961,6.452844619750977,1.2610175609588623
1773047912618680600,12.3026806640625,8.109275817871094,6.491129398345947,1.2562319040298462
1773047912628657700,12.31265771484375,8.405985832214355,6.457630157470703,1.1318050622940063
1773047912638634000,12.322634033203125,8.59322452545166,6.467201232910156,0.9260223507881165
1773047912648611000,12.332611083984375,8.660223007202148,6.5491557121276855,0.672383189201355
1773047912658587600,12.342587646484375,8.631509780883789,6.6113691329956055,0.4181457459926605
1773047912668564500,12.352564453125,8.410771369934082,6.56829833984375,0.16450655460357666
1773047912678541000,12.362541015625,8.056633949279785,6.553941249847412,0.01615155301988125
1773047912688518100,12.37251806640625,7.922635555267334,6.697510719299316,0.025722842663526535
1773047912698398200,12.382398193359375,7.8077802658081055,6.5491557121276855,-0.18963119387626648
1773047912708258600,12.392258544921875,7.539783954620361,6.304489612579346,-0.29012975096702576
1773047912718448000,12.4024482421875,7.299903869628906,6.242276191711426,-0.09870393574237823
1773047912728429300,12.41242919921875,7.127620220184326,6.266204357147217,0.18364913761615753
1773047912738401800,12.42240185546875,6.926623344421387,6.227919101715088,0.2745763957500458
1773047912748382000,12.4323818359375,6.749554634094238,6.251847267150879,0.2841476798057556
1773047912758355500,12.44235546875,6.663413047790527,6.33798885345459,0.26500511169433594
1773047912768334800,12.4523349609375,6.6729841232299805,6.438487529754639,0.2315055876970291
1773047912778308900,12.462308837890625,6.917052268981934,6.491129398345947,0.2267199456691742
1773047912788288000,12.4722880859375,7.175477027893066,6.553941249847412,0.4325026869773865
1773047912798262500,12.482262451171875,7.371688365936279,6.52044153213501,0.5527420043945312
1773047912808241200,12.4922412109375,7.510472297668457,6.510870456695557,0.5186443328857422
1773047912818216000,12.5022158203125,7.558926582336426,6.471987247467041,0.6149554252624512
1773047912828194300,12.5121943359375,7.453044414520264,6.357131481170654,0.7010970115661621
1773047912838169600,12.522169677734375,7.232904434204102,6.304489612579346,0.6628118753433228
1773047912848147700,12.532147705078126,7.022336483001709,6.242276191711426,0.7872386574745178
1773047912858123300,12.542123291015624,6.840481758117676,6.160920143127441,0.8638089895248413
1773047912868101000,12.55210107421875,6.792625427246094,6.079564094543457,0.7489534616470337
1773047912877981000,12.56198095703125,6.869195461273193,6.046064376831055,0.6675975322723389
1773047912887841300,12.57184130859375,7.079763889312744,6.002993583679199,0.5527420043945312
1773047912898030300,12.5820302734375,7.400402069091797,6.007779598236084,0.5138586759567261
1773047912908011800,12.59201171875,7.716853141784668,6.036493301391602,0.5670989751815796
1773047912917983700,12.601983642578125,8.061419486999512,6.108277797698975,0.5138586759567261
1773047912927964400,12.61196435546875,8.396414756774902,5.983851432800293,0.3655036687850952
1773047912937937400,12.6219375,8.655437469482422,5.955137252807617,0.4468596279621124
1773047912947917300,12.631917236328125,8.84207820892334,6.117849349975586,0.42293140292167664
1773047912957891000,12.64189111328125,8.918647766113281,6.1944193840026855,0.2027917206287384
1773047912967870200,12.6518701171875,8.822935104370117,6.1465630531311035,-0.0891326442360878
1773047912977750300,12.661750244140626,8.73200798034668,6.113063812255859,-0.33798620104789734
1773047912987610000,12.671610107421875,8.650651931762695,6.160920143127441,-0.778863787651062
1773047912997798100,12.681798095703124,8.391629219055176,6.266204357147217,-1.26699960231781
1773047913007780600,12.691780517578126,8.02791976928711,6.32363224029541,-1.6600207090377808
1773047913017751800,12.701751708984375,7.597211837768555,6.414559364318848,-2.0572292804718018
1773047913027733200,12.711733154296875,7.141977310180664,6.495915412902832,-2.3060827255249023
1773047913037705200,12.721705322265626,6.7447686195373535,6.495915412902832,-2.310868501663208
1773047913047685600,12.731685546875,6.4666032791137695,6.342774391174316,-2.090728759765625
1773047913057697800,12.74169775390625,6.236892223358154,6.304489612579346,-1.8897316455841064
1773047913067681500,12.751681640625,6.0741801261901855,6.1944193840026855,-1.5397813320159912
1773047913077612500,12.761612548828126,6.0263237953186035,6.031707763671875,-1.0372886657714844
1773047913087591000,12.7715908203125,6.102894306182861,6.0125651359558105,-0.5443671345710754
1773047913097566000,12.78156591796875,6.332605361938477,6.036493301391602,-0.046061836183071136
1773047913107544000,12.7915439453125,6.658627033233643,6.084349632263184,0.50907301902771
1773047913117519600,12.80151953125,7.084549427032471,6.184848308563232,0.9930213689804077
1773047913127497500,12.81149755859375,7.554141044616699,6.328417778015137,1.4093725681304932
1773047913137473300,12.821473388671874,8.042277336120605,6.4289164543151855,1.74496591091156
1773047913147451000,12.831450927734375,8.425128936767578,6.501298904418945,2.0416758060455322
1773047913157427000,12.841427001953125,8.674580574035645,6.476772785186768,2.2857437133789062
1773047913167404300,12.851404296875,8.81814956665039,6.448058605194092,2.4675984382629395
1773047913177284400,12.861284423828126,8.861220359802246,6.419344902038574,2.640479803085327
1773047913187144400,12.87114453125,8.775078773498535,6.395416736602783,2.7122645378112793
1773047913197140000,12.881139892578124,8.578866958618164,6.285346984863281,2.572882652282715
1773047913207101700,12.891101806640625,8.391629219055176,6.15134859085083,2.3096721172332764
1773047913217287400,12.901287353515626,8.267202377319336,6.165705680847168,1.8741782903671265
1773047913227271700,12.911271728515626,8.142775535583496,6.165705680847168,1.3710874319076538
1773047913237240800,12.92124072265625,7.975277900695801,6.079564094543457,0.9978070259094238
1773047913247223800,12.931223876953124,7.755138397216797,6.036493301391602,0.7058826684951782
1773047913257194500,12.941194580078125,7.539783954620361,6.046064376831055,0.4468596279621124
1773047913267176200,12.95117626953125,7.386045455932617,6.079564094543457,0.22193430364131927
1773047913277148200,12.961148193359374,7.256833076477051,6.113063812255859,0.07836493849754333
1773047913287128800,12.97112890625,7.151548862457275,6.113063812255859,0.04486542567610741
1773047913297101800,12.981101806640625,7.084549427032471,6.0987067222595215,0.025722842663526535
1773047913307081700,12.991081787109374,7.118049144744873,6.0508503913879395,-0.01734796352684498
1773047913317055200,13.00105517578125,7.223333358764648,6.065207004547119,-0.10348957777023315
1773047913327034600,13.01103466796875,7.266404151916504,6.117849349975586,-0.20877377688884735
1773047913337009000,13.0210087890625,7.2711896896362305,6.189633846282959,-0.3188436031341553
1773047913346987800,13.03098779296875,7.362117290496826,6.218348026275635,-0.39541393518447876
1773047913356962600,13.040962646484376,7.486543655395508,6.2327046394348145,-0.42412781715393066
1773047913366941000,13.05094091796875,7.582854747772217,6.218348026275635,-0.36670008301734924
1773047913376821000,13.060821044921875,7.779066562652588,6.237490653991699,-0.23270200192928314
1773047913386680800,13.070680908203125,7.893921852111816,6.251847267150879,-0.1417747437953949
1773047913396869600,13.08086962890625,7.917850017547607,6.251847267150879,-0.16091732680797577
1773047913406851600,13.0908515625,7.9657063484191895,6.189633846282959,-0.11306086927652359
1773047913416823000,13.100822998046874,7.999206066131592,6.1704912185668945,-0.046061836183071136
1773047913426804200,13.11080419921875,7.956135272979736,6.132206439971924,0.10229317098855972
1773047913436776700,13.120776611328125,7.908278942108154,6.0508503913879395,0.3080759048461914
1773047913446756900,13.1307568359375,7.841279983520508,6.026922225952148,0.45643091201782227
1773047913456730400,13.14073046875,7.779066562652588,6.026922225952148,0.5042873620986938
1773047913466709800,13.150709716796875,7.740781307220459,6.041278839111328,0.4707878530025482
1773047913476684000,13.16068408203125,7.6737823486328125,6.069993019104004,0.4420739710330963
1773047913486663000,13.170662841796876,7.664210796356201,6.0508503913879395,0.48035913705825806
1773047913496637700,13.1806376953125,7.70249605178833,6.055635929107666,0.5718846321105957
1773047913506616000,13.190615966796875,7.7216386795043945,6.079564094543457,0.6628118753433228
1773047913516591000,13.200591064453125,7.76470947265625,6.1465630531311035,0.7250252366065979
1773047913526569500,13.210569580078126,7.654639720916748,6.218348026275635,0.7393822073936462
1773047913536544800,13.220544677734376,7.500900745391846,6.1704912185668945,0.8733802437782288
1773047913546522600,13.230522705078124,7.414759159088135,6.141777515411377,0.9930213689804077
1773047913556498400,13.24049853515625,7.386045455932617,6.203990936279297,1.0121639966964722
1773047913566476000,13.25047607421875,7.453044414520264,6.208776473999023,0.9499505758285522
1773047913586429400,13.270429443359374,7.692924976348877,6.103492259979248,1.0887342691421509
1773047913596309500,13.2803095703125,7.76470947265625,6.184848308563232,0.9499505758285522
