time,seconds_elapsed,z,y,x
1773047900566750000,0.25075,0,0,0
1773047900596767000,0.28076708984375,0.020171642303466797,0.05714273452758789,-0.1364040970802307
1773047900616714000,0.3007138671875,0.044786930084228516,0.14942455291748047,-0.4945008158683777
1773047900626688800,0.310688720703125,0.14581012725830078,0.05075407028198242,-0.43527865409851074
1773047900636665900,0.320665771484375,0.23286151885986328,-0.1604175567626953,-0.4413716793060303
1773047900646642000,0.330641845703125,0.21362018585205078,-0.23789405822753906,-0.2954748868942261
1773047900656618800,0.34061865234375,0.17955780029296875,-0.3520073890686035,-0.05157661437988281
1773047900666595000,0.350594970703125,0.08172988891601562,-0.4481325149536133,0.07221674919128418
1773047900676571600,0.360571533203125,-0.0387730598449707,-0.31651926040649414,-0.05298316478729248
1773047900686451700,0.37045166015625,-0.1606755256652832,-0.19683074951171875,0.0413975715637207
1773047900696331800,0.380331787109375,-0.28566884994506836,0.06972265243530273,0.021278560161590576
1773047900706499000,0.3904990234375,-0.3474578857421875,0.22153043746948242,0.252204954624176
1773047900716552000,0.400552001953125,-0.39639759063720703,0.33587169647216797,0.48912766575813293
1773047900736446000,0.420446044921875,-0.05542421340942383,0.35953617095947266,0.37443652749061584
1773047900746325800,0.43032568359375,0.1833333969116211,0.24857282638549805,0.6025013327598572
1773047900756205800,0.440205810546875,0.4804654121398926,0.14702844619750977,0.9267394542694092
1773047900766127900,0.4501279296875,0.7863469123840332,0.18033885955810547,1.1605510711669922
1773047900776086500,0.46008642578125,1.0307908058166504,0.33623552322387695,1.201789379119873
1773047900786266600,0.4702666015625,1.2915782928466797,0.4669532775878906,1.206027626991272
1773047900796379000,0.48037890625,1.4464302062988281,0.5265316963195801,1.2301695346832275
1773047900806266600,0.4902666015625,1.4733037948608398,0.4478445053100586,0.9274193048477173
1773047900816261400,0.500261474609375,1.432866096496582,0.3685755729675293,0.41222500801086426
1773047900826220000,0.510219970703125,1.2354850769042969,0.3801255226135254,0.314432829618454
1773047900836200400,0.520200439453125,0.9910159111022949,0.43875646591186523,0.4834522604942322
1773047900846173400,0.53017333984375,0.8424158096313477,0.6735715866088867,0.6104304790496826
1773047900856150800,0.54015087890625,0.5731949806213379,0.7228641510009766,0.7146591544151306
1773047900866126600,0.550126708984375,0.3016080856323242,0.4220271110534668,0.7847956418991089
1773047900876103200,0.560103271484375,0.13146591186523438,0.4188656806945801,0.5765730738639832
1773047900886079700,0.570079833984375,-0.011604785919189453,0.417574405670166,0.34659069776535034
1773047900896056300,0.580056396484375,0.020268917083740234,0.5015687942504883,0.23690438270568848
1773047900906033000,0.590032958984375,0.08710813522338867,0.6360960006713867,0.3886472284793854
1773047900916009500,0.600009521484375,-0.008373260498046875,0.6019301414489746,0.34977981448173523
1773047900925889300,0.60988916015625,-0.16468095779418945,0.5205569267272949,0.15551133453845978
1773047900935707000,0.619706787109375,-0.13722610473632812,0.545438289642334,-0.29257524013519287
1773047900945706200,0.629706298828125,-0.01277923583984375,0.37269067764282227,-0.4434210956096649
1773047900955664400,0.639664306640625,0.1589803695678711,0.3249783515930176,-0.3957265615463257
1773047900965659100,0.6496591796875,0.4932546615600586,0.3858609199523926,-0.45644745230674744
1773047900975620900,0.659620849609375,1.0157136917114258,0.7018365859985352,-0.8380740284919739
1773047900985801000,0.669801025390625,1.625734806060791,1.1729283332824707,-1.0078034400939941
1773047900995833300,0.679833251953125,2.1909122467041016,1.5208816528320312,-1.269965410232544
1773047901005798100,0.689798095703125,2.5484719276428223,1.5250558853149414,-1.6568048000335693
1773047901015784200,0.6997841796875,2.641627311706543,1.2595386505126953,-1.7769744396209717
1773047901025751300,0.709751220703125,2.5977067947387695,0.9457869529724121,-1.8655998706817627
1773047901035735600,0.719735595703125,2.3868446350097656,0.6358652114868164,-2.0051920413970947
1773047901045615600,0.72961572265625,2.0016469955444336,-0.04490375518798828,-1.6289546489715576
1773047901055431400,0.739431396484375,1.715674877166748,-0.8959212303161621,-0.8654511570930481
1773047901065425000,0.7494248046875,1.1240830421447754,-1.019240379333496,-0.09377959370613098
1773047901075388000,0.759387939453125,0.4351921081542969,-0.6976227760314941,0.400481253862381
1773047901085567700,0.769567626953125,0.02022838592529297,-0.6049323081970215,0.7772925496101379
1773047901095600000,0.77960009765625,-0.2131948471069336,-0.5275688171386719,0.9270757436752319
1773047901105564000,0.78956396484375,-0.46270227432250977,-0.29439687728881836,0.8505398035049438
1773047901115550500,0.799550537109375,-0.6606879234313965,-0.1964550018310547,0.40960365533828735
1773047901125517000,0.80951708984375,-0.8722586631774902,-0.17675161361694336,-0.18476472795009613
1773047901135501800,0.819501708984375,-1.0375628471374512,0.026121139526367188,-0.7328453063964844
1773047901145382000,0.8293818359375,-1.088437557220459,0.21733808517456055,-0.9904093742370605
1773047901155197400,0.839197509765625,-1.02740478515625,0.3454723358154297,-0.9429916143417358
1773047901165377500,0.84937744140625,-0.9358196258544922,0.3684730529785156,-0.7405475378036499
1773047901175410200,0.85941015625,-0.9331727027893066,0.2652730941772461,-0.611963152885437
1773047901185376500,0.86937646484375,-0.9275274276733398,0.16882562637329102,-0.5206487774848938
1773047901195361300,0.879361328125,-0.805046558380127,0.2716078758239746,-0.4728993773460388
1773047901205329700,0.88932958984375,-0.63677978515625,0.41859960556030273,-0.3810978829860687
1773047901215313000,0.89931298828125,-0.4366602897644043,0.35851192474365234,-0.29802343249320984
1773047901225282800,0.90928271484375,-0.1661210060119629,0.12638139724731445,-0.28487756848335266
1773047901235264800,0.9192646484375,0.015200138092041016,0.020494461059570312,-0.3114137053489685
1773047901245236000,0.929236083984375,-0.016600608825683594,0.09865283966064453,-0.2899486720561981
1773047901255217000,0.939216796875,-0.24390554428100586,0.1078639030456543,-0.16259419918060303
1773047901265189000,0.949189208984375,-0.37792491912841797,-0.005961894989013672,-0.10995763540267944
1773047901275169000,0.9591689453125,-0.37436628341674805,0.0009131431579589844,-0.2644737958908081
1773047901285181200,0.96918115234375,-0.28289031982421875,0.10361289978027344,-0.5017831921577454
1773047901295164400,0.979164306640625,-0.1459040641784668,0.07777547836303711,-0.5473248362541199
1773047901305044500,0.98904443359375,-0.13255691528320312,-0.10905742645263672,-0.5195152759552002
1773047901314924300,0.99892431640625,-0.26480722427368164,-0.17127561569213867,-0.6029106974601746
1773047901325048600,1.009048583984375,-0.2455916404724121,-0.2315044403076172,-0.7899875044822693
1773047901335031600,1.019031494140625,-0.24273204803466797,-0.10045862197875977,-1.0479114055633545
1773047901345001700,1.029001708984375,-0.17879676818847656,0.010334968566894531,-1.0991071462631226
1773047901354983400,1.0389833984375,-0.10582351684570312,0.010665416717529297,-1.1075016260147095
1773047901364955000,1.048954833984375,-0.13718128204345703,-0.013393878936767578,-1.1658384799957275
1773047901374935600,1.058935546875,-0.25827884674072266,0.0713510513305664,-1.2713829278945923
1773047901384908000,1.068907958984375,-0.1472787857055664,-0.01495981216430664,-0.9856524467468262
1773047901394888000,1.078887939453125,-0.02288818359375,-0.22905445098876953,-0.4965798854827881
1773047901404767700,1.088767822265625,0.059178829193115234,-0.12528705596923828,-0.4885789752006531
1773047901414627000,1.098626953125,0.17568206787109375,0.10300970077514648,-0.7374340295791626
1773047901424814000,1.10881396484375,0.14709711074829102,0.2502436637878418,-0.8435025811195374
1773047901444767500,1.128767578125,-0.3406081199645996,0.07118892669677734,-0.8200417757034302
1773047901454749000,1.1387490234375,-0.5682964324951172,-0.035356998443603516,-0.8443444967269897
1773047901464720600,1.148720703125,-0.6304054260253906,0.1455059051513672,-0.7991503477096558
1773047901474701300,1.158701416015625,-0.5582246780395508,0.2136826515197754,-0.5532670021057129
1773047901484673800,1.168673828125,-0.40125608444213867,0.12842941284179688,-0.4209262728691101
1773047901494653400,1.1786533203125,-0.21727752685546875,0.14265203475952148,-0.4278293251991272
1773047901504627000,1.188626953125,-0.043981075286865234,0.23133373260498047,-0.39151543378829956
1773047901514606000,1.198606201171875,0.02530956268310547,0.1842060089111328,-0.18845844268798828
1773047901524580000,1.208580078125,0.20188665390014648,0.05824422836303711,-0.06019008159637451
1773047901534558700,1.218558837890625,0.38606834411621094,0.00038051605224609375,-0.11000460386276245
1773047901544438800,1.228438720703125,0.5590977668762207,0.057030677795410156,-0.1568121314048767
1773047901554298000,1.238298095703125,0.48445749282836914,0.03706979751586914,-0.1443602442741394
1773047901564486100,1.248486083984375,0.5525455474853516,-0.0863637924194336,-0.1517537236213684
1773047901574468400,1.25846826171875,0.6788191795349121,-0.6890006065368652,0.4630037546157837
1773047901584439300,1.268439208984375,0.670067310333252,-1.1287665367126465,0.8753498196601868
1773047901594420500,1.27842041015625,0.6930294036865234,-0.2686343193054199,-0.49275073409080505
1773047901604300300,1.28830029296875,0.4517989158630371,0.3314242362976074,-0.9611355066299438
1773047901614159400,1.298159423828125,0.15790462493896484,0.3228425979614258,-0.8319951295852661
1773047901624345600,1.308345703125,-0.04507160186767578,0.293212890625,-1.1735342741012573
1773047901634329300,1.318329345703125,-0.2897810935974121,0.08423089981079102,-0.8651885986328125
1773047901644209400,1.32820947265625,-0.36011409759521484,-0.23877239227294922,-0.6275795698165894
1773047901654067700,1.338067626953125,-0.26224327087402344,-0.33312320709228516,-0.6041854619979858
1773047901664252000,1.348251953125,-0.09683799743652344,-0.22486639022827148,-0.567528486251831
1773047901674237200,1.3582373046875,0.10457515716552734,-0.1691422462463379,-0.4288133978843689
1773047901704070400,1.3880703125,0.5415163040161133,-0.09523344039916992,-0.2578960657119751
1773047901713928400,1.397928466796875,0.4879732131958008,0.011051177978515625,-0.29345008730888367
1773047901723917000,1.4079169921875,0.39454126358032227,0.047776222229003906,-0.2628803551197052
1773047901733884000,1.4178837890625,0.3503556251525879,0.09283256530761719,-0.25611600279808044
1773047901743870200,1.4278701171875,0.3583235740661621,0.09525871276855469,-0.22499972581863403
1773047901753838800,1.4378388671875,0.38991212844848633,0.036084651947021484,-0.2024325728416443
1773047901764017400,1.448017333984375,0.36565589904785156,-0.028449535369873047,-0.16772711277008057
1773047901774007300,1.45800732421875,0.2820744514465332,-0.17023515701293945,-0.1864745020866394
1773047901783970600,1.467970458984375,0.19118118286132812,-0.2551736831665039,-0.2988349199295044
1773047901793958000,1.4779580078125,0.0871419906616211,-0.22107362747192383,-0.363802969455719
1773047901803838000,1.487837890625,0.03552818298339844,-0.2484455108642578,-0.3674221336841583
1773047901813695700,1.49769580078125,-0.0070037841796875,-0.27954721450805664,-0.3606826961040497
1773047901823682800,1.507682861328125,0.010821819305419922,-0.26607179641723633,-0.35876235365867615
1773047901833651000,1.51765087890625,0.09750795364379883,-0.1842184066772461,-0.37252673506736755
1773047901843830000,1.527830078125,0.16263198852539062,-0.13936948776245117,-0.38265570998191833
1773047901853819400,1.5378193359375,0.26377201080322266,-0.18853378295898438,-0.3975701332092285
1773047901863783200,1.547783203125,0.42575740814208984,-0.30007505416870117,-0.44475939869880676
1773047901873770000,1.55777001953125,0.5616927146911621,-0.3391451835632324,-0.47950294613838196
1773047901883736600,1.567736572265625,0.6120829582214355,-0.3410205841064453,-0.501072883605957
1773047901893721300,1.577721435546875,0.6029596328735352,-0.3119988441467285,-0.5615073442459106
1773047901903601400,1.587601318359375,0.5159869194030762,-0.3041520118713379,-0.6868463158607483
1773047901913459500,1.59745947265625,0.41266489028930664,-0.24572992324829102,-0.7510111331939697
1773047901923448800,1.60744873046875,0.3163638114929199,-0.2407522201538086,-0.7219089269638062
1773047901933415200,1.617415283203125,0.22221660614013672,-0.3070716857910156,-0.7745134234428406
1773047901943401700,1.627401611328125,0.14817142486572266,-0.3250904083251953,-0.8661050796508789
1773047901953370400,1.637370361328125,0.09804201126098633,-0.35170984268188477,-0.8936076760292053
1773047901963549000,1.647548828125,0.1424560546875,-0.34949350357055664,-0.8250538110733032
1773047901973538800,1.657538818359375,0.13901901245117188,-0.34278154373168945,-0.7409819960594177
1773047901983502300,1.66750244140625,0.1358013153076172,-0.425992488861084,-0.6651473641395569
1773047901993489400,1.677489501953125,0.11883926391601562,-0.43762969970703125,-0.6014766097068787
1773047902003369200,1.687369140625,0.022459030151367188,-0.4306015968322754,-0.4733998775482178
1773047902013227000,1.69722705078125,-0.11974096298217773,-0.36217832565307617,-0.375892698764801
1773047902023214300,1.70721435546875,-0.22803115844726562,-0.29828882217407227,-0.31771010160446167
1773047902033182200,1.71718212890625,-0.21895170211791992,-0.2757906913757324,-0.3304797410964966
1773047902043167500,1.72716748046875,-0.08538484573364258,-0.2842597961425781,-0.34235644340515137
1773047902053137200,1.73713720703125,0.0584712028503418,-0.2628359794616699,-0.3304148316383362
1773047902063314700,1.747314697265625,0.19945526123046875,-0.2413797378540039,-0.28165197372436523
1773047902073305300,1.757305419921875,0.22992849349975586,-0.2299032211303711,-0.26767343282699585
1773047902083268000,1.76726806640625,0.20748090744018555,-0.23699426651000977,-0.14242517948150635
1773047902093256000,1.777255859375,0.2593522071838379,-0.28982019424438477,-0.02500927448272705
1773047902103135700,1.7871357421875,0.4313774108886719,-0.42985963821411133,-0.06470745801925659
1773047902112993500,1.79699365234375,0.6329174041748047,-0.5669245719909668,-0.11724048852920532
1773047902122980400,1.80698046875,0.8503751754760742,-0.6362490653991699,-0.11354780197143555
1773047902132948700,1.81694873046875,0.9248514175415039,-0.602806568145752,-0.11274808645248413
1773047902142933200,1.826933349609375,0.7041010856628418,-0.5067009925842285,-0.05353820323944092
1773047902152903400,1.8369033203125,0.5308537483215332,-0.5359973907470703,0.08886456489562988
1773047902163080700,1.847080810546875,0.4077725410461426,-0.5978236198425293,0.16394731402397156
1773047902173071600,1.857071533203125,0.28136682510375977,-0.5212273597717285,0.13630419969558716
1773047902183033900,1.867033935546875,0.1508498191833496,-0.43490171432495117,0.08219102025032043
1773047902193022000,1.87702197265625,0.1703200340270996,-0.3988804817199707,0.12024983763694763
1773047902202902000,1.886902099609375,0.33642005920410156,-0.4302372932434082,0.1512385904788971
1773047902212759600,1.896759521484375,0.6286029815673828,-0.4908294677734375,0.14751854538917542
1773047902222940200,1.906940185546875,0.9236845970153809,-0.5767078399658203,0.09123411774635315
1773047902232928300,1.91692822265625,1.0923147201538086,-0.6381583213806152,-0.026542216539382935
1773047902242808300,1.926808349609375,1.1707205772399902,-0.6909961700439453,-0.13596418499946594
1773047902252665900,1.936665771484375,1.1989545822143555,-0.7411117553710938,-0.25788095593452454
1773047902262846500,1.946846435546875,1.1217446327209473,-0.7325577735900879,-0.2847508192062378
1773047902272834800,1.956834716796875,0.9505038261413574,-0.7231988906860352,-0.2853890061378479
1773047902282799900,1.9667998046875,0.6532764434814453,-0.6937689781188965,-0.3180517852306366
1773047902292785700,1.97678564453125,0.3343524932861328,-0.6243886947631836,-0.30743473768234253
1773047902302753000,1.9867529296875,0.08654499053955078,-0.5985903739929199,-0.290155827999115
1773047902312737000,1.996737060546875,0.04890632629394531,-0.6567907333374023,-0.21654412150382996
1773047902322706200,2.0067060546875,-0.04103279113769531,-0.5618419647216797,-0.16731008887290955
1773047902332689000,2.01668896484375,0.050855159759521484,-0.44612550735473633,-0.10313111543655396
1773047902342659600,2.02665966796875,0.05368661880493164,-0.5224995613098145,0.10624268651008606
1773047902352640800,2.036640869140625,0.20629262924194336,-0.3704056739807129,0.005675196647644043
1773047902362612700,2.04661279296875,0.5227665901184082,-0.047943115234375,-0.1539243757724762
1773047902372593200,2.05659326171875,0.5728750228881836,0.0546722412109375,-0.21058398485183716
1773047902382566000,2.06656591796875,0.6096014976501465,0.017339229583740234,-0.27651670575141907
1773047902392545500,2.076545654296875,0.6425037384033203,0.016757965087890625,-0.3693675696849823
1773047902402519300,2.086519287109375,0.6432890892028809,0.04307842254638672,-0.4735891819000244
1773047902412498200,2.096498291015625,0.5040602684020996,0.06294441223144531,-0.5714480876922607
1773047902422472400,2.106472412109375,0.2652587890625,0.010060787200927734,-0.4514762759208679
1773047902432450800,2.116450927734375,0.0558018684387207,-0.15213966369628906,-0.39019644260406494
1773047902442425600,2.126425537109375,-0.1908869743347168,-0.2051692008972168,-0.4492378830909729
1773047902452403700,2.13640380859375,-0.4746732711791992,-0.15516185760498047,-0.5480194091796875
1773047902462378800,2.146378662109375,-0.6926770210266113,-0.16735506057739258,-0.5035560131072998
1773047902472356600,2.156356689453125,-0.7711338996887207,-0.15063190460205078,-0.3496391773223877
1773047902482332200,2.166332275390625,-0.8074073791503906,0.07430601119995117,-0.36633437871932983
1773047902492309800,2.176309814453125,-0.9034938812255859,0.0918121337890625,-0.3048051595687866
1773047902502285300,2.186285400390625,-0.8054518699645996,0.048155784606933594,-0.20620542764663696
1773047902512262700,2.1962626953125,-0.6293148994445801,-0.01313161849975586,-0.05267590284347534
1773047902522238500,2.206238525390625,-0.431884765625,-0.021866321563720703,0.08785489201545715
1773047902532215800,2.2162158203125,-0.21727943420410156,-0.08806657791137695,0.17007359862327576
1773047902542191600,2.226191650390625,0.0806722640991211,-0.1783456802368164,0.09612113237380981
1773047902552168700,2.236168701171875,0.386629581451416,-0.1809253692626953,0.0631057620048523
1773047902562144800,2.246144775390625,0.5658421516418457,-0.10877609252929688,0.12537097930908203
1773047902572121900,2.256121826171875,0.6344375610351562,-0.20329904556274414,0.09120866656303406
1773047902582098200,2.26609814453125,0.655390739440918,-0.39090633392333984,0.07195216417312622
1773047902592075000,2.276074951171875,0.719813346862793,-0.4118075370788574,-0.019513458013534546
1773047902602051300,2.28605126953125,0.7988996505737305,-0.4243497848510742,-0.07337683439254761
1773047902612028200,2.296028076171875,0.8646306991577148,-0.4198288917541504,-0.16146183013916016
1773047902622004500,2.30600439453125,0.8285865783691406,-0.36190176010131836,-0.30373522639274597
1773047902631981300,2.315981201171875,0.6501870155334473,-0.3178062438964844,-0.4324498474597931
1773047902641957600,2.32595751953125,0.44350624084472656,-0.30020999908447266,-0.5311077237129211
1773047902651934500,2.3359345703125,0.2923097610473633,-0.35883617401123047,-0.38761675357818604
1773047902661911000,2.3459111328125,0.2041015625,-0.35448741912841797,-0.2469959855079651
1773047902671887600,2.3558876953125,0.13807153701782227,-0.3048567771911621,-0.2756443917751312
1773047902681864200,2.3658642578125,0.2300262451171875,-0.33269834518432617,-0.2590746581554413
1773047902691841000,2.375841064453125,0.27215099334716797,-0.38696861267089844,-0.15858608484268188
1773047902701817300,2.3858173828125,0.22025346755981445,-0.4363522529602051,-0.08117532730102539
1773047902711794200,2.395794189453125,0.2594003677368164,-0.4856257438659668,-0.16472280025482178
1773047902721770800,2.405770751953125,0.3363819122314453,-0.4597053527832031,-0.1352643072605133
1773047902731747300,2.415747314453125,0.4088454246520996,-0.29443931579589844,0.0886964201927185
1773047902741724000,2.425723876953125,0.4110555648803711,-0.11922740936279297,0.11605715751647949
1773047902751700500,2.435700439453125,0.4649624824523926,-0.045574188232421875,-0.00543627142906189
1773047902761677000,2.445677001953125,0.5781288146972656,-0.05672931671142578,-0.08320674300193787
1773047902771654000,2.45565380859375,0.6606736183166504,-0.06705570220947266,-0.06456655263900757
1773047902781630500,2.46563037109375,0.7470912933349609,-0.13406038284301758,-0.03319576382637024
1773047902791607000,2.47560693359375,0.8664536476135254,-0.17766952514648438,-0.08198496699333191
1773047902801583600,2.48558349609375,0.9461908340454102,-0.20678091049194336,-0.1832345426082611
1773047902811560200,2.495560302734375,0.9052362442016602,-0.20144176483154297,-0.327421635389328
1773047902821536800,2.505536865234375,0.7209749221801758,-0.23424196243286133,-0.3877337574958801
1773047902831513600,2.515513671875,0.45531511306762695,-0.2377324104309082,-0.5064486265182495
1773047902841490200,2.525490234375,0.19323110580444336,-0.23481178283691406,-0.6204429864883423
1773047902851466800,2.535466796875,-0.09055900573730469,-0.2144155502319336,-0.6447166800498962
1773047902861365800,2.54536572265625,-0.35912513732910156,-0.24180126190185547,-0.6691741943359375
1773047902871334700,2.555334716796875,-0.5517315864562988,-0.2914443016052246,-0.6061153411865234
1773047902881396500,2.565396484375,-0.6213212013244629,-0.32460975646972656,-0.4632312059402466
1773047902891374800,2.575374755859375,-0.5962443351745605,-0.2658367156982422,-0.4440687298774719
1773047902901350000,2.585349853515625,-0.6390514373779297,-0.2206130027770996,-0.46505647897720337
1773047902911327700,2.59532763671875,-0.7684078216552734,-0.30828142166137695,-0.40752553939819336
1773047902921303000,2.605302978515625,-0.8745908737182617,-0.322965145111084,-0.3488374352455139
1773047902931281000,2.615281005859375,-0.9487528800964355,-0.19767093658447266,-0.34773778915405273
1773047902941256400,2.62525634765625,-0.896143913269043,-0.05640554428100586,-0.3755503296852112
1773047902951233800,2.63523388671875,-0.7609806060791016,0.10640144348144531,-0.29921579360961914
1773047902961054500,2.645054443359375,-0.5586371421813965,0.14376115798950195,-0.13775086402893066
1773047902971016200,2.65501611328125,-0.3319215774536133,0.07025432586669922,0.06708192825317383
1773047902981162800,2.665162841796875,-0.12758207321166992,0.028562068939208984,0.2525186836719513
1773047902991143400,2.675143310546875,0.09888267517089844,-0.011530876159667969,0.35537561774253845
1773047903001116000,2.685115966796875,0.2913188934326172,-0.1132664680480957,0.40689584612846375
1773047903011095800,2.695095703125,0.5206775665283203,-0.19890308380126953,0.29024407267570496
1773047903021069300,2.7050693359375,0.7437644004821777,-0.2665128707885742,0.19991324841976166
1773047903031048400,2.71504833984375,0.7920117378234863,-0.27979469299316406,0.13915076851844788
1773047903041022500,2.7250224609375,0.6830534934997559,-0.24050235748291016,0.07185383141040802
1773047903051001000,2.7350009765625,0.5313410758972168,-0.17663049697875977,-0.011158645153045654
1773047903060975900,2.744975830078125,0.350191593170166,-0.20931529998779297,-0.031140416860580444
1773047903070954000,2.7549541015625,0.20045995712280273,-0.33115053176879883,-0.019855141639709473
1773047903080890400,2.764890380859375,0.1093449592590332,-0.3515629768371582,-0.0075231194496154785
1773047903090864400,2.774864501953125,0.07552814483642578,-0.29062604904174805,-0.06774193048477173
1773047903100882400,2.78488232421875,0.02281045913696289,-0.2675056457519531,-0.06671158969402313
1773047903110860800,2.79486083984375,0.03625679016113281,-0.300412654876709,-0.09982658922672272
1773047903120835800,2.8048359375,0.06300830841064453,-0.2566709518432617,-0.1963346302509308
1773047903130813700,2.814813720703125,0.041773319244384766,-0.1801910400390625,-0.2213124930858612
1773047903140789000,2.8247890625,0.015515327453613281,-0.08548498153686523,-0.27262264490127563
1773047903150766600,2.8347666015625,0.008063316345214844,-0.020250797271728516,-0.21534499526023865
1773047903160646700,2.844646728515625,0.08034181594848633,-0.01694488525390625,-0.07876624166965485
1773047903170526700,2.854526611328125,0.1842784881591797,0.10407543182373047,-0.05083499848842621
1773047903180656600,2.86465673828125,0.22539472579956055,0.16170454025268555,-0.006566256284713745
1773047903190632200,2.874632080078125,0.25223541259765625,0.13303661346435547,0.07437749207019806
1773047903200610000,2.884610107421875,0.21859073638916016,0.0423283576965332,0.23928013443946838
1773047903210585600,2.894585693359375,0.17000293731689453,-0.053472042083740234,0.3620656430721283
1773047903220602000,2.90460205078125,0.23277759552001953,-0.19342422485351562,0.4230722486972809
1773047903230582000,2.91458203125,0.25950145721435547,-0.08264923095703125,0.45645561814308167
1773047903240516600,2.9245166015625,0.22586536407470703,0.07342290878295898,0.2922587990760803
1773047903250492000,2.934491943359375,0.12659168243408203,0.13707256317138672,0.09896974265575409
1773047903260371700,2.944371826171875,0.017692089080810547,0.11509227752685547,0.13596180081367493
1773047903270251800,2.954251708984375,-0.03532123565673828,0.004547595977783203,0.23938071727752686
1773047903280431900,2.964431884765625,0.014159679412841797,-0.1263871192932129,0.33758437633514404
1773047903290439400,2.974439453125,0.16651391983032227,-0.23073768615722656,0.42075294256210327
1773047903300415200,2.984415283203125,0.3513641357421875,-0.3819618225097656,0.48634713888168335
1773047903310392600,2.994392578125,0.43215131759643555,-0.567814826965332,0.44988852739334106
1773047903320329700,3.004329833984375,0.3247866630554199,-0.6467046737670898,0.4397393465042114
1773047903330303000,3.014302978515625,0.12580633163452148,-0.5718212127685547,0.3824236989021301
1773047903340244200,3.024244140625,-0.21828699111938477,-0.518679141998291,0.2618969976902008
1773047903350214100,3.034214111328125,-0.4330601692199707,-0.44574928283691406,0.18052861094474792
1773047903360094200,3.04409423828125,-0.5064663887023926,-0.3605518341064453,0.1440185308456421
1773047903369974300,3.053974365234375,-0.443511962890625,-0.22569799423217773,0.1456417292356491
1773047903380073000,3.064072998046875,-0.2914900779724121,-0.16363525390625,0.29316550493240356
1773047903390040600,3.07404052734375,-0.03738880157470703,-0.20177650451660156,0.5100656747817993
1773047903399987500,3.083987548828125,0.30007076263427734,-0.2604789733886719,0.751052737236023
1773047903409953000,3.093953125,0.6041164398193359,-0.25742435455322266,0.977548360824585
1773047903419901700,3.103901611328125,0.7309494018554688,-0.24745845794677734,1.032618522644043
1773047903429865700,3.11386572265625,0.7690801620483398,-0.2129359245300293,0.8915954232215881
1773047903439816400,3.12381640625,0.673189640045166,-0.1687631607055664,0.8575442433357239
1773047903449778700,3.13377880859375,0.45455312728881836,-0.11466169357299805,0.8380547761917114
1773047903459847000,3.143846923828125,0.32090234756469727,-0.0537266731262207,0.6812229156494141
1773047903469820200,3.153820068359375,0.27929115295410156,-0.11683845520019531,0.5783756375312805
1773047903479645200,3.163645263671875,0.26692867279052734,-0.028774738311767578,0.40148136019706726
1773047903489603600,3.173603515625,0.16997671127319336,0.04843425750732422,0.1859818994998932
1773047903499521000,3.18352099609375,0.06045198440551758,0.03979206085205078,0.0051438212394714355
1773047903509475300,3.193475341796875,-0.04720926284790039,-0.015660762786865234,-0.06296569108963013
1773047903519281400,3.203281494140625,-0.21393632888793945,-0.11754465103149414,-0.010168105363845825
1773047903529220900,3.213220947265625,-0.3485984802246094,-0.20474576950073242,0.055116474628448486
1773047903539349500,3.223349609375,-0.4704627990722656,-0.24942779541015625,0.0634872317314148
1773047903549308200,3.23330810546875,-0.6273431777954102,-0.29407453536987305,0.020713716745376587
1773047903559379700,3.243379638671875,-0.8147544860839844,-0.2906312942504883,-0.002621471881866455
1773047903569350000,3.253349853515625,-0.8543605804443359,-0.2998623847961426,0.007500827312469482
1773047903579230000,3.26322998046875,-0.843360424041748,-0.14669322967529297,-0.06307423114776611
1773047903589092000,3.273092041015625,-0.8071513175964355,-0.05386638641357422,-0.1177634745836258
1773047903599054300,3.283054443359375,-0.7088465690612793,0.022469043731689453,-0.06956653296947479
1773047903609007600,3.293007568359375,-0.5873146057128906,0.026273250579833984,0.004465192556381226
1773047903618968800,3.30296875,-0.35272836685180664,-0.04215812683105469,0.19576916098594666
1773047903628922600,3.312922607421875,-0.12305355072021484,-0.04700326919555664,0.3358294367790222
1773047903639102700,3.323102783203125,0.08895444869995117,-0.00023984909057617188,0.47392767667770386
1773047903649282800,3.33328271484375,0.15322399139404297,0.0013136863708496094,0.7110962271690369
1773047903659462700,3.343462646484375,0.17181158065795898,-0.00013589859008789062,0.8164737224578857
1773047903669568300,3.353568359375,0.060756683349609375,-0.004642486572265625,0.8068050146102905
1773047903679527400,3.36352734375,-0.05632162094116211,0.040678977966308594,0.6985929012298584
1773047903689518000,3.37351806640625,-0.14257431030273438,0.13608121871948242,0.6103401780128479
1773047903699480800,3.383480712890625,-0.1241607666015625,0.20657920837402344,0.573477029800415
1773047903709468700,3.39346875,-0.05009174346923828,0.18697214126586914,0.48671507835388184
1773047903719434200,3.403434326171875,0.06525325775146484,0.05926084518432617,0.5377073287963867
1773047903729419800,3.413419677734375,0.07169675827026367,0.02633810043334961,0.6776008009910583
1773047903739387600,3.4233876953125,-0.09452629089355469,0.16161203384399414,0.5370990037918091
1773047903749371400,3.433371337890625,-0.21940040588378906,0.08195257186889648,0.44726866483688354
1773047903759340800,3.4433408203125,-0.29508304595947266,0.008590221405029297,0.4442109763622284
1773047903769323300,3.4533232421875,-0.41231679916381836,0.13955926895141602,0.40622541308403015
1773047903779294200,3.463294189453125,-0.3829493522644043,0.13345098495483398,0.49369534850120544
1773047903789275400,3.473275390625,-0.37947797775268555,0.2003340721130371,0.42680272459983826
1773047903799247600,3.48324755859375,-0.2656431198120117,0.22669744491577148,0.4118742048740387
1773047903809228000,3.49322802734375,-0.11007213592529297,0.20000410079956055,0.44408953189849854
1773047903819201000,3.503200927734375,0.039691925048828125,0.14899063110351562,0.5386265516281128
1773047903829180700,3.5131806640625,0.23615026473999023,0.05907249450683594,0.6027456521987915
1773047903839154400,3.523154541015625,0.414090633392334,0.004442691802978516,0.6198031306266785
1773047903849133300,3.53313330078125,0.4813413619995117,-0.0032205581665039062,0.6230044960975647
1773047903859107600,3.543107666015625,0.5018281936645508,0.010917186737060547,0.5824915170669556
1773047903869086200,3.553086181640625,0.5145902633666992,-0.048299312591552734,0.5829912424087524
1773047903879061000,3.56306103515625,0.4728374481201172,0.04150390625,0.5149229168891907
1773047903889039000,3.5730390625,0.4100518226623535,0.08527421951293945,0.4683191776275635
1773047903898919200,3.582919189453125,0.3591737747192383,0.10315990447998047,0.4647972583770752
1773047903908779000,3.592779052734375,0.1972808837890625,0.09598255157470703,0.4653065502643585
1773047903918967600,3.602967529296875,-0.12211799621582031,0.11250066757202148,0.5192999839782715
1773047903928949200,3.61294921875,-0.07581949234008789,0.12634897232055664,0.4813598096370697
1773047903938920700,3.622920654296875,-0.002349853515625,0.08852338790893555,0.5201780796051025
1773047903948901600,3.632901611328125,-0.11379098892211914,0.07036972045898438,0.5145663022994995
1773047903958874000,3.6428740234375,-0.1584157943725586,-0.002869129180908203,0.46719202399253845
1773047903968854300,3.652854248046875,-0.11902284622192383,-0.05913257598876953,0.5874588489532471
1773047903978827500,3.66282763671875,-0.15221261978149414,-0.08468866348266602,0.8052347898483276
1773047903988807000,3.672806884765625,-0.14365053176879883,-0.07565641403198242,0.8913124799728394
1773047903998781000,3.682781005859375,-0.09820270538330078,-0.0615692138671875,0.8218439817428589
1773047904008759600,3.692759521484375,-0.007107734680175781,-0.22603559494018555,0.6657166481018066
1773047904018734000,3.702734130859375,0.006571769714355469,-0.5049161911010742,0.5570043325424194
1773047904028712700,3.712712646484375,0.15100765228271484,-0.9428315162658691,0.7809669375419617
1773047904038687500,3.7226875,0.36269617080688477,-0.5526375770568848,0.08927856385707855
1773047904048665600,3.73266552734375,0.3704519271850586,-0.13784408569335938,-0.04575326293706894
1773047904058679800,3.7426796875,0.4706697463989258,-0.025056838989257812,-0.3588588237762451
1773047904068661500,3.75266162109375,0.45897674560546875,0.0030736923217773438,-0.706188976764679
1773047904078594300,3.76259423828125,0.20968055725097656,0.0989980697631836,-0.6600682735443115
1773047904088569900,3.77256982421875,0.06398725509643555,0.18349027633666992,-0.8127734065055847
1773047904098546200,3.782546142578125,-0.048004150390625,0.25260448455810547,-1.0071399211883545
1773047904108523000,3.79252294921875,-0.05146598815917969,0.35682010650634766,-1.147535800933838
1773047904118499600,3.80249951171875,-0.05652189254760742,0.6582760810852051,-1.3356589078903198
1773047904128476400,3.812476318359375,-0.07265567779541016,0.6740398406982422,-1.198499083518982
1773047904138453000,3.822452880859375,0.06293535232543945,0.30896615982055664,-0.7484228014945984
1773047904148429600,3.8324296875,0.22661209106445312,-0.002402782440185547,-0.4089224934577942
1773047904158406100,3.84240625,0.34305810928344727,-0.08487844467163086,-0.19696646928787231
1773047904168383000,3.852383056640625,0.3416013717651367,-0.05943727493286133,-0.08705460280179977
1773047904178359600,3.862359619140625,0.29956722259521484,-0.06081390380859375,0.0019055455923080444
1773047904188336000,3.872336181640625,0.16494369506835938,-0.09418773651123047,0.15641474723815918
1773047904198313000,3.88231298828125,-0.01923084259033203,-0.12102222442626953,0.23398306965827942
1773047904208289500,3.89228955078125,-0.2198624610900879,-0.14554214477539062,0.258074551820755
1773047904218266000,3.90226611328125,-0.3853797912597656,-0.1235651969909668,0.22036929428577423
1773047904228243000,3.912242919921875,-0.6175351142883301,-0.024860382080078125,0.3836360573768616
1773047904238219500,3.922219482421875,-0.6936960220336914,0.08593559265136719,0.5923382043838501
1773047904248196000,3.932196044921875,-0.6674723625183105,0.04723167419433594,0.7702881097793579
1773047904258173000,3.9421728515625,-0.6153974533081055,-0.021346569061279297,0.8654059767723083
1773047904268149500,3.9521494140625,-0.47523069381713867,-0.06752443313598633,1.029779314994812
1773047904278126300,3.962126220703125,-0.24142122268676758,0.007593631744384766,1.0947632789611816
1773047904288103000,3.97210302734375,-0.05693769454956055,0.2411479949951172,0.9132800102233887
1773047904297983000,3.98198291015625,0.13161659240722656,0.32620811462402344,0.8421432971954346
1773047904307843000,3.991843017578125,0.2628173828125,0.36274099349975586,0.9156479835510254
1773047904318033000,4.002032958984375,0.28886938095092773,0.2078723907470703,1.003324031829834
1773047904328013800,4.012013916015625,0.27269697189331055,0.12395524978637695,1.0273756980895996
1773047904337986000,4.021986083984375,0.2813835144042969,0.11541938781738281,0.8686565160751343
1773047904347966200,4.03196630859375,0.21460294723510742,-0.037595272064208984,0.8695216178894043
1773047904357939500,4.041939453125,0.04468679428100586,-0.06340599060058594,0.9421373605728149
1773047904367918800,4.0519189453125,-0.17541217803955078,-0.09145975112915039,0.880433201789856
1773047904377892900,4.061892822265625,-0.34540700912475586,-0.30306482315063477,0.9568016529083252
1773047904387871700,4.071871826171875,-0.49912214279174805,-0.32015037536621094,0.961338460445404
1773047904397846300,4.08184619140625,-0.6516642570495605,-0.2617154121398926,0.8798041343688965
1773047904407824600,4.09182470703125,-0.684114933013916,-0.14646434783935547,0.869784414768219
1773047904417799400,4.10179931640625,-0.7075533866882324,0.017061233520507812,0.7488209009170532
1773047904427777500,4.111777587890625,-0.6847615242004395,-0.7731194496154785,1.7555116415023804
1773047904437752800,4.1217529296875,-0.3196077346801758,-0.28450965881347656,1.116635799407959
1773047904447730700,4.131730712890625,-0.2857060432434082,-0.08766317367553711,1.1738810539245605
1773047904457706200,4.141706298828125,0.010197162628173828,0.2478933334350586,0.2905491292476654
1773047904467683800,4.151683837890625,-0.10970401763916016,0.305056095123291,0.573575496673584
1773047904477564000,4.16156396484375,0.0717782974243164,0.3284487724304199,0.6977720260620117
1773047904487423700,4.171423828125,-0.01968097686767578,0.7964277267456055,0.27836161851882935
1773047904497418800,4.181418701171875,-0.13599300384521484,0.6154594421386719,0.44504812359809875
1773047904507380700,4.191380615234375,-0.19649171829223633,0.26546812057495117,0.9452126026153564
1773047904517566000,4.20156591796875,-0.14428234100341797,0.014574050903320312,1.2604916095733643
1773047904527550500,4.211550537109375,-0.0026416778564453125,0.0188751220703125,1.3474823236465454
1773047904537519400,4.221519287109375,0.19105100631713867,0.0757136344909668,1.3663179874420166
1773047904547502300,4.23150244140625,0.2848644256591797,0.035434722900390625,1.372212290763855
1773047904557472800,4.24147265625,0.33220863342285156,-0.0022525787353515625,1.3229504823684692
1773047904567454500,4.251454345703125,0.40029430389404297,-0.023247241973876953,1.2414700984954834
1773047904577334500,4.26133447265625,0.38880491256713867,-0.03704500198364258,1.1445927619934082
1773047904587193600,4.271193603515625,0.36460304260253906,-0.038521766662597656,1.030670404434204
1773047904597379300,4.28137939453125,0.3467702865600586,-0.05141878128051758,0.9219812154769897
1773047904607363600,4.291363525390625,0.29152488708496094,-0.05551862716674805,0.9165541529655457
1773047904617332700,4.301332763671875,0.2316269874572754,-0.045166969299316406,0.9813865423202515
1773047904627315500,4.3113154296875,0.1718902587890625,-0.049176692962646484,1.0223212242126465
1773047904637286100,4.3212861328125,0.08864593505859375,-0.1204066276550293,0.9648175239562988
1773047904647267600,4.331267578125,0.044384002685546875,-0.19222164154052734,0.8856011629104614
1773047904657239600,4.341239501953125,0.010169506072998047,-0.19481897354125977,0.795630693435669
1773047904667220000,4.351219970703125,-0.055794715881347656,-0.15099525451660156,0.7857563495635986
1773047904677193000,4.36119287109375,-0.14348697662353516,-0.05689239501953125,0.8073350191116333
1773047904687172600,4.371172607421875,-0.13519716262817383,-0.030597209930419922,0.868946373462677
1773047904697052700,4.381052734375,-0.009549140930175781,-0.10788106918334961,1.0765514373779297
1773047904706912300,4.390912353515625,-0.03233146667480469,-0.16439247131347656,0.6881605982780457
1773047904717099500,4.401099609375,-0.15821266174316406,0.27903127670288086,0.7015985250473022
1773047904727082500,4.41108251953125,-0.09476280212402344,0.3443942070007324,0.7580746412277222
1773047904737053000,4.421052978515625,0.05519580841064453,0.16137409210205078,0.8094542026519775
1773047904747034600,4.43103466796875,0.18726587295532227,0.03463888168334961,1.0214276313781738
1773047904757006300,4.44100634765625,0.2318120002746582,-0.04248380661010742,1.1306895017623901
1773047904766987000,4.450987060546875,0.299314022064209,0.012903690338134766,0.9719854593276978
1773047904776866800,4.46086669921875,0.3671584129333496,0.07956552505493164,0.6397192478179932
1773047904786726100,4.47072607421875,0.2756032943725586,0.1619706153869629,0.549885094165802
1773047904796718800,4.48071875,0.14420747756958008,0.2561984062194824,0.46168261766433716
1773047904806682600,4.4906826171875,0.015622138977050781,0.24477291107177734,0.35210394859313965
1773047904816866000,4.500865966796875,-0.0499725341796875,0.16823625564575195,0.29328617453575134
1773047904826852000,4.51085205078125,-0.09211063385009766,0.06632471084594727,0.26060742139816284
1773047904836819700,4.52081982421875,-0.11063671112060547,-0.09891414642333984,0.34394997358322144
1773047904846803700,4.5308037109375,-0.15217924118041992,-0.2758021354675293,0.3886260688304901
1773047904856772900,4.54077294921875,-0.27703332901000977,-0.4130997657775879,0.35479944944381714
1773047904866755600,4.550755615234375,-0.3850102424621582,-0.4124150276184082,0.28488731384277344
1773047904876726500,4.5607265625,-0.5241551399230957,-0.2845149040222168,0.266691654920578
1773047904886708000,4.5707080078125,-0.5818085670471191,-0.13868474960327148,0.34483417868614197
1773047904896587800,4.580587890625,-0.5275149345397949,-0.0067615509033203125,0.45079830288887024
1773047904906447000,4.590447021484375,-0.39270639419555664,0.12248039245605469,0.5038663744926453
1773047904926617000,4.6106171875,0.17548322677612305,0.380734920501709,0.579807698726654
1773047904936586500,4.62058642578125,0.5220503807067871,0.37225866317749023,0.6395586729049683
1773047904946569000,4.63056884765625,0.8747615814208984,0.19210195541381836,0.7310057282447815
1773047904956540000,4.640539794921875,1.1941275596618652,-0.02875518798828125,0.8083292841911316
1773047904966521000,4.65052099609375,1.3096270561218262,-0.18974781036376953,0.7996376156806946
1773047904976493300,4.660493408203125,1.1708273887634277,-0.32326650619506836,0.7747966051101685
1773047904986473700,4.6704736328125,0.830146312713623,-0.4028029441833496,0.7278704047203064
1773047904996446500,4.680446533203125,0.38928985595703125,-0.4143953323364258,0.6298671960830688
1773047905006426400,4.69042626953125,-0.05810260772705078,-0.40337276458740234,0.5883053541183472
1773047905016400000,4.70039990234375,-0.4963970184326172,-0.3234572410583496,0.5579379796981812
1773047905026379000,4.71037890625,-0.8344759941101074,-0.20515012741088867,0.505052387714386
1773047905036353300,4.720353271484375,-0.9402070045471191,-0.14473438262939453,0.520024299621582
1773047905046332000,4.730331787109375,-0.8899698257446289,-0.1391587257385254,0.6074674129486084
1773047905056306700,4.740306640625,-0.6587882041931152,-0.11151504516601562,0.6965367794036865
1773047905066284800,4.750284912109375,-0.3290748596191406,-0.0819234848022461,0.7649891376495361
1773047905076260000,4.760260009765625,0.0191802978515625,-0.0950169563293457,0.8529035449028015
1773047905086238000,4.770238037109375,0.43984317779541016,-0.1484665870666504,0.8681274056434631
1773047905096118000,4.780117919921875,0.8166370391845703,-0.1929488182067871,0.891622006893158
1773047905105977900,4.789977783203125,1.0583562850952148,-0.11348676681518555,1.0068368911743164
1773047905116166700,4.800166748046875,1.0761055946350098,-0.05662059783935547,1.0297048091888428
1773047905126148400,4.8101484375,0.9708414077758789,-0.0601954460144043,0.9128463268280029
1773047905136120000,4.8201201171875,0.6755199432373047,-0.0371861457824707,0.7212115526199341
1773047905146100700,4.830100830078125,0.33198976516723633,-0.056672096252441406,0.5867061614990234
1773047905156073500,4.840073486328125,0.062268733978271484,-0.12525224685668945,0.570908784866333
1773047905166053400,4.850053466796875,-0.1502399444580078,-0.1783924102783203,0.5890862941741943
1773047905176027000,4.86002685546875,-0.3590574264526367,-0.1819753646850586,0.5764420628547668
1773047905186006000,4.870006103515625,-0.4932742118835449,-0.21174001693725586,0.5382216572761536
1773047905195886000,4.879885986328125,-0.5440206527709961,-0.24306440353393555,0.4307515621185303
1773047905205745700,4.88974560546875,-0.5309152603149414,-0.25162506103515625,0.28216052055358887
1773047905215933400,4.899933349609375,-0.4493856430053711,-0.20405292510986328,0.18861722946166992
1773047905225916200,4.909916259765625,-0.2944526672363281,-0.07209968566894531,0.11517363786697388
1773047905235886800,4.919886962890625,-0.056485652923583984,-0.018548965454101562,0.04633760452270508
1773047905245868300,4.929868408203125,0.2456207275390625,0.04246711730957031,-0.024329304695129395
1773047905255840300,4.93984033203125,0.5698356628417969,0.05710411071777344,-0.020812392234802246
1773047905265820700,4.949820556640625,0.8074526786804199,0.004817485809326172,0.03858262300491333
1773047905275793700,4.959793701171875,0.9505548477172852,-0.006302356719970703,0.017313241958618164
1773047905285773300,4.969773193359375,1.0620741844177246,-0.06807374954223633,-0.029609978199005127
1773047905295653400,4.9796533203125,1.0614819526672363,-0.2383885383605957,-0.0974307656288147
1773047905305513000,4.989512939453125,0.9593868255615234,-0.3792738914489746,-0.11551639437675476
1773047905315700200,4.9997001953125,0.82830810546875,-0.4533514976501465,-0.12659895420074463
1773047905325683200,5.00968310546875,0.5487837791442871,-0.4987220764160156,-0.16983449459075928
1773047905335653600,5.019653564453125,0.27324581146240234,-0.5000834465026855,-0.264800101518631
1773047905345635300,5.02963525390625,-0.004745006561279297,-0.48878908157348633,-0.37048470973968506
1773047905355607000,5.03960693359375,-0.36374473571777344,-0.41922569274902344,-0.5074254870414734
1773047905365587700,5.049587646484375,-0.5617556571960449,-0.3228912353515625,-0.5512101650238037
1773047905375560400,5.059560546875,-0.6055331230163574,-0.3173213005065918,-0.5231541395187378
1773047905385540400,5.069540283203125,-0.5771059989929199,-0.35889101028442383,-0.41321060061454773
1773047905395513900,5.079513916015625,-0.4280529022216797,-0.4105548858642578,-0.34190142154693604
1773047905405493000,5.089492919921875,-0.3007969856262207,-0.37339258193969727,-0.3612247109413147
1773047905415467300,5.09946728515625,-0.18448925018310547,-0.3207254409790039,-0.3945784568786621
1773047905425446000,5.10944580078125,-0.08296966552734375,-0.3062467575073242,-0.40776461362838745
1773047905435420700,5.119420654296875,0.019227027893066406,-0.2833843231201172,-0.43914493918418884
1773047905445398800,5.129398681640625,0.017885684967041016,-0.21489286422729492,-0.5090950727462769
1773047905455373800,5.139373779296875,-0.024233341217041016,-0.10605001449584961,-0.5714715123176575
1773047905465352000,5.14935205078125,-0.054674625396728516,-0.0521693229675293,-0.6614815592765808
1773047905475327500,5.159327392578125,-0.1126556396484375,0.005430698394775391,-0.7469728589057922
1773047905485305000,5.16930517578125,-0.12776660919189453,0.044399261474609375,-0.7324185371398926
1773047905495280600,5.17928076171875,-0.08182096481323242,0.027443408966064453,-0.6499128937721252
1773047905505258200,5.18925830078125,0.011092662811279297,-0.09841680526733398,-0.5882731676101685
1773047905515234000,5.199234130859375,0.03728342056274414,-0.28645944595336914,-0.5510496497154236
1773047905525211400,5.20921142578125,0.017319679260253906,-0.49028730392456055,-0.5190083384513855
1773047905535091500,5.219091552734375,-0.10028791427612305,-0.553276538848877,-0.4451654851436615
1773047905545164800,5.229164794921875,-0.3004269599914551,-0.48111629486083984,-0.3971669673919678
1773047905565117400,5.249117431640625,-0.5856723785400391,-0.25034570693969727,-0.403870552778244
1773047905575094800,5.2590947265625,-0.5801405906677246,-0.12911605834960938,-0.3707549571990967
1773047905585070800,5.26907080078125,-0.4406137466430664,-0.0023450851440429688,-0.22943028807640076
1773047905595048000,5.2790478515625,-0.1964569091796875,0.034876346588134766,0.058678627014160156
1773047905605024300,5.289024169921875,0.10058212280273438,-0.037868499755859375,0.3783167600631714
1773047905615001300,5.29900146484375,0.42757606506347656,-0.13121318817138672,0.48076438903808594
1773047905624977700,5.308977783203125,0.6999468803405762,-0.15634536743164062,0.5313277840614319
1773047905634954500,5.31895458984375,0.9386343955993652,-0.14911270141601562,0.5748515725135803
1773047905644834600,5.32883447265625,1.1266303062438965,-0.1838974952697754,0.6705308556556702
1773047905654694700,5.338694580078125,1.1892423629760742,-0.2243976593017578,0.7470201849937439
1773047905664884200,5.34888427734375,1.137125015258789,-0.21394729614257812,0.6393589377403259
1773047905674865200,5.358865234375,0.9704575538635254,-0.2522597312927246,0.4479057788848877
1773047905684837600,5.368837646484375,0.6126580238342285,-0.35732030868530273,0.3933923840522766
1773047905694817800,5.37881787109375,0.1444387435913086,-0.4083423614501953,0.36049824953079224
1773047905704791000,5.388791015625,-0.31145334243774414,-0.398712158203125,0.2637922763824463
1773047905714770400,5.3987705078125,-0.6516728401184082,-0.34081077575683594,0.23138034343719482
1773047905724744400,5.408744384765625,-0.9638042449951172,-0.3956413269042969,0.3012617230415344
1773047905734723300,5.418723388671875,-1.1959962844848633,-0.4813218116760254,0.2751595377922058
1773047905744697900,5.42869775390625,-1.3400917053222656,-0.4483518600463867,0.19606655836105347
1773047905754676200,5.43867626953125,-1.3693547248840332,-0.31878232955932617,0.12412339448928833
1773047905764651000,5.448651123046875,-1.285205364227295,-0.12971735000610352,0.1349853277206421
1773047905774629000,5.458629150390625,-1.0117039680480957,0.0757603645324707,0.26355284452438354
1773047905784604400,5.4686044921875,-0.5727825164794922,0.21550703048706055,0.3941171169281006
1773047905794582300,5.478582275390625,-0.0677499771118164,0.28297996520996094,0.35782521963119507
1773047905804557800,5.488557861328125,0.519188404083252,0.31467390060424805,0.27517515420913696
1773047905814535400,5.498535400390625,1.0182199478149414,0.40839719772338867,0.1360841989517212
1773047905824511200,5.50851123046875,1.3605122566223145,0.4320077896118164,0.05069798231124878
1773047905834488800,5.51848876953125,1.6015872955322266,0.2679314613342285,-0.013998210430145264
1773047905844464600,5.528464599609375,1.6246638298034668,0.014153003692626953,-0.16333580017089844
1773047905854442000,5.53844189453125,1.322373390197754,-0.27866315841674805,-0.3030587434768677
1773047905864418000,5.54841796875,0.8105640411376953,-0.46726560592651367,-0.4259030520915985
1773047905874395100,5.55839501953125,0.20833253860473633,-0.5646696090698242,-0.4407505989074707
1773047905884371500,5.568371337890625,-0.5290689468383789,-0.6112756729125977,-0.4136805534362793
1773047905894348500,5.5783486328125,-1.2659730911254883,-0.5889043807983398,-0.4283103346824646
1773047905904324900,5.588324951171875,-1.8727340698242188,-0.5405960083007812,-0.3962077498435974
1773047905914301700,5.5983017578125,-2.2585692405700684,-0.4566659927368164,-0.2992267310619354
1773047905924278300,5.6082783203125,-2.418022632598877,-0.38124561309814453,-0.08373242616653442
1773047905934255000,5.618255126953125,-2.287057399749756,-0.2929043769836426,0.13205981254577637
1773047905944231700,5.628231689453125,-1.8574838638305664,-0.18140602111816406,0.329425573348999
1773047905954208500,5.63820849609375,-1.3387846946716309,-0.05802297592163086,0.6351789832115173
1773047905964184800,5.648184814453125,-0.7764544486999512,0.0071201324462890625,0.9929346442222595
1773047905974161700,5.65816162109375,-0.06306219100952148,0.04915666580200195,1.1209793090820312
1773047905984138200,5.66813818359375,0.6599149703979492,0.13709020614624023,1.0361549854278564
1773047905994115000,5.678114990234375,1.4039545059204102,0.22545862197875977,0.9259709715843201
1773047906004091600,5.688091552734375,2.113680839538574,0.3307652473449707,0.8827127814292908
1773047906014068500,5.698068359375,2.614375114440918,0.3641996383666992,0.9090510010719299
1773047906024045000,5.708045166015625,2.9510560035705566,0.3189210891723633,0.8159605860710144
1773047906034022000,5.71802197265625,3.078240394592285,0.2549862861633301,0.49330955743789673
1773047906043902000,5.72790185546875,2.9544787406921387,0.2003016471862793,0.005543649196624756
1773047906053762000,5.737761962890625,2.570652961730957,0.060083866119384766,-0.47838500142097473
1773047906063951600,5.74795166015625,2.0371456146240234,-0.13619470596313477,-0.8130260109901428
1773047906073932500,5.7579326171875,1.4490571022033691,-0.3530616760253906,-0.9868403077125549
1773047906083905000,5.767905029296875,0.8956689834594727,-0.5118527412414551,-1.1269233226776123
1773047906093885200,5.77788525390625,0.4041428565979004,-0.6059703826904297,-1.2893085479736328
1773047906103858400,5.7878583984375,-0.06065702438354492,-0.6670141220092773,-1.390848994255066
1773047906113837800,5.797837890625,-0.4767451286315918,-0.7025566101074219,-1.4032855033874512
1773047906123811800,5.807811767578125,-0.7316350936889648,-0.6578497886657715,-1.4222588539123535
1773047906133790700,5.817790771484375,-0.8274908065795898,-0.6217899322509766,-1.3243396282196045
1773047906143670800,5.8276708984375,-0.7465019226074219,-0.5599565505981445,-1.0038812160491943
1773047906153530400,5.8375302734375,-0.5692729949951172,-0.49778175354003906,-0.5914705395698547
1773047906163718400,5.847718505859375,-0.270474910736084,-0.41841745376586914,-0.21234190464019775
1773047906173700900,5.857700927734375,0.007526874542236328,-0.22820472717285156,0.05675870180130005
1773047906183671800,5.867671875,0.2084493637084961,-0.0002422332763671875,0.23065096139907837
1773047906193653000,5.877653076171875,0.34256601333618164,0.15011835098266602,0.438479483127594
1773047906203533000,5.887532958984375,0.37209224700927734,0.23685407638549805,0.6964730024337769
1773047906213392400,5.897392333984375,0.3978900909423828,0.26423215866088867,0.9352419972419739
1773047906223563500,5.9075634765625,0.42482852935791016,0.25598573684692383,1.0127208232879639
1773047906233556000,5.917555908203125,0.36678218841552734,0.26929521560668945,0.9321226477622986
1773047906243520000,5.92752001953125,0.17646169662475586,0.15085363388061523,0.8234204053878784
1773047906253509000,5.937509033203125,0.021399497985839844,0.0014066696166992188,0.6236220002174377
1773047906263476000,5.94747607421875,-0.06545782089233398,-0.06807184219360352,0.338218629360199
1773047906273462500,5.957462646484375,-0.1659402847290039,-0.12838125228881836,0.178347647190094
1773047906283431200,5.96743115234375,-0.2375965118408203,-0.1642608642578125,0.09818172454833984
1773047906293416000,5.977416015625,-0.29039621353149414,-0.17045879364013672,0.08178883790969849
1773047906303386000,5.98738623046875,-0.30155515670776367,-0.18874740600585938,0.008548498153686523
1773047906313369000,5.997369140625,-0.26752233505249023,-0.1509547233581543,-0.045199036598205566
1773047906323340800,6.0073408203125,-0.13180780410766602,-0.19992446899414062,0.0274200439453125
1773047906333322500,6.017322509765625,0.09096574783325195,-0.2879366874694824,0.06164240837097168
1773047906343295200,6.027295166015625,0.3253164291381836,-0.39261579513549805,0.14616763591766357
1773047906353276000,6.03727587890625,0.5011091232299805,-0.5300850868225098,0.2100488543510437
1773047906363249400,6.04724951171875,0.5484580993652344,-0.6493258476257324,0.19385778903961182
1773047906373229300,6.057229248046875,0.4261894226074219,-0.7087864875793457,0.1903005838394165
1773047906383203300,6.067203369140625,0.11109685897827148,-0.7423877716064453,0.15672779083251953
1773047906393083400,6.07708349609375,-0.1776118278503418,-0.7157340049743652,0.07034927606582642
1773047906402963500,6.08696337890625,-0.3944711685180664,-0.6407155990600586,-0.045121848583221436
1773047906413136000,6.097135986328125,-0.47504186630249023,-0.5146870613098145,-0.0815930962562561
1773047906423116800,6.10711669921875,-0.3922538757324219,-0.33632755279541016,-0.05854451656341553
1773047906433089300,6.11708935546875,-0.17055845260620117,-0.22506952285766602,-0.018208205699920654
1773047906443069400,6.1270693359375,0.06641435623168945,-0.15804529190063477,0.07453978061676025
1773047906453042700,6.137042724609375,0.39592838287353516,-0.11248207092285156,0.13110822439193726
1773047906463022000,6.14702197265625,0.7706751823425293,0.0013642311096191406,-0.022319495677947998
1773047906472996000,6.15699609375,1.1391921043395996,0.129241943359375,-0.15897643566131592
1773047906482975000,6.16697509765625,1.4842743873596191,0.16847467422485352,-0.29642537236213684
1773047906492949500,6.176949462890625,1.6748600006103516,0.10656499862670898,-0.47157639265060425
1773047906502928000,6.186927978515625,1.6139464378356934,-0.06418418884277344,-0.6481978297233582
1773047906512902700,6.196902587890625,1.236917495727539,-0.28759145736694336,-0.8071721792221069
1773047906522881000,6.206881103515625,0.5779542922973633,-0.44832563400268555,-0.9490506649017334
1773047906532856000,6.21685595703125,-0.1342940330505371,-0.5828061103820801,-1.0783172845840454
1773047906542834000,6.226833984375,-0.8683300018310547,-0.7267165184020996,-1.125359296798706
1773047906552809500,6.2368095703125,-1.6128053665161133,-0.7856507301330566,-1.1397473812103271
1773047906562787300,6.246787353515625,-2.1755871772766113,-0.7316598892211914,-1.1986494064331055
1773047906592717000,6.276717041015625,-2.3592982292175293,-0.44254207611083984,-0.9603118896484375
1773047906602693000,6.286693115234375,-1.8526086807250977,-0.2590365409851074,-0.8724781274795532
1773047906612670200,6.296670166015625,-0.9481744766235352,-0.10525178909301758,-0.7895071506500244
1773047906622646500,6.306646484375,0.20341110229492188,0.03437328338623047,-0.6803308725357056
1773047906632623600,6.31662353515625,1.28129243850708,0.13558149337768555,-0.6102126240730286
1773047906642600000,6.326599853515625,2.2043700218200684,0.08771467208862305,-0.5050573945045471
1773047906652576800,6.33657666015625,2.8578147888183594,0.029157161712646484,-0.37310805916786194
1773047906662553000,6.346552978515625,3.1787543296813965,0.03206920623779297,-0.37212321162223816
1773047906672530200,6.3565302734375,3.2082343101501465,0.06499576568603516,-0.5266828536987305
1773047906682506500,6.366506591796875,2.9863972663879395,-0.1221308708190918,-0.555305540561676
1773047906692483600,6.376483642578125,2.384939193725586,-0.4189472198486328,-0.6117011308670044
1773047906702460000,6.3864599609375,1.5512328147888184,-0.6795783042907715,-0.7263733744621277
1773047906712436700,6.396436767578125,0.6312465667724609,-0.8479752540588379,-0.7859847545623779
1773047906722413300,6.406413330078125,-0.2151327133178711,-0.9971804618835449,-0.8397771120071411
1773047906732390100,6.41639013671875,-0.9571418762207031,-1.0904841423034668,-0.8567270636558533
1773047906742366700,6.42636669921875,-1.5688982009887695,-1.0816941261291504,-0.9458414316177368
1773047906752343600,6.436343505859375,-2.0105466842651367,-0.9292798042297363,-1.0012507438659668
1773047906762320100,6.446320068359375,-2.2228684425354004,-0.6784448623657227,-0.9728595018386841
1773047906772297000,6.456296875,-2.1989364624023438,-0.41315555572509766,-0.8034107089042664
1773047906782273500,6.4662734375,-1.8014206886291504,-0.2044668197631836,-0.5213495492935181
1773047906792250400,6.47625048828125,-1.2074580192565918,-0.0003018379211425781,-0.08742821216583252
1773047906802227000,6.48622705078125,-0.572749137878418,0.13434886932373047,0.35326480865478516
1773047906812203500,6.49620361328125,-0.1237177848815918,0.24367809295654297,0.6955043077468872
1773047906822180400,6.506180419921875,0.23760747909545898,0.34878110885620117,0.992273211479187
1773047906832157000,6.516156982421875,0.6182541847229004,0.3896174430847168,1.2245687246322632
1773047906842133800,6.5261337890625,0.8760471343994141,0.40259361267089844,1.362026572227478
1773047906852110300,6.5361103515625,1.045496940612793,0.36248016357421875,1.4261157512664795
1773047906862087200,6.546087158203125,1.1319184303283691,0.26409387588500977,1.44574773311615
1773047906872063700,6.556063720703125,1.1879677772521973,0.1508321762084961,1.2810684442520142
1773047906882040300,6.566040283203125,1.1229796409606934,0.06145286560058594,1.0008184909820557
1773047906892017200,6.57601708984375,0.9319558143615723,-0.02674245834350586,0.8067736625671387
1773047906901994000,6.585993896484375,0.7335057258605957,-0.10271406173706055,0.5831944346427917
1773047906911970600,6.595970458984375,0.4789419174194336,-0.27041053771972656,0.3825908899307251
1773047906921947100,6.605947021484375,0.23937177658081055,-0.46172380447387695,0.2752538323402405
1773047906931924000,6.615924072265625,0.019019603729248047,-0.608799934387207,0.17735648155212402
1773047906941900500,6.625900634765625,-0.16310501098632812,-0.7496190071105957,0.1533339023590088
1773047906951877400,6.63587744140625,-0.336029052734375,-0.8504934310913086,0.1934862732887268
1773047906961854000,6.64585400390625,-0.48535776138305664,-0.8927302360534668,0.14630460739135742
1773047906971830500,6.65583056640625,-0.5063681602478027,-0.8189101219177246,0.007880926132202148
1773047906981807400,6.665807373046875,-0.42855167388916016,-0.6763567924499512,-0.12268835306167603
1773047906991784000,6.675783935546875,-0.2952418327331543,-0.47916507720947266,-0.13371926546096802
1773047907001760800,6.6857607421875,-0.1159658432006836,-0.29437875747680664,-0.04156959056854248
1773047907011737300,6.6957373046875,0.047609806060791016,-0.07970094680786133,0.0635104775428772
1773047907021714200,6.705714111328125,0.24809837341308594,0.12645578384399414,0.15363621711730957
1773047907031690800,6.715690673828125,0.4327402114868164,0.2718334197998047,0.31390583515167236
1773047907041667600,6.72566748046875,0.5877175331115723,0.2793917655944824,0.5417128205299377
1773047907051644200,6.73564404296875,0.6854038238525391,0.20978164672851562,0.766732931137085
1773047907061621000,6.74562109375,0.7513341903686523,0.13713788986206055,0.8711483478546143
1773047907071597600,6.75559765625,0.739041805267334,0.16492652893066406,0.7664021849632263
1773047907081574400,6.765574462890625,0.6007957458496094,0.25041818618774414,0.5412870049476624
1773047907091551000,6.775551025390625,0.44047021865844727,0.2950739860534668,0.4244462251663208
1773047907101527800,6.78552783203125,0.23617315292358398,0.29221630096435547,0.3442603349685669
1773047907111504400,6.79550439453125,0.40583276748657227,0.4548673629760742,0.2080150842666626
1773047907121481200,6.805481201171875,0.5206136703491211,0.5998787879943848,0.01306229829788208
1773047907131457800,6.815457763671875,0.8770289421081543,0.6315383911132812,-0.22872021794319153
1773047907141434400,6.825434326171875,0.501370906829834,0.3195509910583496,-0.3568202257156372
1773047907151411200,6.8354111328125,0.5820760726928711,0.05536365509033203,-0.6993268132209778
1773047907161387800,6.8453876953125,0.8391509056091309,-0.04413270950317383,-0.8638593554496765
1773047907171364600,6.855364501953125,0.6106023788452148,-0.16824626922607422,-0.7073383331298828
1773047907181341200,6.865341064453125,0.4083685874938965,-0.5749673843383789,-1.149314522743225
1773047907191318000,6.875318115234375,0.13737821578979492,-0.548006534576416,-1.2531301975250244
1773047907201294600,6.885294677734375,-0.2682919502258301,-0.5863428115844727,-1.1062090396881104
1773047907211271400,6.895271484375,-0.588165283203125,-0.8385767936706543,-1.2603193521499634
1773047907221248000,6.905248046875,-1.0678253173828125,-0.867682933807373,-1.1664273738861084
1773047907231224800,6.915224853515625,-1.4432735443115234,-0.736814022064209,-1.196109652519226
1773047907241201400,6.925201416015625,-1.6225919723510742,-0.6766958236694336,-1.0831576585769653
1773047907251178200,6.93517822265625,-1.5469627380371094,-0.59320068359375,-0.8218368887901306
1773047907261154800,6.94515478515625,-1.2084426879882812,-0.4373359680175781,-0.7140486836433411
1773047907271131600,6.955131591796875,-0.7453327178955078,-0.21953439712524414,-0.6142312288284302
1773047907281108200,6.965108154296875,-0.17957353591918945,-0.04248666763305664,-0.4202534556388855
1773047907291084800,6.975084716796875,0.36772966384887695,0.09508275985717773,-0.224251389503479
1773047907301061600,6.9850615234375,0.8238348960876465,0.16513967514038086,-0.002017587423324585
1773047907311038200,6.9950380859375,1.2206430435180664,0.13052940368652344,0.24722161889076233
1773047907321015000,7.00501513671875,1.5504755973815918,0.074951171875,0.4173639416694641
1773047907330991600,7.01499169921875,1.6617341041564941,0.01102304458618164,0.458556592464447
1773047907340968400,7.024968505859375,1.588573932647705,-0.04272174835205078,0.31106993556022644
1773047907350945000,7.034945068359375,1.3600420951843262,-0.10056352615356445,0.055103808641433716
1773047907360883000,7.044883056640625,0.933262825012207,-0.2908039093017578,-0.1942416876554489
1773047907370855700,7.054855712890625,0.4653010368347168,-0.4490208625793457,-0.4380269944667816
1773047907380875300,7.064875244140625,0.01191854476928711,-0.4821915626525879,-0.6391502618789673
1773047907390852600,7.0748525390625,-0.4578700065612793,-0.5023679733276367,-0.7825332880020142
1773047907400828700,7.08482861328125,-0.8222298622131348,-0.6357421875,-0.8361249566078186
1773047907410806000,7.094805908203125,-1.0835628509521484,-0.7888407707214355,-0.9203317761421204
1773047907420782000,7.104781982421875,-1.1915254592895508,-0.820897102355957,-1.060171127319336
1773047907430759200,7.11475927734375,-1.1574201583862305,-0.7974858283996582,-1.0954099893569946
1773047907440696600,7.124696533203125,-1.0098624229431152,-0.7908916473388672,-0.991349458694458
1773047907450669800,7.134669921875,-0.7424988746643066,-0.8080611228942871,-0.8737261295318604
1773047907460650000,7.14464990234375,-0.4442710876464844,-0.7702059745788574,-0.7974948883056641
1773047907470623700,7.154623779296875,-0.1188344955444336,-0.6644906997680664,-0.73834627866745
1773047907480603400,7.164603271484375,0.18651962280273438,-0.42480039596557617,-0.6294163465499878
1773047907490577700,7.17457763671875,0.49605655670166016,-0.2142491340637207,-0.4989308714866638
1773047907500401700,7.184401611328125,0.8394107818603516,-0.124725341796875,-0.2931831479072571
1773047907510361000,7.194361083984375,1.0933942794799805,-0.06641197204589844,0.07304069399833679
1773047907520471000,7.204470947265625,1.2543225288391113,-0.011664390563964844,0.3949202299118042
1773047907530445800,7.21444580078125,1.2561655044555664,0.052733421325683594,0.6344118714332581
1773047907540463400,7.22446337890625,1.1612300872802734,0.1265869140625,0.7906157970428467
1773047907550442200,7.234442138671875,0.9739422798156738,0.062262535095214844,0.8416223526000977
1773047907560322300,7.244322265625,0.7554831504821777,-0.03362560272216797,0.7603074908256531
1773047907570182100,7.25418212890625,0.5288748741149902,-0.07393693923950195,0.6092866063117981
1773047907580370200,7.2643701171875,0.2844243049621582,-0.1873922348022461,0.43961548805236816
1773047907590352400,7.274352294921875,0.10718011856079102,-0.30054426193237305,0.2369580864906311
1773047907600323600,7.284323486328125,-0.03232717514038086,-0.37882089614868164,-0.0029859840869903564
1773047907610304800,7.2943046875,-0.12055110931396484,-0.4498763084411621,-0.21723148226737976
1773047907620238000,7.304238037109375,-0.12955141067504883,-0.470001220703125,-0.3069803714752197
1773047907630214700,7.314214599609375,-0.14993619918823242,-0.4972038269042969,-0.299496054649353
1773047907640152600,7.324152587890625,-0.14292144775390625,-0.5417008399963379,-0.3236054480075836
1773047907650125300,7.334125244140625,-0.10337352752685547,-0.5369982719421387,-0.3614749312400818
1773047907660067300,7.3440673828125,-0.14129257202148438,-0.4878873825073242,-0.3038984537124634
1773047907670036700,7.35403662109375,-0.22316360473632812,-0.43273067474365234,-0.17724817991256714
1773047907679981800,7.36398193359375,-0.22048187255859375,-0.43802356719970703,-0.16873574256896973
1773047907689949000,7.373948974609375,-0.038837432861328125,-0.521766185760498,-0.2812992334365845
1773047907699896600,7.383896484375,0.2828240394592285,-0.6784858703613281,-0.13949960470199585
1773047907709861600,7.393861572265625,0.5021166801452637,-0.44649219512939453,-0.2883741855621338
1773047907719811000,7.40381103515625,0.5736002922058105,-0.3546919822692871,-0.4006383419036865
1773047907729774600,7.413774658203125,0.551720142364502,-0.5191965103149414,-0.49989986419677734
1773047907739725600,7.4237255859375,0.42365550994873047,-0.6063346862792969,-0.6034650206565857
1773047907749687800,7.433687744140625,0.26064443588256836,-0.5436668395996094,-0.7194195985794067
1773047907759679000,7.443678955078125,0.12827157974243164,-0.32982444763183594,-0.706756591796875
1773047907769644000,7.45364404296875,0.048569679260253906,-0.1875905990600586,-0.6852834820747375
1773047907779516200,7.46351611328125,0.10589838027954102,-0.1150665283203125,-0.6210790872573853
1773047907789472000,7.473471923828125,0.3466634750366211,-0.2159285545349121,-0.47148817777633667
1773047907799430700,7.4834306640625,0.3970026969909668,-0.04922962188720703,-0.820053219795227
1773047907809386800,7.49338671875,0.5504627227783203,0.19537591934204102,-0.5800937414169312
1773047907819345200,7.50334521484375,0.9270405769348145,0.05801582336425781,-0.42481526732444763
1773047907829301500,7.513301513671875,1.2836570739746094,-0.1749248504638672,-0.4323912262916565
1773047907839259600,7.523259765625,1.5979228019714355,-0.4188117980957031,-0.43256890773773193
1773047907849216300,7.53321630859375,1.6035327911376953,-0.3784751892089844,-0.5823824405670166
1773047907859174400,7.54317431640625,1.441706657409668,-0.4201664924621582,-0.3914957344532013
1773047907869131000,7.553131103515625,1.3857622146606445,-0.6922049522399902,-0.15658605098724365
1773047907879011800,7.56301171875,0.999506950378418,-0.8479104042053223,-0.5695881843566895
1773047907888960800,7.572960693359375,0.40761852264404297,-0.8781046867370605,-0.5656567811965942
1773047907898964500,7.582964599609375,0.04838895797729492,-0.9057831764221191,-0.15350186824798584
1773047907908919300,7.592919189453125,-0.20572471618652344,-1.0372271537780762,0.11784619092941284
1773047907919099100,7.60309912109375,-0.3331780433654785,-1.2215766906738281,0.23474961519241333
1773047907929279200,7.613279296875,-0.46958017349243164,-1.0414109230041504,0.022246181964874268
1773047907939459300,7.623459228515625,-0.44260740280151367,-0.8140931129455566,0.4736737608909607
1773047907949565000,7.63356494140625,-0.166778564453125,-0.6690449714660645,0.8891522288322449
1773047907959523800,7.64352392578125,0.16159486770629883,-0.6063179969787598,0.7818632125854492
1773047907969514800,7.6535146484375,0.5998754501342773,-0.5258150100708008,0.4893369674682617
1773047907979477200,7.663477294921875,1.0580778121948242,-0.38564491271972656,0.3688141107559204
1773047907989465600,7.673465576171875,1.4471087455749512,-0.2496170997619629,0.43014299869537354
1773047907999430700,7.6834306640625,1.7316575050354004,-0.2543916702270508,0.5025933980941772
1773047908009416700,7.693416748046875,1.747725486755371,-0.35520267486572266,0.49349844455718994
1773047908019384300,7.70338427734375,1.536332130432129,-0.4588284492492676,0.47859829664230347
1773047908029368300,7.713368408203125,1.1892528533935547,-0.5897626876831055,0.501387357711792
1773047908039337700,7.723337646484375,0.9109382629394531,-0.7892918586730957,0.6804487705230713
1773047908049320400,7.733320556640625,0.4792137145996094,-0.7583098411560059,0.23685675859451294
1773047908059291100,7.743291015625,0.14630508422851562,-0.5869712829589844,-0.03930899500846863
1773047908069272600,7.7532724609375,-0.2086772918701172,-0.5417547225952148,0.09266608953475952
1773047908079244800,7.763244873046875,-0.4539813995361328,-0.7247934341430664,0.07587206363677979
1773047908089225200,7.77322509765625,-0.6342582702636719,-0.8661360740661621,-0.10223388671875
1773047908099198200,7.7831982421875,-0.7173242568969727,-0.7877435684204102,-0.17633044719696045
1773047908109177900,7.793177734375,-0.5471668243408203,-0.5553779602050781,-0.1009344756603241
1773047908119151600,7.803151611328125,-0.26857900619506836,-0.33086538314819336,-0.11083674430847168
1773047908129130800,7.813130859375,0.21349716186523438,-0.1714305877685547,-0.20372188091278076
1773047908139105300,7.823105224609375,0.8562030792236328,-0.0729055404663086,-0.15405336022377014
1773047908149084000,7.833083984375,1.461381435394287,-0.08133888244628906,0.03622797131538391
1773047908159058700,7.84305859375,1.9224820137023926,-0.1908092498779297,0.13037052750587463
1773047908169036800,7.853036865234375,2.080233097076416,-0.3472423553466797,0.1805034875869751
1773047908179012000,7.86301220703125,2.1279349327087402,-0.4329953193664551,0.21301186084747314
1773047908188990000,7.872989990234375,1.9283690452575684,-0.5256986618041992,0.17185646295547485
1773047908198965500,7.882965576171875,1.391805648803711,-0.6925878524780273,-0.01130087673664093
1773047908208943400,7.892943359375,0.8282999992370605,-0.903252124786377,-0.1455020010471344
1773047908218823400,7.902823486328125,0.2787752151489258,-1.083282470703125,-0.25690758228302
1773047908228640800,7.912640869140625,-0.2254490852355957,-1.139482021331787,-0.36682626605033875
1773047908238820900,7.92282080078125,-0.7146053314208984,-1.132556438446045,-0.43302735686302185
1773047908248854800,7.932854736328125,-1.0531883239746094,-1.126121997833252,-0.4991719424724579
1773047908258825700,7.94282568359375,-1.2053513526916504,-1.1131772994995117,-0.5606575608253479
1773047908268807200,7.95280712890625,-1.1921024322509766,-1.0491409301757812,-0.5850092768669128
1773047908278779400,7.962779296875,-0.9572196006774902,-0.9811186790466309,-0.6159929037094116
1773047908288759800,7.972759765625,-0.6011366844177246,-0.8952388763427734,-0.5999000668525696
1773047908298732800,7.98273291015625,-0.19376373291015625,-0.8463826179504395,-0.5779401063919067
1773047908308712400,7.99271240234375,0.14808273315429688,-0.7563819885253906,-0.5575738549232483
1773047908318725000,8.00272509765625,0.45136070251464844,-0.6860957145690918,-0.5798271894454956
1773047908328708000,8.0127080078125,0.5897679328918457,-0.6816072463989258,-0.5945497155189514
1773047908338640000,8.022639892578125,0.5651950836181641,-0.6156868934631348,-0.6146048307418823
1773047908348617700,8.03261767578125,0.44042491912841797,-0.5271430015563965,-0.6967819333076477
1773047908358593300,8.04259326171875,0.29172229766845703,-0.468109130859375,-0.7942254543304443
1773047908368571000,8.05257080078125,0.1327075958251953,-0.4614295959472656,-0.8660475611686707
1773047908378547000,8.062546875,-0.06126594543457031,-0.46302175521850586,-0.9031825065612793
1773047908388524300,8.072524169921875,-0.26252269744873047,-0.4859170913696289,-0.9763627052307129
1773047908398500400,8.082500244140626,-0.36739540100097656,-0.5330548286437988,-1.0491029024124146
1773047908408477700,8.092477783203124,-0.40129756927490234,-0.5788707733154297,-1.1052595376968384
1773047908418357500,8.102357421875,-0.3745565414428711,-0.6321673393249512,-1.170843243598938
1773047908428175000,8.112175048828124,-0.34479761123657227,-0.7022747993469238,-1.1798605918884277
1773047908438355200,8.122355224609375,-0.29798126220703125,-0.7696447372436523,-1.1534639596939087
1773047908448389400,8.132389404296875,-0.19570589065551758,-0.8106236457824707,-1.1014981269836426
1773047908458269400,8.14226953125,-0.08986377716064453,-0.8165841102600098,-1.0576752424240112
1773047908468086000,8.1520859375,0.024704456329345703,-0.8022899627685547,-0.9505370855331421
1773047908478081300,8.162081298828125,0.15309810638427734,-0.7680563926696777,-0.8041369915008545
1773047908488043000,8.17204296875,0.27655744552612305,-0.6522254943847656,-0.6594849824905396
1773047908498223000,8.18222314453125,0.38499975204467773,-0.5258026123046875,-0.593365490436554
1773047908508255700,8.192255859375,0.6786437034606934,-0.5506429672241211,-0.39340054988861084
1773047908518220800,8.202220703125,0.9849276542663574,-0.5589947700500488,-0.0868750810623169
1773047908528207000,8.21220703125,1.261681079864502,-0.4854292869567871,0.28792351484298706
1773047908538087200,8.222087158203125,1.5238938331604004,-0.43193912506103516,0.5274054408073425
1773047908547903000,8.231903076171875,1.7907962799072266,-0.4228997230529785,0.6144673228263855
1773047908557895000,8.24189501953125,1.9340977668762207,-0.4543294906616211,0.6672222018241882
1773047908567859200,8.251859130859375,1.9596223831176758,-0.48419189453125,0.8143278956413269
1773047908577848300,8.261848388671876,1.9398770332336426,-0.5036063194274902,0.9156089425086975
1773047908587815200,8.271815185546876,1.832322120666504,-0.5176138877868652,1.0168538093566895
1773047908597995000,8.2819951171875,1.6897802352905273,-0.5022187232971191,1.092305064201355
1773047908608027100,8.292027099609374,1.4396319389343262,-0.47526121139526367,1.1418483257293701
1773047908617988400,8.30198828125,1.1910181045532227,-0.46435117721557617,1.157113790512085
1773047908627977500,8.3119775390625,0.971717357635498,-0.5353183746337891,1.200905203819275
1773047908637941800,8.321941650390626,0.7858028411865234,-0.5578856468200684,1.2754913568496704
1773047908647928600,8.331928466796874,0.589745044708252,-0.5556154251098633,1.2336254119873047
1773047908657895400,8.3418955078125,0.36882829666137695,-0.47075605392456055,1.1760002374649048
1773047908667880200,8.351880126953125,0.23238611221313477,-0.3551812171936035,1.1970887184143066
1773047908677849000,8.36184912109375,0.22738075256347656,-0.3275880813598633,1.2150548696517944
1773047908687832000,8.37183203125,0.31972837448120117,-0.3206748962402344,1.217032790184021
1773047908697802500,8.381802490234374,0.4285573959350586,-0.36859607696533203,1.1894347667694092
1773047908707784400,8.391784423828126,0.45929574966430664,-0.43419885635375977,1.0797853469848633
1773047908717756200,8.401756103515625,0.41339683532714844,-0.5285181999206543,0.9504552483558655
1773047908727736800,8.41173681640625,0.33026552200317383,-0.6192593574523926,0.7729352116584778
1773047908737709600,8.42170947265625,0.22918701171875,-0.7350835800170898,0.5181267261505127
1773047908747689700,8.431689697265625,0.1574554443359375,-0.7509880065917969,0.300335168838501
1773047908757663200,8.441663330078125,0.09979009628295898,-0.737637996673584,0.14256399869918823
1773047908767642600,8.451642578125,0.10286474227905273,-0.7605438232421875,-0.01813274621963501
1773047908777522400,8.4615224609375,0.161224365234375,-0.7996063232421875,-0.17449241876602173
1773047908787339800,8.47133984375,0.2792477607727051,-0.8352670669555664,-0.3083915412425995
1773047908797337300,8.48133740234375,0.3902168273925781,-0.9014296531677246,-0.4475184679031372
1773047908807297300,8.49129736328125,0.47644662857055664,-0.9568252563476562,-0.5579363107681274
1773047908817477400,8.501477294921875,0.5483322143554688,-1.0074915885925293,-0.6836013793945312
1773047908827510500,8.511510498046874,0.6740169525146484,-1.0501441955566406,-0.9158439636230469
1773047908837477000,8.52147705078125,0.7730507850646973,-1.042809009552002,-1.0987534523010254
1773047908847462100,8.531462158203125,0.7700638771057129,-0.9676480293273926,-1.1544872522354126
1773047908857430800,8.5414306640625,0.7088227272033691,-0.863677978515625,-1.1584537029266357
1773047908867414000,8.5514140625,0.53704833984375,-0.8028168678283691,-1.208734393119812
1773047908877384200,8.56138427734375,0.3212437629699707,-0.7603487968444824,-1.2387540340423584
1773047908887366100,8.5713662109375,0.13698053359985352,-0.7255449295043945,-1.2278900146484375
1773047908897337900,8.581337890625,-0.02181243896484375,-0.6682171821594238,-1.2659279108047485
1773047908907318800,8.59131884765625,-0.21857547760009766,-0.6775422096252441,-1.247855305671692
1773047908917291300,8.601291259765626,-0.3971405029296875,-0.7183289527893066,-1.1409423351287842
1773047908927271400,8.611271484375,-0.5008072853088379,-0.7897748947143555,-0.9880895614624023
1773047908937245000,8.621244873046875,-0.5582256317138672,-0.829953670501709,-0.8652607202529907
1773047908947224300,8.631224365234376,-0.5833444595336914,-0.8586344718933105,-0.7151883244514465
1773047908957104400,8.6411044921875,-0.5334892272949219,-0.7895388603210449,-0.5083880424499512
1773047908966921700,8.650921630859376,-0.3903236389160156,-0.6937813758850098,-0.38254088163375854
1773047908976919300,8.660919189453125,-0.13061857223510742,-0.6233644485473633,-0.3135010004043579
1773047908986879200,8.670879150390626,0.22628402709960938,-0.5830621719360352,-0.10845711827278137
1773047908997059000,8.68105908203125,0.5706853866577148,-0.5016884803771973,0.15749359130859375
1773047909007092200,8.69109228515625,0.9038290977478027,-0.4528980255126953,0.275350958108902
1773047909017058800,8.701058837890624,1.2412571907043457,-0.47676515579223633,0.2647181749343872
1773047909027043800,8.7110439453125,1.526740550994873,-0.4792342185974121,0.13676699995994568
1773047909036924000,8.720923828125,1.5994353294372559,-0.4526329040527344,-0.15775299072265625
1773047909046740000,8.730739990234374,1.4703545570373535,-0.4744572639465332,-0.4357331097126007
1773047909056920000,8.740920166015625,1.164635181427002,-0.6216602325439453,-0.5921161770820618
1773047909066953200,8.750953125,0.7212424278259277,-0.7840361595153809,-0.6047186255455017
1773047909076919600,8.76091943359375,0.19696521759033203,-0.8598494529724121,-0.47230064868927
1773047909086904600,8.770904541015625,-0.31832218170166016,-0.8287434577941895,-0.33840006589889526
1773047909096873200,8.780873291015626,-0.7786235809326172,-0.793879508972168,-0.19608280062675476
1773047909106856700,8.790856689453125,-1.1432013511657715,-0.6953005790710449,-0.08198443055152893
1773047909116827000,8.800826904296875,-1.2575931549072266,-0.5295119285583496,0.043229877948760986
1773047909126808800,8.810808837890624,-1.0869207382202148,-0.3028135299682617,0.30851686000823975
1773047909136689000,8.82068896484375,-0.6808815002441406,-0.07604312896728516,0.5957671999931335
1773047909146505500,8.83050537109375,-0.12556838989257812,0.06873464584350586,0.7458040714263916
1773047909156685600,8.840685546875,0.49837732315063477,0.11599588394165039,0.9623000621795654
1773047909166719000,8.850718994140625,1.184272289276123,0.15704631805419922,1.1219367980957031
1773047909176599000,8.86059912109375,1.7722835540771484,0.19287776947021484,1.1317007541656494
1773047909186415000,8.8704150390625,2.1699533462524414,0.1291060447692871,1.0199098587036133
1773047909196595200,8.88059521484375,2.3657336235046387,-0.04156351089477539,0.8605857491493225
1773047909206628400,8.89062841796875,2.277174472808838,-0.2603163719177246,0.6446267366409302
1773047909216594400,8.900594482421875,1.8723573684692383,-0.5134549140930176,0.521718442440033
1773047909226579700,8.910579833984375,1.2805094718933105,-0.7045207023620605,0.40928637981414795
1773047909236548000,8.920548095703126,0.5763602256774902,-0.8640623092651367,0.25839412212371826
1773047909246531600,8.930531494140626,-0.03278541564941406,-0.9593086242675781,0.15516990423202515
1773047909256411600,8.94041162109375,-0.47912025451660156,-1.0525527000427246,0.022795289754867554
1773047909266228000,8.95022802734375,-0.7613329887390137,-1.0920424461364746,-0.12076735496520996
1773047909276222500,8.960222412109376,-0.8198380470275879,-1.1181879043579102,-0.1577073037624359
1773047909286185000,8.97018505859375,-0.6565203666687012,-1.100583553314209,-0.13849416375160217
1773047909296365000,8.980364990234374,-0.3530902862548828,-0.9438824653625488,-0.11131349205970764
1773047909306397700,8.990397705078125,0.09588193893432617,-0.7357087135314941,-0.11813849210739136
1773047909316362200,9.0003623046875,0.6246132850646973,-0.6023011207580566,-0.14214041829109192
1773047909326348800,9.010348876953126,1.1775593757629395,-0.5078506469726562,-0.12388166785240173
1773047909336316000,9.02031591796875,1.6951675415039062,-0.4605855941772461,-0.06048828363418579
1773047909346300700,9.03030078125,2.0368008613586426,-0.40668249130249023,0.012586772441864014
1773047909356269600,9.04026953125,2.1578879356384277,-0.42644596099853516,0.044223129749298096
1773047909366252500,9.05025244140625,2.051473617553711,-0.5131092071533203,-0.05925863981246948
1773047909376132600,9.060132568359375,1.704862117767334,-0.5820727348327637,-0.20550699532032013
1773047909385991700,9.06999169921875,1.2515935897827148,-0.5795769691467285,-0.35745057463645935
1773047909396176600,9.0801767578125,0.8337006568908691,-0.5989313125610352,-0.5036123394966125
1773047909406161700,9.09016162109375,0.4245567321777344,-0.6265058517456055,-0.7131273746490479
1773047909416130000,9.100130126953125,0.10356998443603516,-0.6407022476196289,-0.8455695509910583
1773047909426113500,9.110113525390625,-0.1312112808227539,-0.6726946830749512,-0.7843913435935974
1773047909436083700,9.120083740234374,-0.29978418350219727,-0.7598843574523926,-0.7067803144454956
1773047909446066000,9.13006591796875,-0.4406919479370117,-0.8351731300354004,-0.6214000582695007
1773047909456037400,9.140037353515625,-0.48250293731689453,-0.8220734596252441,-0.5603508353233337
1773047909466018300,9.150018310546875,-0.4877657890319824,-0.8352289199829102,-0.5132973194122314
1773047909475991000,9.159990966796874,-0.433046817779541,-0.7929487228393555,-0.44148027896881104
1773047909485971200,9.16997119140625,-0.2995901107788086,-0.7333540916442871,-0.3010464608669281
1773047909495944700,9.17994482421875,-0.1253662109375,-0.7000579833984375,-0.1785331666469574
1773047909505924000,9.189924072265624,-0.02484750747680664,-0.6981091499328613,-0.12240512669086456
1773047909515898400,9.1998984375,0.09264564514160156,-0.6076879501342773,-0.001852378249168396
1773047909525877200,9.209877197265625,0.16096735000610352,-0.5446491241455078,0.04990798234939575
1773047909535851800,9.219851806640625,0.1902151107788086,-0.4665384292602539,0.1083790734410286
1773047909545830400,9.229830322265625,0.2956838607788086,-0.40279293060302734,0.07297356426715851
1773047909555805400,9.239805419921876,0.3768315315246582,-0.5204529762268066,-0.1874217689037323
1773047909565783600,9.249783447265624,0.42357969284057617,-0.46962642669677734,-0.24614740908145905
1773047909575758800,9.2597587890625,0.4131622314453125,-0.3810410499572754,-0.18106168508529663
1773047909585737000,9.269737060546875,0.3371424674987793,-0.4232206344604492,-0.16616256535053253
1773047909595616800,9.27961669921875,0.26284074783325195,-0.4815864562988281,-0.2536025047302246
1773047909605477000,9.28947705078125,0.1658310890197754,-0.4741945266723633,-0.33738839626312256
1773047909615666000,9.299666015625,0.12174367904663086,-0.4287266731262207,-0.35079243779182434
1773047909625647900,9.30964794921875,0.16305923461914062,-0.4205942153930664,-0.39435437321662903
1773047909635619600,9.31961962890625,0.26527881622314453,-0.4156336784362793,-0.41799068450927734
1773047909645600300,9.329600341796874,0.3521122932434082,-0.4189291000366211,-0.3458497226238251
1773047909655480300,9.339480224609375,0.4239768981933594,-0.43570709228515625,-0.2396247535943985
1773047909665340000,9.34933984375,0.4862184524536133,-0.4332141876220703,-0.09331691265106201
1773047909675332600,9.35933251953125,0.5105228424072266,-0.44067811965942383,0.0572664737701416
1773047909685296600,9.369296630859376,0.5592145919799805,-0.4536705017089844,0.1007935106754303
1773047909695480000,9.37947998046875,0.6176309585571289,-0.46233606338500977,0.15742239356040955
1773047909705466400,9.38946630859375,0.6809172630310059,-0.44759225845336914,0.1990310549736023
1773047909715434000,9.39943408203125,0.6918129920959473,-0.4573478698730469,0.22490492463111877
1773047909725418200,9.409418212890625,0.6936755180358887,-0.44890737533569336,0.2541697323322296
1773047909735387400,9.419387451171875,0.6675472259521484,-0.46073055267333984,0.24393230676651
1773047909745370400,9.429370361328125,0.6564021110534668,-0.42582225799560547,0.15634563565254211
1773047909755341000,9.439341064453124,0.6359267234802246,-0.4393153190612793,0.02989637851715088
1773047909765322800,9.44932275390625,0.6248645782470703,-0.41448307037353516,-0.06993746757507324
1773047909775294700,9.459294677734375,0.5802631378173828,-0.403958797454834,-0.14915433526039124
1773047909785275400,9.469275390625,0.4931063652038574,-0.417755126953125,-0.19025208055973053
1773047909795248400,9.479248291015624,0.3642425537109375,-0.37074708938598633,-0.2328205704689026
1773047909805228300,9.489228271484375,0.18925857543945312,-0.26343393325805664,-0.31033599376678467
1773047909815202000,9.4992021484375,0.0400238037109375,-0.1535334587097168,-0.34001824259757996
1773047909825181200,9.50918115234375,-0.06463479995727539,-0.02167510986328125,-0.4314863979816437
1773047909835155500,9.519155517578126,-0.15871381759643555,0.06115531921386719,-0.5477356910705566
1773047909845134300,9.52913427734375,-0.2617611885070801,0.19608068466186523,-0.5948985815048218
1773047909855109000,9.539109130859375,-0.36405372619628906,0.37798595428466797,-0.5747085809707642
1773047909865087500,9.54908740234375,-0.47884082794189453,0.5006427764892578,-0.5239702463150024
1773047909875062800,9.559062744140626,-0.5917706489562988,0.6025938987731934,-0.4654372036457062
1773047909885040600,9.56904052734375,-0.632014274597168,0.735621452331543,-0.4173046052455902
1773047909894920700,9.578920654296875,-0.6666092872619629,0.8707571029663086,-0.38302069902420044
1773047909904781000,9.588781005859374,-0.7154998779296875,0.9608254432678223,-0.3254489302635193
1773047909914969900,9.598969970703125,-0.7643299102783203,1.0173993110656738,-0.1969614326953888
1773047909924951600,9.60895166015625,-0.7659115791320801,1.026865005493164,-0.08697515726089478
1773047909934923500,9.618923583984374,-0.7106156349182129,1.0034804344177246,-0.06321483850479126
1773047909944904200,9.628904296875,-0.7276391983032227,0.9475374221801758,0.016663968563079834
1773047909954877000,9.638876953125,-0.7451272010803223,0.8589911460876465,0.08674931526184082
1773047909964857000,9.648857177734374,-0.7921361923217773,0.7239799499511719,0.13895267248153687
1773047909974830600,9.65883056640625,-0.7830061912536621,0.5812497138977051,0.07858747243881226
1773047909984810000,9.66881005859375,-0.6893954277038574,0.5027375221252441,0.034258246421813965
1773047909994784300,9.6787841796875,-0.6592512130737305,0.4689016342163086,-0.03885197639465332
1773047910004763100,9.68876318359375,-0.6201252937316895,0.39763307571411133,-0.031140685081481934
1773047910014738000,9.698738037109376,-0.5238533020019531,0.2931995391845703,-0.042440831661224365
1773047910024716300,9.70871630859375,-0.4326176643371582,0.20819425582885742,-0.17821353673934937
1773047910034691300,9.71869140625,-0.2941098213195801,0.18125391006469727,-0.2535568177700043
1773047910044669400,9.72866943359375,-0.19480466842651367,0.13161945343017578,-0.27906134724617004
1773047910054645000,9.73864501953125,-0.1299142837524414,0.040355682373046875,-0.24989715218544006
1773047910064622800,9.748622802734374,-0.060975074768066406,-0.0926814079284668,-0.23252123594284058
1773047910074503000,9.7585029296875,-0.04980278015136719,-0.1913447380065918,-0.19318199157714844
1773047910084363300,9.76836328125,-0.028901100158691406,-0.24208641052246094,-0.17408356070518494
1773047910094358000,9.77835791015625,-0.05045795440673828,-0.24560928344726562,-0.1790018379688263
1773047910104320300,9.7883203125,-0.06121015548706055,-0.21712255477905273,-0.1317964792251587
1773047910114505700,9.798505615234374,-0.02790355682373047,-0.15655946731567383,-0.07035952806472778
1773047910124490200,9.808490234375,-0.05139875411987305,-0.09228324890136719,-0.10771316289901733
1773047910134459100,9.818459228515625,-0.07935714721679688,0.009818077087402344,-0.10714495182037354
1773047910144442400,9.8284423828125,-0.16012048721313477,0.12655401229858398,-0.0927770733833313
1773047910154322400,9.838322509765625,-0.16970586776733398,0.22470712661743164,-0.08709895610809326
1773047910164181500,9.848181396484375,-0.18972301483154297,0.337979793548584,-0.11341136693954468
1773047910174366500,9.858366455078125,-0.13423585891723633,0.5094614028930664,-0.05746203660964966
1773047910184351500,9.8683515625,-0.0036339759826660156,0.6388182640075684,-0.13339990377426147
1773047910194320100,9.878320068359375,0.06841325759887695,0.6875543594360352,-0.21638447046279907
1773047910204303400,9.888303466796875,0.21651458740234375,0.6595759391784668,-0.20048046112060547
1773047910214273500,9.8982734375,0.3316192626953125,0.6110563278198242,-0.11447405815124512
1773047910224255700,9.908255859375,0.41469907760620117,0.5314359664916992,-0.03579509258270264
1773047910234227200,9.918227294921875,0.404447078704834,0.4341273307800293,0.03122711181640625
1773047910244208400,9.92820849609375,0.29695701599121094,0.2753300666809082,0.03904759883880615
1773047910254088200,9.938088134765625,0.1540699005126953,0.10363626480102539,-0.017022132873535156
1773047910263947800,9.94794775390625,0.027006149291992188,-0.02171611785888672,-0.10343188047409058
1773047910274134300,9.95813427734375,-0.11102771759033203,-0.08508062362670898,-0.13186359405517578
1773047910284118000,9.968117919921875,-0.23279380798339844,-0.1376056671142578,-0.13239294290542603
1773047910293998000,9.977998046875,-0.3481326103210449,-0.17463064193725586,-0.10505878925323486
1773047910303857200,9.987857177734375,-0.42441511154174805,-0.16778802871704102,-0.12634658813476562
1773047910314041600,9.99804150390625,-0.4627065658569336,-0.11239385604858398,-0.22037959098815918
1773047910324027000,10.00802685546875,-0.4785442352294922,-0.055217742919921875,-0.2646105885505676
1773047910333995000,10.0179951171875,-0.4628615379333496,0.03652191162109375,-0.1743525266647339
1773047910343979000,10.02797900390625,-0.4118647575378418,0.08725261688232422,-0.11553603410720825
1773047910353948700,10.03794873046875,-0.3212127685546875,0.1442885398864746,-0.10990196466445923
1773047910363931100,10.04793115234375,-0.21904516220092773,0.23008155822753906,-0.09063190221786499
1773047910373902300,10.05790234375,-0.20401287078857422,0.3294219970703125,-0.07157230377197266
1773047910383883800,10.0678837890625,-0.17072057723999023,0.3566441535949707,0.014934301376342773
1773047910393856000,10.07785595703125,-0.06772518157958984,0.34583425521850586,0.013375639915466309
1773047910403836400,10.08783642578125,0.0285186767578125,0.37766218185424805,-0.028051912784576416
1773047910413809700,10.0978095703125,0.17970943450927734,0.36629724502563477,-0.0812305212020874
1773047910423789300,10.107789306640624,0.2772941589355469,0.3164405822753906,-0.09027737379074097
1773047910433763300,10.117763427734374,0.26198387145996094,0.2557373046875,-0.09407216310501099
1773047910443742500,10.127742431640625,0.16900110244750977,0.1932668685913086,-0.10657119750976562
1773047910453717000,10.137717041015625,0.04204845428466797,0.1809525489807129,-0.19456887245178223
1773047910463695400,10.1476953125,-0.1426372528076172,0.17197179794311523,-0.25862550735473633
1773047910473670400,10.15767041015625,-0.2955951690673828,0.15803909301757812,-0.3458826541900635
1773047910483648800,10.167648681640625,-0.3571205139160156,0.13580560684204102,-0.39977943897247314
1773047910493528800,10.17752880859375,-0.3807692527770996,0.10111188888549805,-0.3982712924480438
1773047910503389000,10.187388916015625,-0.40485048294067383,0.11075878143310547,-0.3665505051612854
1773047910513577500,10.197577392578125,-0.4058089256286621,0.16391563415527344,-0.257394403219223
1773047910523559400,10.207559326171875,-0.37949228286743164,0.18921661376953125,-0.19741714000701904
1773047910533531100,10.21753125,-0.2980527877807617,0.1587214469909668,-0.10034620761871338
1773047910543512000,10.227511962890626,-0.11563587188720703,0.12077569961547852,-0.08873879909515381
1773047910553484800,10.23748486328125,0.10518598556518555,0.12235307693481445,-0.0730443000793457
1773047910563465000,10.24746484375,0.21393489837646484,0.12884235382080078,0.0027635693550109863
1773047910573438500,10.2574384765625,0.2652435302734375,0.08229398727416992,0.1341802477836609
1773047910583417900,10.26741796875,0.2325887680053711,0.024821758270263672,0.21336734294891357
1773047910593391900,10.277391845703125,0.15506219863891602,-0.015144824981689453,0.21741747856140137
1773047910603371000,10.28737109375,0.08884572982788086,0.015297412872314453,0.15651947259902954
1773047910613345500,10.297345458984376,0.037618160247802734,0.054874420166015625,0.050160348415374756
1773047910623324200,10.30732421875,0.019568920135498047,0.04268836975097656,-0.0018122196197509766
1773047910633299200,10.31729931640625,0.029548168182373047,0.035944461822509766,-0.023688554763793945
1773047910643277300,10.32727734375,0.001651763916015625,0.05762290954589844,-0.031121492385864258
1773047910653252900,10.3372529296875,-0.07211923599243164,0.12518644332885742,-0.03444391489028931
1773047910663230700,10.347230712890624,-0.19577932357788086,0.1673126220703125,-0.01945418119430542
1773047910673206500,10.35720654296875,-0.32179689407348633,0.1706538200378418,-0.018393218517303467
1773047910683184000,10.36718408203125,-0.37102508544921875,0.1746377944946289,-0.0823594331741333
1773047910693160000,10.377159912109375,-0.3124995231628418,0.18968534469604492,-0.14065110683441162
1773047910703137500,10.387137451171874,-0.1811060905456543,0.2441244125366211,-0.13769054412841797
1773047910713113600,10.397113525390624,-0.09038305282592773,0.2940082550048828,-0.08812683820724487
1773047910723091000,10.407091064453125,-0.0006327629089355469,0.22935152053833008,-0.03440558910369873
1773047910733067300,10.4170673828125,-0.005519866943359375,0.1739029884338379,-0.00034433603286743164
1773047910743044400,10.42704443359375,-0.02354907989501953,0.20771503448486328,-0.0279921293258667
1773047910753020700,10.437020751953124,-0.036398887634277344,0.17945623397827148,-0.040362000465393066
1773047910762998000,10.446998046875,0.012041568756103516,0.12339353561401367,-0.041557371616363525
1773047910772877800,10.4568779296875,0.05952644348144531,0.06826305389404297,-0.06946110725402832
1773047910782738200,10.46673828125,0.09713220596313477,0.01357412338256836,-0.11041766405105591
1773047910792734000,10.47673388671875,0.026630878448486328,-0.00821828842163086,-0.12738430500030518
1773047910802695400,10.4866953125,-0.12211799621582031,0.012112617492675781,-0.14055567979812622
1773047910812881400,10.49688134765625,-0.2587294578552246,0.022541522979736328,-0.16413265466690063
1773047910822865700,10.50686572265625,-0.3183937072753906,0.005468845367431641,-0.19755280017852783
1773047910832835000,10.5168349609375,-0.22318172454833984,-0.0187530517578125,-0.2409750521183014
1773047910842817800,10.52681787109375,-0.10722970962524414,-0.007840156555175781,-0.243650883436203
1773047910852788700,10.536788818359375,-0.0832209587097168,0.022609710693359375,-0.17275184392929077
1773047910862770200,10.546770263671876,-0.05948352813720703,0.028874874114990234,-0.05614650249481201
1773047910872742100,10.5567421875,-0.045137882232666016,0.034511566162109375,-0.021456539630889893
1773047910882722800,10.566722900390625,-0.04952859878540039,0.0538177490234375,0.021661877632141113
1773047910892695800,10.57669580078125,-0.02585124969482422,0.1012868881225586,-0.01526951789855957
1773047910902675700,10.58667578125,0.0626688003540039,0.14395809173583984,-0.06925851106643677
1773047910912649500,10.5966494140625,0.19623184204101562,0.11587667465209961,-0.08374375104904175
1773047910922628900,10.60662890625,0.26642370223999023,0.09284687042236328,-0.06935930252075195
1773047910932603100,10.61660302734375,0.3222990036010742,0.11608457565307617,-0.0646466612815857
1773047910942581800,10.626581787109375,0.2894306182861328,0.1462554931640625,-0.05479186773300171
1773047910952461800,10.6364619140625,0.16472816467285156,0.11694145202636719,-0.009839236736297607
1773047910962321700,10.64632177734375,0.09998226165771484,0.07187795639038086,-0.037403762340545654
1773047910972510000,10.656510009765626,0.10313653945922852,0.04966926574707031,-0.10864663124084473
1773047910982492400,10.666492431640625,0.08745098114013672,0.0465998649597168,-0.12190830707550049
1773047910992463600,10.676463623046875,-0.017300128936767578,0.062407493591308594,-0.11728394031524658
1773047911002444800,10.68644482421875,-0.10565853118896484,0.04922056198120117,-0.0433003306388855
1773047911012417300,10.696417236328125,-0.21071720123291016,0.02610635757446289,0.02427583932876587
1773047911022397700,10.706397705078125,-0.3326249122619629,0.02199268341064453,0.04327285289764404
1773047911032371000,10.716370849609374,-0.3916606903076172,0.03731393814086914,-0.01858144998550415
1773047911042350600,10.7263505859375,-0.40872716903686523,0.06826353073120117,-0.0563240647315979
1773047911052324600,10.73632470703125,-0.3568878173828125,0.06825733184814453,-0.04711860418319702
1773047911062303700,10.7463037109375,-0.24668216705322266,0.02838134765625,-0.04856234788894653
1773047911072278300,10.7562783203125,-0.1678609848022461,0.07571125030517578,-0.056809842586517334
1773047911082257000,10.7662568359375,-0.14725923538208008,0.11829566955566406,0.017309486865997314
1773047911092231700,10.776231689453125,-0.15981054306030273,0.14125728607177734,0.10337358713150024
1773047911102210000,10.7862099609375,-0.19548797607421875,0.08813333511352539,0.16555064916610718
1773047911112185300,10.796185302734376,-0.1414966583251953,0.07850265502929688,0.11118495464324951
1773047911122163200,10.8061630859375,0.004879474639892578,0.051115989685058594,0.04496634006500244
1773047911132139000,10.816138916015625,0.14316082000732422,0.06299495697021484,0.00338137149810791
1773047911142116600,10.82611669921875,0.2697138786315918,0.08884763717651367,0.0422215461730957
1773047911152093400,10.836093505859376,0.31069469451904297,0.06560564041137695,0.09477800130844116
1773047911172046800,10.856046875,0.12987518310546875,-0.02351236343383789,0.03973478078842163
1773047911182023000,10.86602294921875,0.04545879364013672,0.030084609985351562,0.004026949405670166
1773047911192000300,10.876000244140625,-0.023734092712402344,0.05015230178833008,-0.08239156007766724
1773047911201976600,10.8859765625,0.015698909759521484,0.023706436157226562,-0.10059249401092529
1773047911211954000,10.895953857421874,0.011308670043945312,-0.015499591827392578,-0.033470332622528076
1773047911221930200,10.90593017578125,0.011473655700683594,-0.020768165588378906,-0.04797440767288208
1773047911231907300,10.9159072265625,-0.03519630432128906,0.02558755874633789,-0.08150601387023926
1773047911241883600,10.925883544921875,-0.09002447128295898,0.04696321487426758,-0.09947168827056885
1773047911251860700,10.93586083984375,-0.12022876739501953,0.020534992218017578,-0.12961870431900024
1773047911261837300,10.94583740234375,-0.10310792922973633,-0.000537872314453125,-0.2239876389503479
1773047911271814400,10.955814453125,-0.006797313690185547,0.03129386901855469,-0.2844434678554535
1773047911281791000,10.965791015625,0.002880096435546875,0.044312477111816406,-0.2519312798976898
1773047911291767800,10.975767822265626,-0.006091594696044922,0.08988809585571289,-0.1940518021583557
1773047911301744400,10.985744384765624,-0.10852336883544922,0.021164417266845703,-0.1103464663028717
1773047911311721500,10.995721435546875,-0.16650676727294922,-0.009098052978515625,-0.024195075035095215
1773047911321698000,11.005697998046875,-0.1764688491821289,0.046019554138183594,-0.08631181716918945
1773047911331675000,11.0156748046875,-0.16360807418823242,0.11074686050415039,-0.11967960000038147
1773047911341651700,11.025651611328126,-0.07207393646240234,0.1145787239074707,-0.09139972925186157
1773047911351628500,11.035628662109374,0.05489397048950195,0.0956416130065918,-0.0870315432548523
1773047911361566500,11.04556640625,0.13282155990600586,0.06747102737426758,-0.05982863903045654
1773047911371539500,11.05553955078125,0.11135387420654297,0.07190132141113281,0.03171396255493164
1773047911381558800,11.065558837890626,-0.012253761291503906,0.12205648422241211,0.07920491695404053
1773047911391536400,11.075536376953124,-0.08104705810546875,0.09470319747924805,0.10435187816619873
1773047911401512400,11.085512451171875,-0.07775497436523438,0.03421211242675781,0.0847441554069519
1773047911411489800,11.09548974609375,-0.018288135528564453,-0.0015349388122558594,-0.0037575364112854004
1773047911421465900,11.1054658203125,0.025493144989013672,0.006432056427001953,-0.04434412717819214
1773047911431443200,11.115443115234376,0.002338886260986328,0.03353261947631836,-0.019281744956970215
1773047911441419500,11.12541943359375,-0.07690095901489258,-0.01985788345336914,0.037863075733184814
1773047911451396900,11.13539697265625,-0.1544642448425293,-0.049252986907958984,0.05653482675552368
1773047911461334300,11.145334228515624,-0.18368148803710938,-0.059295654296875,0.004387497901916504
1773047911471307500,11.1553076171875,-0.10968399047851562,-0.01634693145751953,-0.07990217208862305
1773047911481326600,11.16532666015625,0.01855945587158203,0.00822591781616211,-0.07757610082626343
1773047911491304400,11.175304443359375,0.13462257385253906,0.009516239166259766,-0.050954341888427734
1773047911501280300,11.1852802734375,0.2205796241760254,0.020161151885986328,-0.08654147386550903
1773047911511257900,11.1952578125,0.20237302780151367,0.03921794891357422,-0.10004106163978577
1773047911521234000,11.20523388671875,0.13861989974975586,0.10843849182128906,-0.03495138883590698
1773047911531211300,11.215211181640624,0.044268131256103516,0.16078519821166992,0.07665163278579712
1773047911541187600,11.2251875,-0.01474761962890625,0.12162637710571289,0.09452539682388306
1773047911551165000,11.2351650390625,0.025947093963623047,0.06423664093017578,0.08634734153747559
1773047911561141000,11.24514111328125,0.12647104263305664,0.0650949478149414,0.06002110242843628
1773047911571118300,11.255118408203124,0.1449275016784668,0.10408544540405273,0.10877585411071777
1773047911581094700,11.2650947265625,0.045701026916503906,0.04784202575683594,0.128587007522583
1773047911591071700,11.27507177734375,-0.05119466781616211,-0.03191566467285156,0.13511532545089722
1773047911601048300,11.28504833984375,-0.14602041244506836,-0.06860733032226562,0.10031050443649292
1773047911611025200,11.295025146484376,-0.20184659957885742,-0.033826351165771484,-0.10265079140663147
1773047911621001700,11.305001708984374,-0.2153167724609375,0.025066375732421875,-0.17525076866149902
1773047911630978800,11.314978759765625,-0.18252325057983398,-0.005208492279052734,-0.1763719916343689
1773047911640955400,11.324955322265625,-0.06632757186889648,-0.05280494689941406,-0.16863477230072021
1773047911650932500,11.334932373046875,0.00543975830078125,-0.038136959075927734,-0.17180848121643066
1773047911660908800,11.34490869140625,-0.017361164093017578,0.0037941932678222656,-0.1348215937614441
1773047911670886000,11.354885986328124,-0.11871910095214844,0.06739950180053711,-0.06704750657081604
1773047911680862500,11.364862548828125,-0.20814132690429688,0.06775999069213867,-0.04277241230010986
1773047911690839300,11.37483935546875,-0.23031854629516602,0.04469633102416992,-0.046283215284347534
1773047911700816100,11.384816162109376,-0.14011907577514648,0.05145597457885742,-0.08753746747970581
1773047911710793000,11.39479296875,-0.06683158874511719,0.0597071647644043,-0.058645933866500854
1773047911720769800,11.404769775390625,-0.02847576141357422,0.08290767669677734,0.025296688079833984
1773047911730746600,11.41474658203125,-0.04712867736816406,0.0678563117980957,0.08947306871414185
1773047911740684300,11.424684326171874,-0.05096149444580078,0.014849185943603516,0.111239492893219
1773047911750657300,11.4346572265625,-0.0030689239501953125,0.03816699981689453,0.09086567163467407
1773047911760638000,11.444637939453125,0.052729129791259766,0.02889537811279297,0.09055882692337036
1773047911770611700,11.45461181640625,0.16789913177490234,0.02542400360107422,0.0587807297706604
1773047911780591600,11.464591552734374,0.2949385643005371,-0.03417634963989258,0.00022161006927490234
1773047911790566000,11.47456591796875,0.35910797119140625,-0.09332418441772461,-0.08081567287445068
1773047911800545000,11.484544921875,0.301114559173584,-0.07290887832641602,-0.12860149145126343
1773047911810519800,11.494519775390625,0.13296747207641602,-0.05964183807373047,-0.11575591564178467
1773047911820498700,11.504498779296876,-0.035778045654296875,-0.02924060821533203,-0.05672010779380798
1773047911830474000,11.514473876953126,-0.14494657516479492,-0.009068012237548828,-0.09282785654067993
1773047911840452400,11.524452392578125,-0.12580060958862305,-0.007319927215576172,-0.11883467435836792
1773047911850428000,11.534427978515625,-0.09857463836669922,0.02861309051513672,-0.11685693264007568
1773047911860444700,11.544444580078125,-0.06807136535644531,0.06989336013793945,-0.07365447282791138
1773047911870424300,11.55442431640625,-0.062056541442871094,0.08280038833618164,0.0011218786239624023
1773047911880398000,11.564398193359375,-0.07949638366699219,0.06234884262084961,0.05537068843841553
1773047911890377200,11.574377197265624,-0.06322193145751953,0.08401870727539062,0.09997725486755371
1773047911900313000,11.58431298828125,-0.023356914520263672,0.11424779891967773,0.09354257583618164
1773047911910287600,11.59428759765625,0.0020079612731933594,0.11520910263061523,0.11757594347000122
1773047911920227800,11.604227783203125,0.06512641906738281,0.06833028793334961,0.09118670225143433
1773047911930199000,11.614198974609375,0.08057260513305664,0.007608890533447266,0.02235931158065796
1773047911940142600,11.624142578125,0.02583932876586914,0.0038061141967773438,-0.005644500255584717
1773047911950111000,11.634111083984376,-0.09346961975097656,0.018613338470458984,-0.002805769443511963
1773047911959991000,11.643990966796874,-0.2434844970703125,-0.009458541870117188,0.008836686611175537
1773047911969870800,11.653870849609374,-0.29260873794555664,-0.06484079360961914,0.04507708549499512
1773047911979971800,11.663971923828125,-0.24793148040771484,-0.11331939697265625,-0.030957698822021484
1773047911989938200,11.673938232421875,-0.1726226806640625,-0.11202049255371094,-0.09218305349349976
1773047911999886600,11.683886474609375,-0.10469198226928711,-0.07129955291748047,-0.0739978551864624
1773047912009851100,11.69385107421875,-0.07152986526489258,-0.04449319839477539,-0.019706785678863525
1773047912020031000,11.704031005859376,-0.014958381652832031,-0.0421299934387207,0.028615474700927734
1773047912030076400,11.714076416015626,0.008014202117919922,0.039849281311035156,-0.026965558528900146
1773047912039956500,11.72395654296875,0.05407238006591797,0.09695911407470703,-0.04338967800140381
1773047912049836500,11.73383642578125,0.08481454849243164,0.18170881271362305,-0.053067535161972046
1773047912059716400,11.74371630859375,0.27466773986816406,0.16182661056518555,-0.14999818801879883
1773047912069600500,11.7536005859375,0.4191884994506836,0.14669466018676758,-0.08935612440109253
1773047912079506400,11.76350634765625,0.44473838806152344,0.12107563018798828,-0.05814740061759949
1773047912089470200,11.77347021484375,0.3398308753967285,0.11266517639160156,-0.013923406600952148
1773047912099421200,11.783421142578124,0.1962718963623047,0.10680723190307617,0.05781644582748413
1773047912109383700,11.7933837890625,0.018760204315185547,0.0052547454833984375,0.03525269031524658
1773047912119336000,11.8033359375,-0.122833251953125,-0.07115840911865234,-0.028042972087860107
1773047912129297400,11.81329736328125,-0.16895771026611328,-0.09322452545166016,-0.053093284368515015
1773047912139250700,11.823250732421876,-0.23913145065307617,-0.14155101776123047,-0.06064492464065552
1773047912149211400,11.83321142578125,-0.31426334381103516,-0.182586669921875,-0.027355462312698364
1773047912159126800,11.843126708984375,-0.36082887649536133,-0.18879079818725586,0.03706979751586914
1773047912169083000,11.853082763671875,-0.37008047103881836,-0.14639759063720703,0.009730875492095947
1773047912179003000,11.8630029296875,-0.33355140686035156,-0.09819269180297852,-0.023320317268371582
1773047912188955400,11.872955322265625,-0.24737071990966797,-0.0018506050109863281,-0.07085216045379639
1773047912198956000,11.8829560546875,-0.09298276901245117,0.03285408020019531,-0.05675676465034485
1773047912208913400,11.892913330078125,0.04930448532104492,0.020061016082763672,-0.043194591999053955
1773047912219093500,11.903093505859376,0.14738893508911133,0.0729222297668457,-0.00788336992263794
1773047912229273300,11.9132734375,0.12286758422851562,0.14691400527954102,0.06294065713882446
1773047912239453400,11.923453369140624,0.04830026626586914,0.19458389282226562,0.11853569746017456
1773047912249559000,11.93355908203125,0.013357162475585938,0.18381881713867188,0.20027703046798706
1773047912259515600,11.943515625,0.049776554107666016,0.11139822006225586,0.14901697635650635
1773047912269508600,11.953508544921876,0.11836433410644531,0.0965280532836914,0.03204214572906494
1773047912279469300,11.96346923828125,0.20416545867919922,0.11990213394165039,0.0372469425201416
1773047912289459200,11.973459228515624,0.23688650131225586,0.043717384338378906,0.13791853189468384
1773047912299423000,11.983423095703126,0.13355636596679688,-0.05600118637084961,0.13391095399856567
1773047912309410000,11.99341015625,0.004790306091308594,-0.08463716506958008,0.05396008491516113
1773047912319376600,12.003376708984375,-0.0838017463684082,-0.08956670761108398,-0.030485570430755615
1773047912329361700,12.013361572265625,-0.13398122787475586,-0.05582857131958008,-0.0906417965888977
1773047912339330300,12.023330322265625,-0.09499216079711914,-0.030749797821044922,-0.0932474136352539
1773047912349313800,12.033313720703125,-0.03433036804199219,-0.004641532897949219,-0.05836787819862366
1773047912359284000,12.043283935546874,0.08111333847045898,-0.06746959686279297,0.012088596820831299
1773047912369266000,12.053265869140626,0.09599971771240234,-0.0257568359375,-0.08094841241836548
1773047912379237600,12.063237548828125,0.04082155227661133,0.07560586929321289,-0.09804654121398926
1773047912389218600,12.073218505859375,0.0578312873840332,0.09915018081665039,-0.06253957748413086
1773047912399191000,12.08319091796875,0.07005691528320312,0.0042400360107421875,-0.049906522035598755
1773047912409171200,12.093171142578125,0.10086536407470703,-0.018641948699951172,-0.053398728370666504
1773047912419144700,12.103144775390625,0.1311359405517578,-0.008349418640136719,0.0021497011184692383
1773047912429124000,12.1131240234375,0.13271617889404297,-0.031343936920166016,0.020207703113555908
1773047912439098400,12.123098388671876,0.09753084182739258,-0.06918191909790039,0.06651651859283447
1773047912449077200,12.1330771484375,-0.044409751892089844,-0.0463099479675293,0.07941022515296936
1773047912459051800,12.1430517578125,-0.12227630615234375,-0.0055713653564453125,-0.020701617002487183
1773047912469030400,12.153030517578125,-0.20833206176757812,0.039278507232666016,-0.11420068144798279
1773047912479005400,12.16300537109375,-0.251065731048584,0.02277517318725586,-0.18750306963920593
1773047912488983600,12.172983642578124,-0.20412206649780273,0.01196432113647461,-0.24698951840400696
1773047912498959000,12.182958984375,-0.1530919075012207,0.024974346160888672,-0.22464263439178467
1773047912508937000,12.19293701171875,-0.14459991455078125,0.023272991180419922,-0.1948615461587906
1773047912518912500,12.20291259765625,-0.22925138473510742,0.044226646423339844,-0.12968116998672485
1773047912528890400,12.212890380859376,-0.3818831443786621,0.016663074493408203,0.033117979764938354
1773047912538866200,12.2228662109375,-0.5032052993774414,-0.02961111068725586,0.25138619542121887
1773047912548843800,12.23284375,-0.4203815460205078,-0.055739402770996094,0.26256263256073
1773047912558819800,12.24281982421875,-0.4290947914123535,-0.1510930061340332,0.1781778335571289
1773047912568797200,12.252797119140626,-0.43041229248046875,-0.07714509963989258,0.2042112946510315
1773047912578773200,12.262773193359376,-0.2329859733581543,-0.08927536010742188,0.24650883674621582
1773047912588750600,12.27275048828125,-0.08905696868896484,-0.15883636474609375,0.3886339068412781
1773047912598727000,12.282726806640625,0.15333271026611328,-0.045522212982177734,0.5147619843482971
1773047912608704000,12.2927041015625,0.4042224884033203,0.07652854919433594,0.6038358807563782
1773047912618680600,12.3026806640625,0.6409683227539062,0.12581253051757812,0.5863794684410095
1773047912628657700,12.31265771484375,0.9119558334350586,0.10228919982910156,0.45919740200042725
1773047912638634000,12.322634033203125,1.0718731880187988,0.11885786056518555,0.2605143189430237
1773047912648611000,12.332611083984375,1.1140975952148438,0.20204830169677734,0.023894786834716797
1773047912658587600,12.342587646484375,1.0650835037231445,0.26018190383911133,-0.20291882753372192
1773047912668564500,12.352564453125,0.8325667381286621,0.20854902267456055,-0.4204006791114807
1773047912678541000,12.362541015625,0.47527265548706055,0.1819624900817871,-0.5256099700927734
1773047912688518100,12.37251806640625,0.3423123359680176,0.3090543746948242,-0.4702224135398865
1773047912698398200,12.382398193359375,0.23214244842529297,0.14504146575927734,-0.6370509266853333
1773047912708258600,12.392258544921875,-0.026045799255371094,-0.11089038848876953,-0.6906819343566895
1773047912718448000,12.4024482421875,-0.2513728141784668,-0.18361520767211914,-0.45768076181411743
1773047912728429300,12.41242919921875,-0.40758705139160156,-0.16935253143310547,-0.1411605179309845
1773047912738401800,12.42240185546875,-0.5902338027954102,-0.21545839309692383,-0.01738867163658142
1773047912748382000,12.4323818359375,-0.748171329498291,-0.1972517967224121,0.025578588247299194
1773047912758355500,12.44235546875,-0.8174505233764648,-0.11395120620727539,0.03963518142700195
1773047912768334800,12.4523349609375,-0.7965893745422363,-0.011759757995605469,0.04066374897956848
1773047912778308900,12.462308837890625,-0.5512471199035645,0.04857826232910156,0.07325120270252228
1773047912788288000,12.4722880859375,-0.3003063201904297,0.12264299392700195,0.3167286515235901
1773047912798262500,12.482262451171875,-0.1163778305053711,0.10350656509399414,0.4689503014087677
1773047912808241200,12.4922412109375,0.007521629333496094,0.10911321640014648,0.4579133987426758
1773047912818216000,12.5022158203125,0.04078340530395508,0.0855708122253418,0.5624580383300781
1773047912828194300,12.5121943359375,-0.07496500015258789,-0.015386581420898438,0.6462072134017944
1773047912838169600,12.522169677734375,-0.29913759231567383,-0.05650949478149414,0.6009703874588013
1773047912848147700,12.532147705078126,-0.5077271461486816,-0.10920429229736328,0.7141892910003662
1773047912858123300,12.542123291015624,-0.6830835342407227,-0.18161439895629883,0.7765909433364868
1773047912868101000,12.55210107421875,-0.7240099906921387,-0.2523808479309082,0.6471267342567444
1773047912877981000,12.56198095703125,-0.6435179710388184,-0.2727937698364258,0.5487268567085266
1773047912887841300,12.57184130859375,-0.4352555274963379,-0.2989077568054199,0.41462135314941406
1773047912898030300,12.5820302734375,-0.12574243545532227,-0.27303314208984375,0.3533586859703064
1773047912908011800,12.59201171875,0.17137622833251953,-0.2207479476928711,0.37850743532180786
1773047912917983700,12.601983642578125,0.4893956184387207,-0.12373685836791992,0.29678499698638916
1773047912927964400,12.61196435546875,0.7911992073059082,-0.21929931640625,0.12269274890422821
1773047912937937400,12.6219375,1.0276083946228027,-0.22247886657714844,0.18177911639213562
1773047912947917300,12.631917236328125,1.1938538551330566,-0.03705739974975586,0.13865485787391663
1773047912957891000,12.64189111328125,1.252842903137207,0.05806684494018555,-0.09428620338439941
1773047912967870200,12.6518701171875,1.1435589790344238,0.023808002471923828,-0.392670214176178
