time,seconds_elapsed,z,y,x
1773047900526922000,0.210921875,0.37151068449020386,0.23861905932426453,0.24181485176086426
1773047900546875100,0.230875244140625,0.41944757103919983,0.3249054253101349,0.32277488708496094
1773047900566750000,0.25075,0.5099949836730957,0.3962780833244324,0.35899385809898376
1773047900596767000,0.28076708984375,0.49827706813812256,0.52837073802948,0.10865689069032669
1773047900616714000,0.3007138671875,0.4961465299129486,0.6741787195205688,0.018242640420794487
1773047900626688800,0.310688720703125,0.525973916053772,0.7114629745483398,-0.01584579609334469
1773047900636665900,0.320665771484375,0.5760413408279419,0.7146587371826172,-0.02756369672715664
1773047900646642000,0.330641845703125,0.6323671340942383,0.7093324065208435,-0.003062632866203785
1773047900656618800,0.34061865234375,0.6664555668830872,0.6613955497741699,0.03635212033987045
1773047900666595000,0.350594970703125,0.6568682193756104,0.5347623229026794,0.07350318878889084
1773047900676571600,0.360571533203125,0.6355628967285156,0.38456016778945923,0.08735162019729614
1773047900686451700,0.37045166015625,0.6281060576438904,0.25566327571868896,0.08522108942270279
1773047900696331800,0.380331787109375,0.6154560446739197,0.13528847694396973,0.07350318878889084
1773047900706499000,0.3904990234375,0.6058686971664429,0.05020054802298546,0.05659212917089462
1773047900716552000,0.400552001953125,0.5643234252929688,-0.05952160432934761,0.026764748618006706
1773047900736446000,0.420446044921875,0.48336338996887207,-0.21931114792823792,-0.07123950868844986
1773047900746325800,0.43032568359375,0.5025381445884705,-0.19374482333660126,-0.12237215787172318
1773047900756205800,0.440205810546875,0.513190746307373,-0.15646059811115265,-0.17457008361816406
1773047900766127900,0.4501279296875,0.4876244366168976,-0.09574057161808014,-0.19800588488578796
1773047900776086500,0.46008642578125,0.44288337230682373,-0.012650005519390106,-0.18948377668857574
1773047900786266600,0.4702666015625,0.3981422781944275,0.08748477697372437,-0.16178691387176514
1773047900796379000,0.48037890625,0.3512706756591797,0.1789642870426178,-0.11385004967451096
1773047900806266600,0.4902666015625,0.2990727722644806,0.24394537508487701,-0.048868969082832336
1773047900816261400,0.500261474609375,0.27244117856025696,0.2918822467327118,0.027830012142658234
1773047900826220000,0.510219970703125,0.2852243483066559,0.3238401412963867,0.10972215235233307
1773047900836200400,0.520200439453125,0.2905506491661072,0.3238401412963867,0.17257271707057953
1773047900846173400,0.53017333984375,0.2745717167854309,0.30892646312713623,0.21731378138065338
1773047900856150800,0.54015087890625,0.2522011697292328,0.34940648078918457,0.26098960638046265
1773047900866126600,0.550126708984375,0.22237378358840942,0.4090612530708313,0.2918822467327118
1773047900876103200,0.560103271484375,0.18402428925037384,0.3898864984512329,0.28975170850753784
1773047900886079700,0.570079833984375,0.16911059617996216,0.3621896505355835,0.2684464454650879
1773047900896056300,0.580056396484375,0.1712411344051361,0.3941475450992584,0.2492716908454895
1773047900906033000,0.590032958984375,0.15845796465873718,0.4186486005783081,0.22796641290187836
1773047900916009500,0.600009521484375,0.12223900109529495,0.4474107325077057,0.19387798011302948
1773047900925889300,0.60988916015625,0.08282424509525299,0.5123918056488037,0.15233269333839417
1773047900935707000,0.619706787109375,0.06804371625185013,0.45486757159233093,0.055526867508888245
1773047900945706200,0.629706298828125,0.0913463607430458,0.26631590723991394,-0.07763108611106873
1773047900955664400,0.639664306640625,0.10412952303886414,0.03209106624126434,-0.21824589371681213
1773047900965659100,0.6496591796875,0.08921582996845245,-0.20865851640701294,-0.3663175404071808
1773047900975620900,0.659620849609375,0.07337003201246262,-0.37270912528038025,-0.504668653011322
1773047900985801000,0.669801025390625,0.07550056278705597,-0.4673844277858734,-0.6111950278282166
1773047900995833300,0.679833251953125,0.08069372177124023,-0.571780264377594,-0.6740455627441406
1773047901005798100,0.689798095703125,0.12117373943328857,-0.6506097912788391,-0.6729803085327148
1773047901015784200,0.6997841796875,0.19680745899677277,-0.6793718934059143,-0.6101297736167908
1773047901025751300,0.709751220703125,0.26285380125045776,-0.6463487148284912,-0.4865591824054718
1773047901035735600,0.719735595703125,0.318247526884079,-0.5142560005187988,-0.29174908995628357
1773047901045615600,0.72961572265625,0.372575968503952,-0.21185430884361267,-0.04780370742082596
1773047901055431400,0.739431396484375,0.4162517786026001,0.06191844865679741,0.17576849460601807
1773047901065425000,0.7494248046875,0.41412124037742615,0.13528847694396973,0.3430148959159851
1773047901075388000,0.759387939453125,0.3491401672363281,0.14381058514118195,0.4623244106769562
1773047901085567700,0.769567626953125,0.27350643277168274,0.20453062653541565,0.5496760606765747
1773047901095600000,0.77960009765625,0.18508955836296082,0.3994738757610321,0.6209155321121216
1773047901105564000,0.78956396484375,0.08495477586984634,0.677374541759491,0.6667218804359436
1773047901115550500,0.799550537109375,-0.0022636852227151394,0.8126630187034607,0.6603302955627441
1773047901125517000,0.80951708984375,-0.05020054802298546,0.8201198577880859,0.6145239472389221
1773047901135501800,0.819501708984375,-0.048070020973682404,0.8041408658027649,0.5464802384376526
1773047901145382000,0.8293818359375,0.0009321057004854083,0.7860314249992371,0.46338969469070435
1773047901155197400,0.839197509765625,0.07976161688566208,0.731702983379364,0.3717769980430603
1773047901165377500,0.84937744140625,0.15526217222213745,0.6656566262245178,0.27590328454971313
1773047901175410200,0.85941015625,0.21065588295459747,0.5976129174232483,0.1832253485918045
1773047901185376500,0.86937646484375,0.2564622163772583,0.5486107468605042,0.10120004415512085
1773047901195361300,0.879361328125,0.2905506491661072,0.5219792127609253,0.027830012142658234
1773047901205329700,0.88932958984375,0.32037803530693054,0.5230444669723511,-0.02756369672715664
1773047901215313000,0.89931298828125,0.3512706756591797,0.519848644733429,-0.07123950868844986
1773047901225282800,0.90928271484375,0.37683701515197754,0.5091960430145264,-0.0978710949420929
1773047901235264800,0.9192646484375,0.38642439246177673,0.4932170510292053,-0.10106688737869263
1773047901245236000,0.929236083984375,0.38109806180000305,0.4942823350429535,-0.07656582444906235
1773047901255217000,0.939216796875,0.3693801760673523,0.5187833905220032,-0.04780370742082596
1773047901265189000,0.949189208984375,0.3459443747997284,0.5336970686912537,-0.04354264959692955
1773047901275169000,0.9591689453125,0.32463908195495605,0.5305013060569763,-0.05952160432934761
1773047901285181200,0.96918115234375,0.31931278109550476,0.5262402296066284,-0.08295740932226181
1773047901295164400,0.979164306640625,0.3257043659687042,0.5294360518455505,-0.09041424840688705
1773047901305044500,0.98904443359375,0.31931278109550476,0.5550023317337036,-0.07976161688566208
1773047901314924300,0.99892431640625,0.30120328068733215,0.5763076543807983,-0.06804371625185013
1773047901325048600,1.009048583984375,0.2905506491661072,0.5475454926490784,-0.08615319430828094
1773047901335031600,1.019031494140625,0.2948117256164551,0.519848644733429,-0.1117195263504982
1773047901345001700,1.029001708984375,0.3139864504337311,0.5475454926490784,-0.12024163454771042
1773047901354983400,1.0389833984375,0.3320959508419037,0.5645897388458252,-0.11811110377311707
1773047901364955000,1.048954833984375,0.3502054214477539,0.544349730014801,-0.10958899557590485
1773047901374935600,1.058935546875,0.38003280758857727,0.49641284346580505,-0.10958899557590485
1773047901384908000,1.068907958984375,0.42796966433525085,0.4378233551979065,-0.12024163454771042
1773047901394888000,1.078887939453125,0.44288337230682373,0.35899385809898376,-0.10532794147729874
1773047901404767700,1.088767822265625,0.4162517786026001,0.2929475009441376,-0.07550056278705597
1773047901414627000,1.098626953125,0.3885549008846283,0.24181485176086426,-0.03928159549832344
1773047901424814000,1.10881396484375,0.3779022693634033,0.20559588074684143,0.0043942127376794815
1773047901434797000,1.118797119140625,0.3747064769268036,0.1832253485918045,0.04487423226237297
1773047901444767500,1.128767578125,0.3640538454055786,0.15659375488758087,0.06817687302827835
1773047901454749000,1.1387490234375,0.36724963784217834,0.12570111453533173,0.059787921607494354
1773047901464720600,1.148720703125,0.38109806180000305,0.11504847556352615,0.02569948509335518
1773047901474701300,1.158701416015625,0.39920756220817566,0.09920267760753632,-0.022237379103899002
1773047901484673800,1.168673828125,0.4013380706310272,0.0715058222413063,-0.0786963477730751
1773047901494653400,1.1786533203125,0.39494648575782776,0.0576573945581913,-0.13728585839271545
1773047901504627000,1.188626953125,0.391750693321228,0.06191844865679741,-0.1916143000125885
1773047901514606000,1.198606201171875,0.3842938542366028,0.07363634556531906,-0.2288985252380371
1773047901524580000,1.208580078125,0.36618438363075256,0.10133320093154907,-0.24487747251987457
1773047901534558700,1.218558837890625,0.34274858236312866,0.12570111453533173,-0.2480732649564743
1773047901544438800,1.228438720703125,0.32996541261672974,0.14700637757778168,-0.25020378828048706
1773047901554298000,1.238298095703125,0.32996541261672974,0.17576849460601807,-0.24594274163246155
1773047901564486100,1.248486083984375,0.3278348743915558,0.2396843135356903,-0.24700801074504852
1773047901574468400,1.25846826171875,0.3278348743915558,0.2503369450569153,-0.22676800191402435
1773047901584439300,1.268439208984375,0.2788327634334564,0.08748477697372437,-0.23102904856204987
1773047901594420500,1.27842041015625,0.2191779911518097,-0.09893636405467987,-0.24168169498443604
1773047901604300300,1.28830029296875,0.22663484513759613,-0.02330264262855053,-0.16178691387176514
1773047901614159400,1.298159423828125,0.26391905546188354,0.1693769246339798,-0.08082687854766846
1773047901624345600,1.308345703125,0.3043990731239319,0.2929475009441376,-0.048868969082832336
1773047901634329300,1.318329345703125,0.3683148920536041,0.3153180480003357,-0.06378266215324402
1773047901644209400,1.32820947265625,0.41305598616600037,0.2684464454650879,-0.10852373391389847
1773047901654067700,1.338067626953125,0.42370861768722534,0.22903168201446533,-0.15113428235054016
1773047901664252000,1.348251953125,0.43223071098327637,0.23435799777507782,-0.18415744602680206
1773047901674237200,1.3582373046875,0.44288337230682373,0.2822948694229126,-0.196940615773201
1773047901684213800,1.3682138671875,0.43862229585647583,0.3483411967754364,-0.1777658760547638
1773047901704070400,1.3880703125,0.4024033546447754,0.37923386693000793,-0.08508793264627457
1773047901713928400,1.397928466796875,0.3928159773349762,0.3579285740852356,-0.04034686088562012
1773047901723917000,1.4079169921875,0.383228600025177,0.3387538492679596,-0.0062584239058196545
1773047901733884000,1.4178837890625,0.372575968503952,0.3302317261695862,0.007590003311634064
1773047901743870200,1.4278701171875,0.3608580529689789,0.32810118794441223,0.0011984215816482902
1773047901753838800,1.4378388671875,0.3448790907859802,0.3291664719581604,0.00013315795513335615
1773047901764017400,1.448017333984375,0.32676962018013,0.3526022732257843,0.01717737689614296
1773047901774007300,1.45800732421875,0.3086601495742798,0.3909517526626587,0.04593949392437935
1773047901783970600,1.467970458984375,0.29587697982788086,0.3962780833244324,0.06617950648069382
1773047901793958000,1.4779580078125,0.2937464416027069,0.37923386693000793,0.07137266546487808
1773047901803838000,1.487837890625,0.3033338189125061,0.377103328704834,0.06298371404409409
1773047901813695700,1.49769580078125,0.30546435713768005,0.39308229088783264,0.05020054802298546
1773047901823682800,1.507682861328125,0.3086601495742798,0.3962780833244324,0.02463422156870365
1773047901833651000,1.51765087890625,0.31611698865890503,0.38349491357803345,-0.0062584239058196545
1773047901843830000,1.527830078125,0.3225085735321045,0.3717769980430603,-0.0318247526884079
1773047901853819400,1.5378193359375,0.32463908195495605,0.37284228205680847,-0.053130023181438446
1773047901863783200,1.547783203125,0.3257043659687042,0.39734333753585815,-0.0691089779138565
1773047901873770000,1.55777001953125,0.32463908195495605,0.42930126190185547,-0.0691089779138565
1773047901883736600,1.567736572265625,0.3171822428703308,0.46871599555015564,-0.05206476151943207
1773047901893721300,1.577721435546875,0.30652961134910583,0.5038697123527527,-0.020106852054595947
1773047901903601400,1.587601318359375,0.30546435713768005,0.5038697123527527,0.007590003311634064
1773047901913459500,1.59745947265625,0.31611698865890503,0.48256441950798035,0.022503694519400597
1773047901923448800,1.60744873046875,0.32996541261672974,0.4655202031135559,0.02996053919196129
1773047901933415200,1.617415283203125,0.337422251701355,0.4559328258037567,0.03741738572716713
1773047901943401700,1.627401611328125,0.34274858236312866,0.4282359778881073,0.0342215932905674
1773047901953370400,1.637370361328125,0.35340121388435364,0.38882121443748474,0.02463422156870365
1773047901963549000,1.647548828125,0.36724963784217834,0.35473278164863586,0.019307903945446014
1773047901973538800,1.657538818359375,0.3779022693634033,0.33236226439476013,0.02143843099474907
1773047901983502300,1.66750244140625,0.38642439246177673,0.30892646312713623,0.02569948509335518
1773047901993489400,1.677489501953125,0.38642439246177673,0.2865559160709381,0.03209106624126434
1773047902003369200,1.687369140625,0.38535910844802856,0.2769685387611389,0.03848264738917351
1773047902013227000,1.69722705078125,0.3842938542366028,0.2727074921131134,0.0342215932905674
1773047902023214300,1.70721435546875,0.3789675533771515,0.2684464454650879,0.013981585390865803
1773047902033182200,1.71718212890625,0.3779022693634033,0.2769685387611389,-0.016911059617996216
1773047902043167500,1.72716748046875,0.38003280758857727,0.28975170850753784,-0.053130023181438446
1773047902053137200,1.73713720703125,0.38642439246177673,0.2972085475921631,-0.07656582444906235
1773047902063314700,1.747314697265625,0.391750693321228,0.2950780391693115,-0.08189214020967484
1773047902073305300,1.757305419921875,0.3970770239830017,0.2822948694229126,-0.07976161688566208
1773047902083268000,1.76726806640625,0.40559911727905273,0.2673811614513397,-0.08721846342086792
1773047902093256000,1.777255859375,0.4077296555042267,0.253532737493515,-0.10532794147729874
1773047902103135700,1.7871357421875,0.4013380706310272,0.24714116752147675,-0.1255679577589035
1773047902112993500,1.79699365234375,0.39494648575782776,0.24820642173290253,-0.13409006595611572
1773047902122980400,1.80698046875,0.39068543910980225,0.22690115869045258,-0.12450268864631653
1773047902132948700,1.81694873046875,0.3885549008846283,0.18002955615520477,-0.09361004084348679
1773047902142933200,1.826933349609375,0.39068543910980225,0.13954953849315643,-0.05206476151943207
1773047902152903400,1.8369033203125,0.3960117697715759,0.13528847694396973,-0.03075948730111122
1773047902163080700,1.847080810546875,0.39494648575782776,0.15339796245098114,-0.028628960251808167
1773047902173071600,1.857071533203125,0.38535910844802856,0.1693769246339798,-0.03928159549832344
1773047902183033900,1.867033935546875,0.38003280758857727,0.18216007947921753,-0.061652131378650665
1773047902193022000,1.87702197265625,0.38003280758857727,0.20879167318344116,-0.10426267981529236
1773047902202902000,1.886902099609375,0.37577176094055176,0.24607589840888977,-0.16178691387176514
1773047902212759600,1.896759521484375,0.36724963784217834,0.2876211702823639,-0.20865851640701294
1773047902222940200,1.906940185546875,0.3491401672363281,0.32597067952156067,-0.2288985252380371
1773047902232928300,1.91692822265625,0.32996541261672974,0.35473278164863586,-0.22250694036483765
1773047902242808300,1.926808349609375,0.31611698865890503,0.3632549047470093,-0.195875346660614
1773047902252665900,1.936665771484375,0.31505173444747925,0.3568633198738098,-0.15326480567455292
1773047902262846500,1.946846435546875,0.3214432895183563,0.3430148959159851,-0.10106688737869263
1773047902272834800,1.956834716796875,0.33316120505332947,0.31744855642318726,-0.048868969082832336
1773047902282799900,1.9667998046875,0.3491401672363281,0.2769685387611389,-0.0019973693415522575
1773047902292785700,1.97678564453125,0.3693801760673523,0.23329274356365204,0.02463422156870365
1773047902302753000,1.9867529296875,0.38535910844802856,0.21092219650745392,0.02463422156870365
1773047902312737000,1.996737060546875,0.40559911727905273,0.23222747445106506,0.006524739786982536
1773047902322706200,2.0067060546875,0.4215780794620514,0.320644348859787,-0.01584579609334469
1773047902332689000,2.01668896484375,0.44714441895484924,0.36858120560646057,-0.06804371625185013
1773047902342659600,2.02665966796875,0.44714441895484924,0.3717769980430603,-0.10958899557590485
1773047902352640800,2.036640869140625,0.4205128252506256,0.40693071484565735,-0.12450268864631653
1773047902362612700,2.04661279296875,0.3981422781944275,0.45912861824035645,-0.10426267981529236
1773047902372593200,2.05659326171875,0.391750693321228,0.47191178798675537,-0.06697845458984375
1773047902382566000,2.06656591796875,0.38003280758857727,0.44847598671913147,-0.04247738793492317
1773047902392545500,2.076545654296875,0.36724963784217834,0.4388886094093323,-0.020106852054595947
1773047902402519300,2.086519287109375,0.36192330718040466,0.4506065249443054,-0.0009321057004854083
1773047902412498200,2.096498291015625,0.3736412227153778,0.4601939022541046,0.016112113371491432
1773047902422472400,2.106472412109375,0.39068543910980225,0.4708465337753296,0.039547912776470184
1773047902432450800,2.116450927734375,0.38642439246177673,0.4644549489021301,0.06617950648069382
1773047902442425600,2.126425537109375,0.372575968503952,0.42930126190185547,0.09267793595790863
1773047902452403700,2.13640380859375,0.3704454302787781,0.38456016778945923,0.1129179447889328
1773047902462378800,2.146378662109375,0.383228600025177,0.33555805683135986,0.11398320645093918
1773047902472356600,2.156356689453125,0.393881231546402,0.3067959249019623,0.10652636736631393
1773047902482332200,2.166332275390625,0.4013380706310272,0.2684464454650879,0.08735162019729614
1773047902492309800,2.176309814453125,0.42796966433525085,0.1970737725496292,0.035286858677864075
1773047902502285300,2.186285400390625,0.44181808829307556,0.14913691580295563,-0.03821633383631706
1773047902512262700,2.1962626953125,0.4450138807296753,0.15339796245098114,-0.11278478801250458
1773047902522238500,2.206238525390625,0.4354265034198761,0.1970737725496292,-0.17563533782958984
1773047902532215800,2.2162158203125,0.41944757103919983,0.25672852993011475,-0.22570273280143738
1773047902542191600,2.226191650390625,0.4066644012928009,0.3195790946483612,-0.26831328868865967
1773047902552168700,2.236168701171875,0.3981422781944275,0.3387538492679596,-0.28748801350593567
1773047902562144800,2.246144775390625,0.38109806180000305,0.32810118794441223,-0.2757701277732849
1773047902572121900,2.256121826171875,0.3693801760673523,0.2972085475921631,-0.26405221223831177
1773047902582098200,2.26609814453125,0.3651190996170044,0.29401275515556335,-0.25553011894226074
1773047902592075000,2.276074951171875,0.3555317521095276,0.32277488708496094,-0.23635536432266235
1773047902602051300,2.28605126953125,0.3470096290111542,0.3568633198738098,-0.2150501012802124
1773047902612028200,2.296028076171875,0.34381383657455444,0.38775596022605896,-0.186287984251976
1773047902622004500,2.30600439453125,0.3470096290111542,0.4005391299724579,-0.14367742836475372
1773047902631981300,2.315981201171875,0.3544664680957794,0.36432015895843506,-0.09574057161808014
1773047902641957600,2.32595751953125,0.37151068449020386,0.30786117911338806,-0.06591318547725677
1773047902651934500,2.3359345703125,0.3970770239830017,0.26951169967651367,-0.05952160432934761
1773047902661911000,2.3459111328125,0.40879490971565247,0.2727074921131134,-0.07123950868844986
1773047902671887600,2.3558876953125,0.4119907021522522,0.245010644197464,-0.11278478801250458
1773047902681864200,2.3658642578125,0.4258391261100769,0.22370536625385284,-0.16072164475917816
1773047902691841000,2.375841064453125,0.4407528340816498,0.22796641290187836,-0.17989639937877655
1773047902701817300,2.3858173828125,0.4460791349411011,0.26098960638046265,-0.16924376785755157
1773047902711794200,2.395794189453125,0.44714441895484924,0.26631590723991394,-0.1585911214351654
1773047902721770800,2.405770751953125,0.45140546560287476,0.2492716908454895,-0.1447426974773407
1773047902731747300,2.415747314453125,0.450340211391449,0.2737727463245392,-0.12343742698431015
1773047902741724000,2.425723876953125,0.4354265034198761,0.32703593373298645,-0.102132149040699
1773047902751700500,2.435700439453125,0.42264336347579956,0.34621068835258484,-0.10426267981529236
1773047902761677000,2.445677001953125,0.4247738718986511,0.3376885652542114,-0.12024163454771042
1773047902771654000,2.45565380859375,0.4247738718986511,0.34940648078918457,-0.12876373529434204
1773047902781630500,2.46563037109375,0.41944757103919983,0.39308229088783264,-0.12343742698431015
1773047902791607000,2.47560693359375,0.40559911727905273,0.44954127073287964,-0.10532794147729874
1773047902801583600,2.48558349609375,0.3874896466732025,0.50706547498703,-0.07017423957586288
1773047902811560200,2.495560302734375,0.3779022693634033,0.5560676455497742,-0.01904158666729927
1773047902821536800,2.505536865234375,0.37683701515197754,0.5848297476768494,0.043808966875076294
1773047902831513600,2.515513671875,0.3789675533771515,0.5677855014801025,0.0990695208311081
1773047902841490200,2.525490234375,0.3928159773349762,0.5091960430145264,0.13954953849315643
1773047902851466800,2.535466796875,0.4162517786026001,0.44847598671913147,0.15872427821159363
1773047902861365800,2.54536572265625,0.43755704164505005,0.4005391299724579,0.15872427821159363
1773047902871334700,2.555334716796875,0.4546012580394745,0.37390753626823425,0.1363537460565567
1773047902881396500,2.565396484375,0.4673844277858734,0.37390753626823425,0.10759162902832031
1773047902891374800,2.575374755859375,0.46525388956069946,0.38456016778945923,0.09267793595790863
1773047902901350000,2.585349853515625,0.469514936208725,0.3632549047470093,0.07882951200008392
1773047902911327700,2.59532763671875,0.4822981059551239,0.3398191034793854,0.0672447681427002
1773047902921303000,2.605302978515625,0.48868969082832336,0.3004043400287628,0.05233107507228851
1773047902931281000,2.615281005859375,0.49827706813812256,0.24288010597229004,0.02996053919196129
1773047902941256400,2.62525634765625,0.5121254920959473,0.18642114102840424,0.00013315795513335615
1773047902951233800,2.63523388671875,0.5302349925041199,0.12570111453533173,-0.041412122547626495
1773047902961054500,2.645054443359375,0.5451486706733704,0.06191844865679741,-0.09574057161808014
1773047902971016200,2.65501611328125,0.5483444333076477,0.020373167470097542,-0.14367742836475372
1773047902981162800,2.665162841796875,0.5281044244766235,0.01717737689614296,-0.17670060694217682
1773047902991143400,2.675143310546875,0.504668653011322,0.042743705213069916,-0.19481009244918823
1773047903001116000,2.685115966796875,0.4716454744338989,0.09813741594552994,-0.19374482333660126
1773047903011095800,2.695095703125,0.43649178743362427,0.16724638640880585,-0.17457008361816406
1773047903021069300,2.7050693359375,0.4119907021522522,0.2205095738172531,-0.14154690504074097
1773047903031048400,2.71504833984375,0.39494648575782776,0.26631590723991394,-0.09467530250549316
1773047903041022500,2.7250224609375,0.38642439246177673,0.2833601236343384,-0.037151068449020386
1773047903051001000,2.7350009765625,0.3842938542366028,0.24394537508487701,0.0043942127376794815
1773047903060975900,2.744975830078125,0.3928159773349762,0.1928127259016037,0.022503694519400597
1773047903070954000,2.7549541015625,0.40879490971565247,0.1789642870426178,0.02569948509335518
1773047903080890400,2.764890380859375,0.4162517786026001,0.20133483409881592,0.019307903945446014
1773047903090864400,2.774864501953125,0.4205128252506256,0.24607589840888977,0.006524739786982536
1773047903100882400,2.78488232421875,0.4269044101238251,0.30253487825393677,-0.005193160381168127
1773047903110860800,2.79486083984375,0.43223071098327637,0.35473278164863586,-0.016911059617996216
1773047903120835800,2.8048359375,0.43862229585647583,0.3866907060146332,-0.02756369672715664
1773047903130813700,2.814813720703125,0.450340211391449,0.3866907060146332,-0.03502054139971733
1773047903140789000,2.8247890625,0.4631233811378479,0.3536675274372101,-0.04460791498422623
1773047903150766600,2.8347666015625,0.4812328517436981,0.2972085475921631,-0.04993423447012901
1773047903160646700,2.844646728515625,0.49401602149009705,0.245010644197464,-0.0552605502307415
1773047903170526700,2.854526611328125,0.5004075765609741,0.2119874656200409,-0.0552605502307415
1773047903180656600,2.86465673828125,0.5025381445884705,0.19174745678901672,-0.05099949613213539
1773047903190632200,2.874632080078125,0.5036033987998962,0.18535587191581726,-0.04247738793492317
1773047903200610000,2.884610107421875,0.4961465299129486,0.18642114102840424,-0.02330264262855053
1773047903210585600,2.894585693359375,0.469514936208725,0.20453062653541565,-0.005193160381168127
1773047903220602000,2.90460205078125,0.43329599499702454,0.24714116752147675,0.01717737689614296
1773047903230582000,2.91458203125,0.3960117697715759,0.2950780391693115,0.05339634045958519
1773047903240516600,2.9245166015625,0.3651190996170044,0.30786117911338806,0.08096003532409668
1773047903250492000,2.934491943359375,0.35766226053237915,0.2876211702823639,0.09693899005651474
1773047903260371700,2.944371826171875,0.36618438363075256,0.23861905932426453,0.09161267429590225
1773047903270251800,2.954251708984375,0.3736412227153778,0.17789903283119202,0.06511423736810684
1773047903280431900,2.964431884765625,0.3779022693634033,0.122505322098732,0.023568958044052124
1773047903290439400,2.974439453125,0.3789675533771515,0.11504847556352615,-0.005193160381168127
1773047903300415200,2.984415283203125,0.3789675533771515,0.13848426938056946,-0.010519478470087051
1773047903310392600,2.994392578125,0.3747064769268036,0.17683376371860504,0.013981585390865803
1773047903320329700,3.004329833984375,0.3651190996170044,0.19920429587364197,0.06085318699479103
1773047903330303000,3.014302978515625,0.35766226053237915,0.20026956498622894,0.11398320645093918
1773047903340244200,3.024244140625,0.3544664680957794,0.1789642870426178,0.14700637757778168
1773047903350214100,3.034214111328125,0.3683148920536041,0.13528847694396973,0.13528847694396973
1773047903360094200,3.04409423828125,0.39068543910980225,0.11078742146492004,0.09693899005651474
1773047903369974300,3.053974365234375,0.41518649458885193,0.09174583107233047,0.043808966875076294
1773047903380073000,3.064072998046875,0.44181808829307556,0.05659212917089462,-0.020106852054595947
1773047903390040600,3.07404052734375,0.4631233811378479,0.022503694519400597,-0.0786963477730751
1773047903399987500,3.083987548828125,0.4673844277858734,0.01717737689614296,-0.10852373391389847
1773047903409953000,3.093953125,0.45673179626464844,0.0576573945581913,-0.10000162571668625
1773047903419901700,3.103901611328125,0.43223071098327637,0.12463584542274475,-0.0648479238152504
1773047903429865700,3.11386572265625,0.40027281641960144,0.19600850343704224,-0.01584579609334469
1773047903439816400,3.12381640625,0.3747064769268036,0.25140222907066345,0.03741738572716713
1773047903449778700,3.13377880859375,0.35340121388435364,0.2950780391693115,0.08415582776069641
1773047903459847000,3.143846923828125,0.32676962018013,0.320644348859787,0.10546109825372696
1773047903469820200,3.153820068359375,0.30546435713768005,0.3611243665218353,0.11398320645093918
1773047903479645200,3.163645263671875,0.2905506491661072,0.4090612530708313,0.122505322098732
1773047903489603600,3.173603515625,0.2894853949546814,0.4175833463668823,0.12037479132413864
1773047903499521000,3.18352099609375,0.29694223403930664,0.3994738757610321,0.11824426054954529
1773047903509475300,3.193475341796875,0.30546435713768005,0.3621896505355835,0.11611373722553253
1773047903519281400,3.203281494140625,0.31079065799713135,0.33236226439476013,0.12144005298614502
1773047903529220900,3.213220947265625,0.3043990731239319,0.3163833022117615,0.13528847694396973
1773047903539349500,3.223349609375,0.29161593317985535,0.3142527639865875,0.1502021700143814
1773047903549308200,3.23330810546875,0.2756369709968567,0.31318750977516174,0.16192007064819336
1773047903559379700,3.243379638671875,0.2660495936870575,0.30360013246536255,0.15659375488758087
1773047903569350000,3.253349853515625,0.25859275460243225,0.3004043400287628,0.13741901516914368
1773047903579230000,3.26322998046875,0.2522011697292328,0.28975170850753784,0.10865689069032669
1773047903589092000,3.273092041015625,0.2692453861236572,0.24820642173290253,0.06191844865679741
1773047903599054300,3.283054443359375,0.2990727722644806,0.18748639523983002,0.008655266836285591
1773047903609007600,3.293007568359375,0.32463908195495605,0.122505322098732,-0.04673844203352928
1773047903618968800,3.30296875,0.34274858236312866,0.08428898453712463,-0.08934898674488068
1773047903628922600,3.312922607421875,0.3502054214477539,0.07683213800191879,-0.10532794147729874
1773047903639102700,3.323102783203125,0.3512706756591797,0.08748477697372437,-0.0978710949420929
1773047903649282800,3.33328271484375,0.3448790907859802,0.11504847556352615,-0.0691089779138565
1773047903659462700,3.343462646484375,0.3235738277435303,0.1502021700143814,-0.028628960251808167
1773047903669568300,3.353568359375,0.3022685647010803,0.19068218767642975,0.012916321866214275
1773047903679527400,3.36352734375,0.2798980176448822,0.23755379021167755,0.04061317816376686
1773047903689518000,3.37351806640625,0.2660495936870575,0.2812296152114868,0.05339634045958519
1773047903699480800,3.383480712890625,0.25965800881385803,0.3153180480003357,0.05020054802298546
1773047903709468700,3.39346875,0.2575274705886841,0.33129698038101196,0.042743705213069916
1773047903719434200,3.403434326171875,0.2607232630252838,0.33129698038101196,0.04487423226237297
1773047903729419800,3.413419677734375,0.24900537729263306,0.3249054253101349,0.06511423736810684
1773047903739387600,3.4233876953125,0.22237378358840942,0.29827383160591125,0.0894821435213089
1773047903749371400,3.433371337890625,0.21598219871520996,0.245010644197464,0.10013478249311447
1773047903759340800,3.4433408203125,0.21598219871520996,0.18748639523983002,0.09693899005651474
1773047903769323300,3.4533232421875,0.21704746782779694,0.16085481643676758,0.08841688185930252
1773047903779294200,3.463294189453125,0.2191779911518097,0.1310274302959442,0.06617950648069382
1773047903789275400,3.473275390625,0.22130851447582245,0.10239847004413605,0.035286858677864075
1773047903799247600,3.48324755859375,0.2287653684616089,0.09600688517093658,-0.005193160381168127
1773047903809228000,3.49322802734375,0.23515695333480835,0.09920267760753632,-0.05845634266734123
1773047903819201000,3.503200927734375,0.23835274577140808,0.12463584542274475,-0.10639320313930511
1773047903829180700,3.5131806640625,0.2330264151096344,0.17683376371860504,-0.14261217415332794
1773047903839154400,3.523154541015625,0.2234390527009964,0.24820642173290253,-0.1543300747871399
1773047903849133300,3.53313330078125,0.2095906287431717,0.30786117911338806,-0.140481635928154
1773047903859107600,3.543107666015625,0.18722008168697357,0.3344927728176117,-0.11598058044910431
1773047903869086200,3.553086181640625,0.16591481864452362,0.35153698921203613,-0.08295740932226181
1773047903879061000,3.56306103515625,0.148870587348938,0.36432015895843506,-0.04780370742082596
1773047903889039000,3.5730390625,0.13715268671512604,0.37390753626823425,-0.01904158666729927
1773047903898919200,3.582919189453125,0.12863057851791382,0.3675159513950348,0.0022636852227151394
1773047903908779000,3.592779052734375,0.11691268533468246,0.3472759425640106,0.018242640420794487
1773047903918967600,3.602967529296875,0.09880319982767105,0.34621068835258484,0.016112113371491432
1773047903928949200,3.61294921875,0.07763108611106873,0.3760380744934082,-0.016911059617996216
1773047903938920700,3.622920654296875,0.07230477035045624,0.38242965936660767,-0.022237379103899002
1773047903948901600,3.632901611328125,0.06804371625185013,0.35899385809898376,-0.025433169677853584
1773047903958874000,3.6428740234375,0.05845634266734123,0.3579285740852356,-0.041412122547626495
1773047903968854300,3.652854248046875,0.05845634266734123,0.3856254518032074,-0.06378266215324402
1773047903978827500,3.66282763671875,0.05099949613213539,0.38775596022605896,-0.08508793264627457
1773047903988807000,3.672806884765625,0.017976323142647743,0.4101265072822571,-0.10319741815328598
1773047903998781000,3.682781005859375,-0.01717737689614296,0.4612591564655304,-0.1117195263504982
1773047904008759600,3.692759521484375,-0.05020054802298546,0.5187833905220032,-0.1213068962097168
1773047904018734000,3.702734130859375,-0.08002793043851852,0.590156078338623,-0.12982900440692902
1773047904028712700,3.712712646484375,-0.12157320976257324,0.6348971128463745,-0.14580796658992767
1773047904038687500,3.7226875,-0.17696692049503326,0.6082655191421509,-0.16711322963237762
1773047904048665600,3.73266552734375,-0.18868482112884521,0.5826992392539978,-0.140481635928154
1773047904058679800,3.7426796875,-0.18868482112884521,0.5603286623954773,-0.09574057161808014
1773047904068661500,3.75266162109375,-0.15992270410060883,0.498543381690979,-0.057391077280044556
1773047904078594300,3.76259423828125,-0.11731215566396713,0.43036651611328125,-0.024367906153202057
1773047904088570600,3.772570556640625,-0.10239847004413605,0.37284228205680847,-0.017976323142647743
1773047904098546200,3.782546142578125,-0.06617950648069382,0.31318750977516174,-0.03608580678701401
1773047904108523000,3.79252294921875,-0.005459476262331009,0.2492716908454895,-0.061652131378650665
1773047904118499600,3.80249951171875,0.06271740049123764,0.17470324039459229,-0.08615319430828094
1773047904128476400,3.812476318359375,0.14567480981349945,0.11824426054954529,-0.10958899557590485
1773047904138453000,3.822452880859375,0.20639483630657196,0.0810931921005249,-0.12663321197032928
1773047904148429600,3.8324296875,0.2234390527009964,0.03848264738917351,-0.12876373529434204
1773047904158406100,3.84240625,0.22556957602500916,0.007590003311634064,-0.11278478801250458
1773047904168383000,3.852383056640625,0.22663484513759613,-0.007323687430471182,-0.08402267098426819
1773047904178359600,3.862359619140625,0.23089589178562164,-0.024367906153202057,-0.0456731803715229
1773047904188336000,3.872336181640625,0.22983063757419586,-0.03928159549832344,-0.0009321057004854083
1773047904198313000,3.88231298828125,0.22130851447582245,-0.04780370742082596,0.04061317816376686
1773047904208289500,3.89228955078125,0.20852535963058472,-0.06804371625185013,0.07456845790147781
1773047904218266000,3.90226611328125,0.2095906287431717,-0.1255679577589035,0.09267793595790863
1773047904228243000,3.912242919921875,0.22556957602500916,-0.17137429118156433,0.08841688185930252
1773047904238219500,3.922219482421875,0.22983063757419586,-0.19267955422401428,0.05233107507228851
1773047904248196000,3.932196044921875,0.2287653684616089,-0.21398483216762543,0.005459476262331009
1773047904258173000,3.9421728515625,0.22450430691242218,-0.23315958678722382,-0.03928159549832344
1773047904268149500,3.9521494140625,0.21065588295459747,-0.20972378551959991,-0.07976161688566208
1773047904278126300,3.962126220703125,0.17763271927833557,-0.15646059811115265,-0.10319741815328598
1773047904288103000,3.97210302734375,0.148870587348938,-0.09041424840688705,-0.11704584211111069
1773047904297983000,3.98198291015625,0.14247901737689972,-0.03395527973771095,-0.12024163454771042
1773047904307843000,3.991843017578125,0.14460954070091248,-0.016911059617996216,-0.11278478801250458
1773047904318033000,4.002032958984375,0.13502216339111328,-0.020106852054595947,-0.10532794147729874
1773047904328013800,4.012013916015625,0.11158636957406998,0.0033289489801973104,-0.09361004084348679
1773047904337986000,4.021986083984375,0.0913463607430458,0.03315633162856102,-0.07763108611106873
1773047904347966200,4.03196630859375,0.08069372177124023,0.04487423226237297,-0.061652131378650665
1773047904357939500,4.041939453125,0.0648479238152504,0.03315633162856102,-0.03395527973771095
1773047904367918800,4.0519189453125,0.04673844203352928,0.012916321866214275,-0.004127896390855312
1773047904377892900,4.061892822265625,0.032890014350414276,-0.0062584239058196545,0.023568958044052124
1773047904387871700,4.071871826171875,0.009454214945435524,-0.025433169677853584,0.047004759311676025
1773047904397846300,4.08184619140625,-0.009720530360937119,-0.04247738793492317,0.058722659945487976
1773047904407824600,4.09182470703125,-0.01717737689614296,-0.053130023181438446,0.06298371404409409
1773047904417799400,4.10179931640625,-0.01717737689614296,-0.06804371625185013,0.05233107507228851
1773047904427777500,4.111777587890625,-0.02143843099474907,-0.0691089779138565,0.026764748618006706
1773047904437752800,4.1217529296875,-0.1002679392695427,-0.07123950868844986,0.0033289489801973104
1773047904447730700,4.131730712890625,-0.11837742477655411,-0.06058686971664429,-0.008388951420783997
1773047904457706200,4.141706298828125,-0.12583427131175995,-0.06058686971664429,-0.017976323142647743
1773047904467683800,4.151683837890625,-0.08322372287511826,-0.04247738793492317,-0.009454214945435524
1773047904477564000,4.16156396484375,-0.06511423736810684,-0.03395527973771095,-0.0062584239058196545
1773047904487423700,4.171423828125,-0.04593949392437935,-0.06591318547725677,-0.011584741994738579
1773047904497418800,4.181418701171875,0.014780532568693161,-0.11065425723791122,-0.032890014350414276
1773047904507380700,4.191380615234375,0.05632581561803818,-0.14580796658992767,-0.06378266215324402
1773047904517566000,4.20156591796875,0.057391077280044556,-0.1681784987449646,-0.09680583328008652
1773047904527550500,4.211550537109375,0.03821633383631706,-0.16498270630836487,-0.11811110377311707
1773047904537519400,4.221519287109375,0.017976323142647743,-0.13302479684352875,-0.11917637288570404
1773047904547502300,4.23150244140625,-0.006524739786982536,-0.07123950868844986,-0.10106688737869263
1773047904557472800,4.24147265625,-0.031025802716612816,0.00013315795513335615,-0.07230477035045624
1773047904567454500,4.251454345703125,-0.05233107507228851,0.059787921607494354,-0.04034686088562012
1773047904577334500,4.26133447265625,-0.06617950648069382,0.09600688517093658,-0.009454214945435524
1773047904587193600,4.271193603515625,-0.07789740711450577,0.11078742146492004,0.01717737689614296
1773047904597379300,4.28137939453125,-0.07896266877651215,0.10665952414274216,0.04061317816376686
1773047904607363600,4.291363525390625,-0.07044056057929993,0.08961530029773712,0.05233107507228851
1773047904617332700,4.301332763671875,-0.06511423736810684,0.07576687633991241,0.051265813410282135
1773047904627315500,4.3113154296875,-0.0672447681427002,0.07576687633991241,0.051265813410282135
1773047904637286100,4.3212861328125,-0.08215846121311188,0.08961530029773712,0.055526867508888245
1773047904647267600,4.331267578125,-0.0949416235089302,0.10559425503015518,0.06511423736810684
1773047904657239600,4.341239501953125,-0.09813741594552994,0.10972215235233307,0.07350318878889084
1773047904667220000,4.351219970703125,-0.09387636184692383,0.09387636184692383,0.08309056609869003
1773047904677193000,4.36119287109375,-0.09281109273433685,0.07257108390331268,0.09374319761991501
1773047904687172600,4.371172607421875,-0.09281109273433685,0.04593949392437935,0.09800425171852112
1773047904697052700,4.381052734375,-0.1002679392695427,-0.008388951420783997,0.09267793595790863
1773047904706912300,4.390912353515625,-0.12050794810056686,-0.0786963477730751,0.08309056609869003
1773047904717099500,4.401099609375,-0.11305110156536102,-0.07550056278705597,0.08202529698610306
1773047904727082500,4.41108251953125,-0.09281109273433685,-0.04673844203352928,0.0672447681427002
1773047904737053000,4.421052978515625,-0.0810931921005249,-0.029694223776459694,0.03741738572716713
1773047904747034600,4.43103466796875,-0.07470161467790604,-0.0062584239058196545,0.018242640420794487
1773047904757006300,4.44100634765625,-0.08961530029773712,0.04061317816376686,0.011851058341562748
1773047904766987000,4.450987060546875,-0.12476900219917297,0.1045289933681488,0.018242640420794487
1773047904776866800,4.46086669921875,-0.14074796438217163,0.12996216118335724,0.043808966875076294
1773047904786726100,4.47072607421875,-0.1279647946357727,0.09707214683294296,0.07137266546487808
1773047904796718800,4.48071875,-0.12263847887516022,0.03741738572716713,0.08309056609869003
1773047904806682600,4.4906826171875,-0.11198583990335464,-0.007323687430471182,0.09054741263389587
1773047904816866000,4.500865966796875,-0.1002679392695427,-0.037151068449020386,0.08096003532409668
1773047904826852000,4.51085205078125,-0.08855003863573074,-0.06804371625185013,0.06191844865679741
1773047904836819700,4.52081982421875,-0.08428898453712463,-0.09467530250549316,0.05020054802298546
1773047904846803700,4.5308037109375,-0.09174583107233047,-0.09574057161808014,0.05339634045958519
1773047904856772900,4.54077294921875,-0.11305110156536102,-0.08295740932226181,0.06617950648069382
1773047904866755600,4.550755615234375,-0.1279647946357727,-0.08189214020967484,0.07669898122549057
1773047904876726500,4.5607265625,-0.12689952552318573,-0.0978710949420929,0.07563371956348419
1773047904886708000,4.5707080078125,-0.11518163233995438,-0.12663321197032928,0.059787921607494354
1773047904896587800,4.580587890625,-0.10665952414274216,-0.1724395453929901,0.02463422156870365
1773047904906447000,4.590447021484375,-0.09600688517093658,-0.21931114792823792,-0.032890014350414276
1773047904916633000,4.600633056640625,-0.08641951531171799,-0.25553011894226074,-0.102132149040699
1773047904926617000,4.6106171875,-0.07044056057929993,-0.2757701277732849,-0.17137429118156433
1773047904936586500,4.62058642578125,-0.05659212917089462,-0.25553011894226074,-0.22996379435062408
1773047904946569000,4.63056884765625,-0.048070020973682404,-0.1873532384634018,-0.26085641980171204
1773047904956540000,4.640539794921875,-0.05233107507228851,-0.10639320313930511,-0.24274694919586182
1773047904966521000,4.65052099609375,-0.07044056057929993,-0.057391077280044556,-0.17563533782958984
1773047904976493300,4.660493408203125,-0.09387636184692383,-0.04247738793492317,-0.06804371625185013
1773047904986473700,4.6704736328125,-0.12263847887516022,-0.05206476151943207,0.055526867508888245
1773047904996446500,4.680446533203125,-0.14500901103019714,-0.07123950868844986,0.1693769246339798
1773047905006426400,4.69042626953125,-0.15353111922740936,-0.10106688737869263,0.24607589840888977
1773047905016400000,4.70039990234375,-0.15246586501598358,-0.1490037590265274,0.2673811614513397
1773047905026379000,4.71037890625,-0.14820480346679688,-0.20226693153381348,0.24074958264827728
1773047905036353300,4.720353271484375,-0.13542163372039795,-0.24168169498443604,0.17150744795799255
1773047905046332000,4.730331787109375,-0.12157320976257324,-0.2661827504634857,0.07350318878889084
1773047905056306700,4.740306640625,-0.10985531657934189,-0.27896592020988464,-0.03395527973771095
1773047905066284800,4.750284912109375,-0.10239847004413605,-0.2768353819847107,-0.12982900440692902
1773047905076260000,4.760260009765625,-0.09813741594552994,-0.24913853406906128,-0.195875346660614
1773047905086238000,4.770238037109375,-0.1002679392695427,-0.19481009244918823,-0.2203764170408249
1773047905096118000,4.780117919921875,-0.1045289933681488,-0.14687322080135345,-0.20439745485782623
1773047905105977900,4.789977783203125,-0.11518163233995438,-0.11917637288570404,-0.15219953656196594
1773047905116166700,4.800166748046875,-0.13861742615699768,-0.09467530250549316,-0.06697845458984375
1773047905126148400,4.8101484375,-0.16737954318523407,-0.07017423957586288,0.031025802716612816
1773047905136120000,4.8201201171875,-0.18761955201625824,-0.0691089779138565,0.11930952966213226
1773047905146100700,4.830100830078125,-0.19188061356544495,-0.08189214020967484,0.17470324039459229
1773047905156073500,4.840073486328125,-0.18761955201625824,-0.09254477918148041,0.19387798011302948
1773047905166053400,4.850053466796875,-0.18335850536823273,-0.08295740932226181,0.18216007947921753
1773047905176027000,4.86002685546875,-0.19188061356544495,-0.0552605502307415,0.1597895473241806
1773047905186006000,4.870006103515625,-0.2078595608472824,-0.028628960251808167,0.12570111453533173
1773047905195886000,4.879885986328125,-0.22064273059368134,-0.007323687430471182,0.08415582776069641
1773047905205745700,4.88974560546875,-0.22490379214286804,0.01078579481691122,0.03635212033987045
1773047905215933400,4.899933349609375,-0.22490379214286804,0.03209106624126434,-0.011584741994738579
1773047905225916200,4.909916259765625,-0.21957746148109436,0.051265813410282135,-0.05419528856873512
1773047905235886800,4.919886962890625,-0.2131858915090561,0.05233107507228851,-0.09467530250549316
1773047905245868300,4.929868408203125,-0.20679430663585663,0.031025802716612816,-0.130894273519516
1773047905255840300,4.93984033203125,-0.1982721984386444,0.006524739786982536,-0.15006901323795319
1773047905265820700,4.949820556640625,-0.19614167511463165,-0.010519478470087051,-0.1490037590265274
1773047905275793700,4.959793701171875,-0.2035985141992569,-0.007323687430471182,-0.12343742698431015
1773047905285773300,4.969773193359375,-0.21212062239646912,0.02463422156870365,-0.08508793264627457
1773047905295653400,4.9796533203125,-0.2131858915090561,0.06404897570610046,-0.037151068449020386
1773047905305513000,4.989512939453125,-0.2131858915090561,0.08855003863573074,0.022503694519400597
1773047905315700200,4.9997001953125,-0.2174469381570816,0.1045289933681488,0.08841688185930252
1773047905325683200,5.00968310546875,-0.22490379214286804,0.12037479132413864,0.1555284857749939
1773047905335653600,5.019653564453125,-0.22596904635429382,0.12889690697193146,0.2077264040708542
1773047905345635300,5.02963525390625,-0.21957746148109436,0.11504847556352615,0.2311622053384781
1773047905355607000,5.03960693359375,-0.2035985141992569,0.0906805694103241,0.2205095738172531
1773047905365587700,5.049587646484375,-0.17803218960762024,0.07576687633991241,0.18216007947921753
1773047905375560400,5.059560546875,-0.1471395343542099,0.039547912776470184,0.11824426054954529
1773047905385540400,5.069540283203125,-0.12157320976257324,0.007590003311634064,0.048070020973682404
1773047905395513900,5.079513916015625,-0.11305110156536102,0.012916321866214275,-0.0062584239058196545
1773047905405493000,5.089492919921875,-0.11518163233995438,0.01504684891551733,-0.04247738793492317
1773047905415467300,5.09946728515625,-0.12050794810056686,0.013981585390865803,-0.05952160432934761
1773047905425446000,5.10944580078125,-0.12583427131175995,0.022503694519400597,-0.061652131378650665
1773047905435420700,5.119420654296875,-0.1322258561849594,0.02889527566730976,-0.04673844203352928
1773047905445398800,5.129398681640625,-0.13542163372039795,0.020373167470097542,-0.01904158666729927
1773047905455373800,5.139373779296875,-0.13435637950897217,-0.007323687430471182,0.013981585390865803
1773047905465352000,5.14935205078125,-0.1332911103963852,-0.05845634266734123,0.042743705213069916
1773047905475327500,5.159327392578125,-0.12476900219917297,-0.1213068962097168,0.055526867508888245
1773047905485305000,5.16930517578125,-0.10879004746675491,-0.1777658760547638,0.048070020973682404
1773047905495280600,5.17928076171875,-0.09387636184692383,-0.21398483216762543,0.02889527566730976
1773047905505258200,5.18925830078125,-0.08322372287511826,-0.22570273280143738,0.01717737689614296
1773047905515234000,5.199234130859375,-0.08215846121311188,-0.22996379435062408,0.022503694519400597
1773047905525211400,5.20921142578125,-0.08215846121311188,-0.2342248409986496,0.048070020973682404
1773047905535091500,5.219091552734375,-0.08002793043851852,-0.24913853406906128,0.08841688185930252
1773047905545164800,5.229164794921875,-0.0810931921005249,-0.27044379711151123,0.13315795361995697
1773047905555141400,5.239141357421875,-0.08215846121311188,-0.29707539081573486,0.16298533976078033
1773047905565117400,5.249117431640625,-0.07363634556531906,-0.3364901542663574,0.1555284857749939
1773047905575094800,5.2590947265625,-0.05339634045958519,-0.384427011013031,0.10865689069032669
1773047905585070800,5.26907080078125,-0.02569948509335518,-0.4460791349411011,0.03209106624126434
1773047905595048000,5.2790478515625,-0.0033289489801973104,-0.5036033987998962,-0.05099949613213539
1773047905605024300,5.289024169921875,-0.0022636852227151394,-0.5185170769691467,-0.11491531878709793
1773047905615001300,5.29900146484375,-0.01504684891551733,-0.48442864418029785,-0.15752586722373962
1773047905624977700,5.308977783203125,-0.02889527566730976,-0.41958072781562805,-0.1735048145055771
1773047905634954500,5.31895458984375,-0.04487423226237297,-0.3332943618297577,-0.15965639054775238
1773047905644834600,5.32883447265625,-0.06404897570610046,-0.22676800191402435,-0.1117195263504982
1773047905654694700,5.338694580078125,-0.09174583107233047,-0.11917637288570404,-0.03608580678701401
1773047905664884200,5.34888427734375,-0.11731215566396713,-0.04673844203352928,0.047004759311676025
1773047905674865200,5.358865234375,-0.1322258561849594,-0.032890014350414276,0.12357058376073837
1773047905684837600,5.368837646484375,-0.1322258561849594,-0.06058686971664429,0.18748639523983002
1773047905694817800,5.37881787109375,-0.12903006374835968,-0.09041424840688705,0.2354232668876648
1773047905704791000,5.388791015625,-0.12263847887516022,-0.10958899557590485,0.2577938139438629
1773047905714770400,5.3987705078125,-0.10772478580474854,-0.1351553201675415,0.25246748328208923
1773047905724744400,5.408744384765625,-0.08215846121311188,-0.15219953656196594,0.22796641290187836
1773047905734723300,5.418723388671875,-0.07363634556531906,-0.1490037590265274,0.19600850343704224
1773047905744697900,5.42869775390625,-0.07363634556531906,-0.15646059811115265,0.14487585425376892
1773047905754676200,5.43867626953125,-0.06831002980470657,-0.1873532384634018,0.06511423736810684
1773047905764651000,5.448651123046875,-0.058722659945487976,-0.2246374636888504,-0.032890014350414276
1773047905774629000,5.458629150390625,-0.05233107507228851,-0.24168169498443604,-0.13195952773094177
1773047905784604400,5.4686044921875,-0.06298371404409409,-0.21931114792823792,-0.2203764170408249
1773047905794582300,5.478582275390625,-0.08428898453712463,-0.1639174371957779,-0.28322696685791016
1773047905804557800,5.488557861328125,-0.10985531657934189,-0.10319741815328598,-0.32051119208335876
1773047905814535400,5.498535400390625,-0.1375521719455719,-0.053130023181438446,-0.3226417303085327
1773047905824511200,5.50851123046875,-0.16737954318523407,-0.003062632866203785,-0.28429222106933594
1773047905834488800,5.51848876953125,-0.1993374526500702,0.05233107507228851,-0.20439745485782623
1773047905844464600,5.528464599609375,-0.22916483879089355,0.10665952414274216,-0.08721846342086792
1773047905854442000,5.53844189453125,-0.2515353858470917,0.14700637757778168,0.058722659945487976
1773047905864418000,5.54841796875,-0.26325327157974243,0.16618113219738007,0.2077264040708542
1773047905874395100,5.55839501953125,-0.26112276315689087,0.13848426938056946,0.3376885652542114
1773047905884371500,5.568371337890625,-0.2515353858470917,0.0672447681427002,0.43143177032470703
1773047905894348500,5.5783486328125,-0.2323606312274933,-0.02756369672715664,0.47297704219818115
1773047905904324900,5.588324951171875,-0.1993374526500702,-0.14367742836475372,0.44954127073287964
1773047905914301700,5.5983017578125,-0.15033532679080963,-0.2576606571674347,0.35899385809898376
1773047905924278300,5.6082783203125,-0.09174583107233047,-0.3460775315761566,0.21731378138065338
1773047905934255000,5.618255126953125,-0.03848264738917351,-0.4185154438018799,0.042743705213069916
1773047905944231700,5.628231689453125,0.008388951420783997,-0.4908202290534973,-0.14261217415332794
1773047905954208500,5.63820849609375,0.04354264959692955,-0.5376918315887451,-0.3055975139141083
1773047905964184800,5.648184814453125,0.05206476151943207,-0.525973916053772,-0.4259723126888275
1773047905974161700,5.65816162109375,0.02756369672715664,-0.47484126687049866,-0.504668653011322
1773047905984138200,5.66813818359375,-0.006524739786982536,-0.40573230385780334,-0.5472791790962219
1773047905994115000,5.678114990234375,-0.0342215932905674,-0.32157647609710693,-0.5568665862083435
1773047906004091600,5.688091552734375,-0.06085318699479103,-0.21718062460422516,-0.5313002467155457
1773047906014068500,5.698068359375,-0.0949416235089302,-0.08189214020967484,-0.4696480929851532
1773047906024045000,5.708045166015625,-0.1514005959033966,0.06298371404409409,-0.3812312185764313
1773047906034022000,5.71802197265625,-0.22064273059368134,0.188551664352417,-0.26511749625205994
1773047906043902000,5.72790185546875,-0.2781669795513153,0.28868645429611206,-0.13835111260414124
1773047906053762000,5.737761962890625,-0.31332066655158997,0.35899385809898376,-0.016911059617996216
1773047906063951600,5.74795166015625,-0.3271690905094147,0.38882121443748474,0.09480846673250198
1773047906073932500,5.7579326171875,-0.3292996287345886,0.36858120560646057,0.188551664352417
1773047906083905000,5.767905029296875,-0.3154512047767639,0.3153180480003357,0.25246748328208923
1773047906093885200,5.77788525390625,-0.28988486528396606,0.2258358895778656,0.2908169627189636
1773047906103858400,5.7878583984375,-0.25366589426994324,0.10759162902832031,0.30360013246536255
1773047906113837800,5.797837890625,-0.20892482995986938,-0.007323687430471182,0.28868645429611206
1773047906123811800,5.807811767578125,-0.15459638833999634,-0.11278478801250458,0.24394537508487701
1773047906133790700,5.817790771484375,-0.09174583107233047,-0.22144168615341187,0.17150744795799255
1773047906143670800,5.8276708984375,-0.02143843099474907,-0.31518489122390747,0.08735162019729614
1773047906153530400,5.8375302734375,0.0318247526884079,-0.37270912528038025,0.020373167470097542
1773047906163718400,5.847718505859375,0.05206476151943207,-0.3897533416748047,-0.017976323142647743
1773047906173700900,5.857700927734375,0.05419528856873512,-0.38655754923820496,-0.03395527973771095
1773047906183671800,5.867671875,0.05419528856873512,-0.37377437949180603,-0.03395527973771095
1773047906193653000,5.877653076171875,0.0552605502307415,-0.3599259555339813,-0.025433169677853584
1773047906203533000,5.887532958984375,0.048868969082832336,-0.33009856939315796,-0.010519478470087051
1773047906213392400,5.897392333984375,0.024367906153202057,-0.2800311744213104,0.011851058341562748
1773047906223563500,5.9075634765625,-0.016112113371491432,-0.2203764170408249,0.035286858677864075
1773047906233556000,5.917555908203125,-0.0672447681427002,-0.14367742836475372,0.06191844865679741
1773047906243520000,5.92752001953125,-0.11624689400196075,-0.053130023181438446,0.09374319761991501
1773047906253509000,5.937509033203125,-0.16844481229782104,0.02143843099474907,0.12357058376073837
1773047906263476000,5.94747607421875,-0.20892482995986938,0.04913528636097908,0.1416800618171692
1773047906273462500,5.957462646484375,-0.2227732539176941,0.04487423226237297,0.14807164669036865
1773047906283431200,5.96743115234375,-0.2217079997062683,0.020373167470097542,0.14381058514118195
1773047906293416000,5.977416015625,-0.21638168394565582,-0.020106852054595947,0.13209268450737
1773047906303386000,5.98738623046875,-0.20999009907245636,-0.07337003201246262,0.1033305749297142
1773047906313369000,5.997369140625,-0.19614167511463165,-0.12343742698431015,0.0576573945581913
1773047906323340800,6.0073408203125,-0.17696692049503326,-0.14367742836475372,0.0043942127376794815
1773047906333322500,6.017322509765625,-0.15992270410060883,-0.12876373529434204,-0.0456731803715229
1773047906343295200,6.027295166015625,-0.1471395343542099,-0.08189214020967484,-0.074435293674469
1773047906353276000,6.03727587890625,-0.13968269526958466,-0.028628960251808167,-0.0786963477730751
1773047906363249400,6.04724951171875,-0.13542163372039795,-0.007323687430471182,-0.061652131378650665
1773047906373229300,6.057229248046875,-0.12689952552318573,-0.02330264262855053,-0.025433169677853584
1773047906383203300,6.067203369140625,-0.12050794810056686,-0.03608580678701401,0.01504684891551733
1773047906393083400,6.07708349609375,-0.11944268643856049,-0.03928159549832344,0.04167843982577324
1773047906402963500,6.08696337890625,-0.114116370677948,-0.04354264959692955,0.03315633162856102
1773047906413136000,6.097135986328125,-0.09281109273433685,-0.05952160432934761,-0.011584741994738579
1773047906423116800,6.10711669921875,-0.07044056057929993,-0.07550056278705597,-0.07550056278705597
1773047906433089300,6.11708935546875,-0.055526867508888245,-0.08615319430828094,-0.14154690504074097
1773047906443069400,6.1270693359375,-0.05659212917089462,-0.08721846342086792,-0.19267955422401428
1773047906453042700,6.137042724609375,-0.07363634556531906,-0.07123950868844986,-0.2288985252380371
1773047906463022000,6.14702197265625,-0.10133320093154907,-0.02649843320250511,-0.25126907229423523
1773047906472996000,6.15699609375,-0.12157320976257324,0.048070020973682404,-0.252334326505661
1773047906482975000,6.16697509765625,-0.13861742615699768,0.1459411233663559,-0.22144168615341187
1773047906492949500,6.176949462890625,-0.16205322742462158,0.25566327571868896,-0.1490037590265274
1773047906502928000,6.186927978515625,-0.18229323625564575,0.3398191034793854,-0.03395527973771095
1773047906512902700,6.196902587890625,-0.19720692932605743,0.3653854429721832,0.10013478249311447
1773047906522881000,6.206881103515625,-0.1993374526500702,0.33129698038101196,0.22796641290187836
1773047906532856000,6.21685595703125,-0.18868482112884521,0.2492716908454895,0.33129698038101196
1773047906542834000,6.226833984375,-0.1748363971710205,0.14274533092975616,0.4005391299724579
1773047906552809500,6.2368095703125,-0.15779218077659607,0.01717737689614296,0.42184439301490784
1773047906562787300,6.246787353515625,-0.13435637950897217,-0.11278478801250458,0.3856254518032074
1773047906592717000,6.276717041015625,-0.02143843099474907,-0.46205809712409973,-0.06804371625185013
1773047906602693000,6.286693115234375,0.003062632866203785,-0.5238434076309204,-0.2715090811252594
1773047906612670200,6.296670166015625,0.01904158666729927,-0.5067991614341736,-0.4557996690273285
1773047906622646500,6.306646484375,0.025433169677853584,-0.46525388956069946,-0.5898897647857666
1773047906632623600,6.31662353515625,0.02649843320250511,-0.40573230385780334,-0.6527402997016907
1773047906642600000,6.326599853515625,0.02756369672715664,-0.31518489122390747,-0.638891875743866
1773047906652576800,6.33657666015625,0.01904158666729927,-0.2150501012802124,-0.5558013319969177
1773047906662553000,6.346552978515625,-0.0011984215816482902,-0.12663321197032928,-0.4185154438018799
1773047906672530200,6.3565302734375,-0.023568958044052124,-0.05419528856873512,-0.2480732649564743
1773047906682506500,6.366506591796875,-0.04167843982577324,0.011851058341562748,-0.057391077280044556
1773047906692483600,6.376483642578125,-0.059787921607494354,0.07044056057929993,0.13315795361995697
1773047906702460000,6.3864599609375,-0.07576687633991241,0.10559425503015518,0.29401275515556335
1773047906712436700,6.396436767578125,-0.08428898453712463,0.12783163785934448,0.4090612530708313
1773047906722413300,6.406413330078125,-0.08322372287511826,0.1406148076057434,0.47830337285995483
1773047906732390100,6.41639013671875,-0.07363634556531906,0.12889690697193146,0.5049349665641785
1773047906742366700,6.42636669921875,-0.05659212917089462,0.07257108390331268,0.48789075016975403
1773047906752343600,6.436343505859375,-0.022503694519400597,-0.025433169677853584,0.4239749312400818
1773047906762320100,6.446320068359375,0.032890014350414276,-0.13728585839271545,0.32170963287353516
1773047906772297000,6.456296875,0.09241162240505219,-0.2438122183084488,0.188551664352417
1773047906782273500,6.4662734375,0.1435442715883255,-0.35033857822418213,0.04593949392437935
1773047906792250400,6.47625048828125,0.18402428925037384,-0.448209673166275,-0.08934898674488068
1773047906802227000,6.48622705078125,0.20639483630657196,-0.5163865685462952,-0.186287984251976
1773047906812203500,6.49620361328125,0.20639483630657196,-0.5408875942230225,-0.2342248409986496
1773047906822180400,6.506180419921875,0.18402428925037384,-0.517451822757721,-0.24594274163246155
1773047906832157000,6.516156982421875,0.14141374826431274,-0.44714441895484924,-0.22357220947742462
1773047906842133800,6.5261337890625,0.08921582996845245,-0.3460775315761566,-0.17670060694217682
1773047906852110300,6.5361103515625,0.02756369672715664,-0.2246374636888504,-0.11278478801250458
1773047906862087200,6.546087158203125,-0.03635212033987045,-0.10426267981529236,-0.04247738793492317
1773047906872063700,6.556063720703125,-0.09600688517093658,0.00013315795513335615,0.02463422156870365
1773047906882040300,6.566040283203125,-0.14500901103019714,0.06831002980470657,0.08628635853528976
1773047906892017200,6.57601708984375,-0.17377112805843353,0.10133320093154907,0.13422322273254395
1773047906901994000,6.585993896484375,-0.1897500902414322,0.13315795361995697,0.16405059397220612
1773047906911970600,6.595970458984375,-0.19294588267803192,0.17470324039459229,0.18002955615520477
1773047906921947100,6.605947021484375,-0.19081534445285797,0.20346535742282867,0.1832253485918045
1773047906931924000,6.615924072265625,-0.18229323625564575,0.20559588074684143,0.17470324039459229
1773047906941900500,6.625900634765625,-0.16951008141040802,0.1789642870426178,0.16192007064819336
1773047906951877400,6.63587744140625,-0.1609879732131958,0.14913691580295563,0.14487585425376892
1773047906961854000,6.64585400390625,-0.1609879732131958,0.13209268450737,0.1310274302959442
1773047906971830500,6.65583056640625,-0.15885743498802185,0.12570111453533173,0.11398320645093918
1773047906981807400,6.665807373046875,-0.1418132185935974,0.1129179447889328,0.08841688185930252
1773047906991784000,6.675783935546875,-0.10985531657934189,0.07363634556531906,0.058722659945487976
1773047907001760800,6.6857607421875,-0.06937529146671295,0.018242640420794487,0.02996053919196129
1773047907011737300,6.6957373046875,-0.04061317816376686,-0.037151068449020386,0.009720530360937119
1773047907021714200,6.705714111328125,-0.018242640420794487,-0.08721846342086792,-0.009454214945435524
1773047907031690800,6.715690673828125,0.007323687430471182,-0.14687322080135345,-0.0318247526884079
1773047907041667600,6.72566748046875,0.02330264262855053,-0.18309219181537628,-0.04460791498422623
1773047907051644200,6.73564404296875,0.020106852054595947,-0.15113428235054016,-0.03502054139971733
1773047907061621000,6.74562109375,-0.009720530360937119,-0.05632581561803818,0.005459476262331009
1773047907071597600,6.75559765625,-0.05659212917089462,0.04913528636097908,0.06617950648069382
1773047907081574400,6.765574462890625,-0.1002679392695427,0.12357058376073837,0.12037479132413864
1773047907091551000,6.775551025390625,-0.1332911103963852,0.19494324922561646,0.1502021700143814
1773047907101527800,6.78552783203125,-0.17803218960762024,0.3249054253101349,0.1416800618171692
1773047907111504400,6.79550439453125,-0.2312953621149063,0.48682549595832825,0.09587372839450836
1773047907121481200,6.805481201171875,-0.25366589426994324,0.5731118321418762,0.0703074038028717
1773047907131457800,6.815457763671875,-0.2984069883823395,0.6688523888587952,0.047004759311676025
1773047907141434400,6.825434326171875,-0.34208279848098755,0.8030756115913391,0.042743705213069916
1773047907151411200,6.8354111328125,-0.37084490060806274,0.9096019864082336,-0.009454214945435524
1773047907161387800,6.8453876953125,-0.35699647665023804,0.8616651296615601,-0.02649843320250511
1773047907171364600,6.855364501953125,-0.3292996287345886,0.6997450590133667,-0.008388951420783997
1773047907181341200,6.865341064453125,-0.3314301371574402,0.5539370775222778,0.009720530360937119
1773047907191318000,6.875318115234375,-0.3122554123401642,0.4133222997188568,0.039547912776470184
1773047907201294600,6.885294677734375,-0.26112276315689087,0.2929475009441376,0.08415582776069641
1773047907211271400,6.895271484375,-0.20679430663585663,0.1502021700143814,0.13741901516914368
1773047907221248000,6.905248046875,-0.15353111922740936,-0.007323687430471182,0.1651158630847931
1773047907231224800,6.915224853515625,-0.10879004746675491,-0.15113428235054016,0.13422322273254395
1773047907241201400,6.925201416015625,-0.048070020973682404,-0.30240172147750854,0.05233107507228851
1773047907251178200,6.93517822265625,0.011584741994738579,-0.43649178743362427,-0.07337003201246262
1773047907261154800,6.94515478515625,0.04780370742082596,-0.534496009349823,-0.21611535549163818
1773047907271131600,6.955131591796875,0.08175898343324661,-0.6079992055892944,-0.3482080399990082
1773047907281108200,6.965108154296875,0.12223900109529495,-0.6506097912788391,-0.44834282994270325
1773047907291084800,6.975084716796875,0.148870587348938,-0.655936062335968,-0.49827706813812256
1773047907301061600,6.9850615234375,0.15526217222213745,-0.6101297736167908,-0.4908202290534973
1773047907311038200,6.9950380859375,0.14034847915172577,-0.5078644156455994,-0.4323638677597046
1773047907321015000,7.00501513671875,0.10519478470087051,-0.37270912528038025,-0.3418164849281311
1773047907330991600,7.01499169921875,0.05206476151943207,-0.2203764170408249,-0.22996379435062408
1773047907340968400,7.024968505859375,-0.008655266836285591,-0.04780370742082596,-0.1117195263504982
1773047907350945000,7.034945068359375,-0.06085318699479103,0.11185268312692642,0.005459476262331009
1773047907360883000,7.044883056640625,-0.1002679392695427,0.22264009714126587,0.11504847556352615
1773047907370855700,7.054855712890625,-0.13009531795978546,0.2620548605918884,0.2024000883102417
1773047907380875300,7.064875244140625,-0.14500901103019714,0.2354232668876648,0.2588590681552887
1773047907390852600,7.0748525390625,-0.13968269526958466,0.17683376371860504,0.28016433119773865
1773047907400828700,7.08482861328125,-0.1279647946357727,0.10559425503015518,0.2631201148033142
1773047907410806000,7.094805908203125,-0.11624689400196075,0.023568958044052124,0.21305273473262787
1773047907420782000,7.104781982421875,-0.1002679392695427,-0.07123950868844986,0.13315795361995697
1773047907430759200,7.11475927734375,-0.06191844865679741,-0.1777658760547638,0.03209106624126434
1773047907440696600,7.124696533203125,-0.020373167470097542,-0.2619217038154602,-0.06271740049123764
1773047907450669800,7.134669921875,0.005193160381168127,-0.3098585605621338,-0.12769848108291626
1773047907460650000,7.14464990234375,0.021172115579247475,-0.33435961604118347,-0.15965639054775238
1773047907470623700,7.154623779296875,0.03502054139971733,-0.3567301630973816,-0.1735048145055771
1773047907480603400,7.164603271484375,0.0552605502307415,-0.37377437949180603,-0.17883113026618958
1773047907490577700,7.17457763671875,0.07976161688566208,-0.3801659643650055,-0.17883113026618958
1773047907500401700,7.184401611328125,0.10306425392627716,-0.37803542613983154,-0.16498270630836487
1773047907510361000,7.194361083984375,0.12117373943328857,-0.3748396337032318,-0.12982900440692902
1773047907520471000,7.204470947265625,0.1243695318698883,-0.3705785870552063,-0.08189214020967484
1773047907530445800,7.21444580078125,0.10412952303886414,-0.33542490005493164,-0.02330264262855053
1773047907540463400,7.22446337890625,0.07123950868844986,-0.25446486473083496,0.03741738572716713
1773047907550442200,7.234442138671875,0.03502054139971733,-0.15539532899856567,0.09161267429590225
1773047907560322300,7.244322265625,-0.0033289489801973104,-0.04034686088562012,0.1310274302959442
1773047907570182100,7.25418212890625,-0.03848264738917351,0.08215846121311188,0.1555284857749939
1773047907580370200,7.2643701171875,-0.06831002980470657,0.1789642870426178,0.1693769246339798
1773047907590352400,7.274352294921875,-0.0906805694103241,0.22903168201446533,0.17150744795799255
1773047907600323600,7.284323486328125,-0.10772478580474854,0.2205095738172531,0.1555284857749939
1773047907610304800,7.2943046875,-0.10772478580474854,0.17257271707057953,0.12570111453533173
1773047907620238000,7.304238037109375,-0.09281109273433685,0.11930952966213226,0.08735162019729614
1773047907630214700,7.314214599609375,-0.08002793043851852,0.08535424619913101,0.055526867508888245
1773047907640152600,7.324152587890625,-0.0672447681427002,0.0576573945581913,0.03315633162856102
1773047907650125300,7.334125244140625,-0.05339634045958519,0.011851058341562748,0.016112113371491432
1773047907660067300,7.3440673828125,-0.0342215932905674,-0.03821633383631706,-0.0019973693415522575
1773047907670036700,7.35403662109375,-0.023568958044052124,-0.061652131378650665,-0.020106852054595947
1773047907679981800,7.36398193359375,-0.031025802716612816,-0.04673844203352928,-0.04460791498422623
1773047907689949000,7.373948974609375,-0.04167843982577324,-0.013715269044041634,-0.08189214020967484
1773047907699896600,7.383896484375,-0.042743705213069916,-0.0019973693415522575,-0.1255679577589035
1773047907709861600,7.393861572265625,-0.04913528636097908,0.006524739786982536,-0.1447426974773407
1773047907719811000,7.40381103515625,-0.04593949392437935,0.047004759311676025,-0.12982900440692902
1773047907729774600,7.413774658203125,-0.048070020973682404,0.08748477697372437,-0.09041424840688705
1773047907739725600,7.4237255859375,-0.055526867508888245,0.08428898453712463,-0.03395527973771095
1773047907749687800,7.433687744140625,-0.055526867508888245,0.042743705213069916,0.009720530360937119
1773047907759679000,7.443678955078125,-0.0342215932905674,-0.011584741994738579,0.031025802716612816
1773047907769644000,7.45364404296875,-0.011851058341562748,-0.06591318547725677,0.02463422156870365
1773047907779516200,7.46351611328125,0.005193160381168127,-0.11917637288570404,-0.005193160381168127
1773047907789472000,7.473471923828125,0.009454214945435524,-0.18415744602680206,-0.05206476151943207
1773047907799430700,7.4834306640625,0.004127896390855312,-0.2661827504634857,-0.11385004967451096
1773047907809386800,7.49338671875,0.017976323142647743,-0.18841850757598877,-0.13835111260414124
1773047907819345200,7.50334521484375,0.02330264262855053,-0.09467530250549316,-0.14793848991394043
1773047907829301500,7.513301513671875,0.003062632866203785,-0.048868969082832336,-0.14367742836475372
1773047907839259600,7.523259765625,-0.012916321866214275,-0.02756369672715664,-0.11811110377311707
1773047907849216300,7.53321630859375,-0.016112113371491432,-0.05099949613213539,-0.0786963477730751
1773047907859174400,7.54317431640625,-0.009720530360937119,-0.029694223776459694,-0.005193160381168127
1773047907869131000,7.553131103515625,-0.013981585390865803,-0.07656582444906235,0.07350318878889084
1773047907879011800,7.56301171875,-0.026764748618006706,-0.24913853406906128,0.12357058376073837
1773047907888960800,7.572960693359375,-0.013981585390865803,-0.2960101366043091,0.17470324039459229
1773047907898964500,7.582964599609375,0.011584741994738579,-0.2438122183084488,0.2066611498594284
1773047907908919300,7.592919189453125,0.01584579609334469,-0.2587259113788605,0.19174745678901672
1773047907919099100,7.60309912109375,0.011584741994738579,-0.33116382360458374,0.13422322273254395
1773047907929279200,7.613279296875,0.01584579609334469,-0.384427011013031,0.058722659945487976
1773047907939459300,7.623459228515625,0.037151068449020386,-0.31092381477355957,0.00013315795513335615
1773047907949565000,7.63356494140625,0.03502054139971733,-0.20759324729442596,-0.05632581561803818
1773047907959523800,7.64352392578125,-0.00013315795513335615,-0.12769848108291626,-0.11385004967451096
1773047907969514800,7.6535146484375,-0.02996053919196129,-0.014780532568693161,-0.1639174371957779
1773047907979477200,7.663477294921875,-0.02889527566730976,0.1045289933681488,-0.19800588488578796
1773047907989465600,7.673465576171875,-0.011851058341562748,0.18216007947921753,-0.20865851640701294
1773047907999430700,7.6834306640625,-0.0022636852227151394,0.21305273473262787,-0.1820269227027893
1773047908009416700,7.693416748046875,-0.007590003311634064,0.20559588074684143,-0.1117195263504982
1773047908019384300,7.70338427734375,-0.02569948509335518,0.17683376371860504,-0.009454214945435524
1773047908029368300,7.713368408203125,-0.05233107507228851,0.14700637757778168,0.10013478249311447
1773047908039337700,7.723337646484375,-0.08215846121311188,0.10559425503015518,0.188551664352417
1773047908049320400,7.733320556640625,-0.114116370677948,0.06191844865679741,0.2396843135356903
1773047908059291100,7.743291015625,-0.12157320976257324,0.10759162902832031,0.2780338227748871
1773047908069272600,7.7532724609375,-0.11198583990335464,0.1981390416622162,0.29933908581733704
1773047908079244800,7.763244873046875,-0.11518163233995438,0.2545980215072632,0.28549066185951233
1773047908089225200,7.77322509765625,-0.12903006374835968,0.25672852993011475,0.245010644197464
1773047908099198200,7.7831982421875,-0.1332911103963852,0.23329274356365204,0.18642114102840424
1773047908109177900,7.793177734375,-0.13009531795978546,0.188551664352417,0.10546109825372696
1773047908119151600,7.803151611328125,-0.12263847887516022,0.14274533092975616,0.011851058341562748
1773047908129130800,7.813130859375,-0.114116370677948,0.12570111453533173,-0.08295740932226181
1773047908139105300,7.823105224609375,-0.1002679392695427,0.12463584542274475,-0.16711322963237762
1773047908149084000,7.833083984375,-0.08002793043851852,0.10759162902832031,-0.20759324729442596
1773047908159058700,7.84305859375,-0.07789740711450577,0.10759162902832031,-0.196940615773201
1773047908169036800,7.853036865234375,-0.09387636184692383,0.14700637757778168,-0.140481635928154
1773047908179012000,7.86301220703125,-0.11731215566396713,0.2119874656200409,-0.05952160432934761
1773047908188990000,7.872989990234375,-0.13648690283298492,0.23329274356365204,0.035286858677864075
1773047908198965500,7.882965576171875,-0.1514005959033966,0.23648852109909058,0.13528847694396973
1773047908208943400,7.892943359375,-0.15779218077659607,0.24074958264827728,0.21518325805664062
1773047908218823400,7.902823486328125,-0.15353111922740936,0.22903168201446533,0.2631201148033142
1773047908228640800,7.912640869140625,-0.1471395343542099,0.188551664352417,0.2769685387611389
1773047908238820900,7.92282080078125,-0.12903006374835968,0.1363537460565567,0.25672852993011475
1773047908248854800,7.932854736328125,-0.10346373170614243,0.09707214683294296,0.20453062653541565
1773047908258825700,7.94282568359375,-0.06937529146671295,0.059787921607494354,0.11930952966213226
1773047908268807200,7.95280712890625,-0.03635212033987045,0.007590003311634064,0.01078579481691122
1773047908278779400,7.962779296875,-0.00013315795513335615,-0.05099949613213539,-0.10852373391389847
1773047908288759800,7.972759765625,0.032890014350414276,-0.09680583328008652,-0.22144168615341187
1773047908298732800,7.98273291015625,0.05632581561803818,-0.1255679577589035,-0.3034669756889343
1773047908308712400,7.99271240234375,0.07017423957586288,-0.13409006595611572,-0.3428817391395569
1773047908318725000,8.00272509765625,0.07656582444906235,-0.12237215787172318,-0.33542490005493164
1773047908328708000,8.0127080078125,0.07763108611106873,-0.08615319430828094,-0.28855329751968384
1773047908338640000,8.022639892578125,0.074435293674469,-0.03395527973771095,-0.21718062460422516
1773047908348617700,8.03261767578125,0.06591318547725677,0.02143843099474907,-0.13835111260414124
1773047908358593300,8.04259326171875,0.05952160432934761,0.06404897570610046,-0.06697845458984375
1773047908368571000,8.05257080078125,0.05632581561803818,0.0810931921005249,-0.008388951420783997
1773047908378547000,8.062546875,0.05206476151943207,0.09174583107233047,0.03741738572716713
1773047908388524300,8.072524169921875,0.03821633383631706,0.10759162902832031,0.06617950648069382
1773047908398500400,8.082500244140626,0.02756369672715664,0.10239847004413605,0.07137266546487808
1773047908408477700,8.092477783203124,0.024367906153202057,0.06404897570610046,0.055526867508888245
1773047908418357500,8.102357421875,0.02649843320250511,0.0022636852227151394,0.02996053919196129
1773047908428175000,8.112175048828124,0.032890014350414276,-0.0691089779138565,0.0011984215816482902
1773047908438355200,8.122355224609375,0.04354264959692955,-0.15539532899856567,-0.0318247526884079
1773047908448389400,8.132389404296875,0.05632581561803818,-0.25020378828048706,-0.06271740049123764
1773047908458269400,8.14226953125,0.07017423957586288,-0.35033857822418213,-0.08295740932226181
1773047908468086000,8.1520859375,0.08815056830644608,-0.448209673166275,-0.0978710949420929
1773047908478081300,8.162081298828125,0.10626004636287689,-0.5323655009269714,-0.10639320313930511
1773047908488043000,8.17204296875,0.12330426275730133,-0.601607620716095,-0.1117195263504982
1773047908498223000,8.18222314453125,0.14247901737689972,-0.6548708081245422,-0.12450268864631653
1773047908508255700,8.192255859375,0.16165375709533691,-0.7091992497444153,-0.1490037590265274
1773047908518220800,8.202220703125,0.17017586529254913,-0.7443529963493347,-0.17563533782958984
1773047908528207000,8.21220703125,0.16484954953193665,-0.7177214026451111,-0.18309219181537628
1773047908538087200,8.222087158203125,0.1478053331375122,-0.6218476295471191,-0.17457008361816406
1773047908547903000,8.231903076171875,0.12756532430648804,-0.5014728307723999,-0.1585911214351654
1773047908557895000,8.24189501953125,0.11478215456008911,-0.384427011013031,-0.12663321197032928
1773047908567859200,8.251859130859375,0.10732531547546387,-0.2800311744213104,-0.08402267098426819
1773047908577848300,8.261848388671876,0.09560741484165192,-0.195875346660614,-0.032890014350414276
1773047908587815200,8.271815185546876,0.0786963477730751,-0.1447426974773407,0.020373167470097542
1773047908597995000,8.2819951171875,0.06058686971664429,-0.11491531878709793,0.0703074038028717
1773047908608027100,8.292027099609374,0.04780370742082596,-0.08934898674488068,0.10546109825372696
1773047908617988400,8.30198828125,0.037151068449020386,-0.0456731803715229,0.1267663687467575
1773047908627977500,8.3119775390625,0.029694223776459694,0.009720530360937119,0.13422322273254395
1773047908637941800,8.321941650390626,0.022237379103899002,0.03315633162856102,0.12783163785934448
1773047908647928600,8.331928466796874,0.014780532568693161,0.06831002980470657,0.11504847556352615
1773047908657895400,8.3418955078125,0.004127896390855312,0.10239847004413605,0.09587372839450836
1773047908667880200,8.351880126953125,-0.005459476262331009,0.122505322098732,0.06511423736810684
1773047908677849000,8.36184912109375,-0.009720530360937119,0.1416800618171692,0.02463422156870365
1773047908687832000,8.37183203125,-0.01717737689614296,0.17683376371860504,-0.01904158666729927
1773047908697802500,8.381802490234374,-0.02996053919196129,0.21731378138065338,-0.053130023181438446
1773047908707784400,8.391784423828126,-0.05233107507228851,0.2492716908454895,-0.07230477035045624
1773047908717756200,8.401756103515625,-0.08322372287511826,0.27590328454971313,-0.07230477035045624
1773047908727736800,8.41173681640625,-0.11624689400196075,0.301469624042511,-0.05632581561803818
1773047908737709600,8.42170947265625,-0.15033532679080963,0.3195790946483612,-0.04034686088562012
1773047908747689700,8.431689697265625,-0.17377112805843353,0.3387538492679596,-0.032890014350414276
1773047908757663200,8.441663330078125,-0.18655429780483246,0.3568633198738098,-0.04034686088562012
1773047908767642600,8.451642578125,-0.19507640600204468,0.36858120560646057,-0.06591318547725677
1773047908777522400,8.4615224609375,-0.19294588267803192,0.36432015895843506,-0.10319741815328598
1773047908787339800,8.47133984375,-0.18548902869224548,0.34940648078918457,-0.14580796658992767
1773047908797337300,8.48133740234375,-0.18122798204421997,0.3334275186061859,-0.17883113026618958
1773047908807297300,8.49129736328125,-0.17696692049503326,0.3344927728176117,-0.1916143000125885
1773047908817477400,8.501477294921875,-0.17803218960762024,0.36858120560646057,-0.18415744602680206
1773047908827510500,8.511510498046874,-0.1759016513824463,0.4154528081417084,-0.1639174371957779
1773047908837477000,8.52147705078125,-0.1609879732131958,0.4431496858596802,-0.12876373529434204
1773047908847462100,8.531462158203125,-0.13435637950897217,0.433562308549881,-0.07763108611106873
1773047908857430800,8.5414306640625,-0.10665952414274216,0.38242965936660767,-0.01904158666729927
1773047908867414000,8.5514140625,-0.0810931921005249,0.2972085475921631,0.04167843982577324
1773047908877384200,8.56138427734375,-0.059787921607494354,0.20453062653541565,0.09267793595790863
1773047908887366100,8.5713662109375,-0.04167843982577324,0.12889690697193146,0.12889690697193146
1773047908897337900,8.581337890625,-0.022503694519400597,0.06831002980470657,0.1459411233663559
1773047908907318800,8.59131884765625,-0.0011984215816482902,0.006524739786982536,0.1416800618171692
1773047908917291300,8.601291259765626,0.025433169677853584,-0.05845634266734123,0.11717899888753891
1773047908927271400,8.611271484375,0.05099949613213539,-0.12024163454771042,0.08309056609869003
1773047908937245000,8.621244873046875,0.07017423957586288,-0.17989639937877655,0.05233107507228851
1773047908947224300,8.631224365234376,0.08282424509525299,-0.24594274163246155,0.02889527566730976
1773047908957104400,8.6411044921875,0.0913463607430458,-0.30772802233695984,0.0011984215816482902
1773047908966921700,8.650921630859376,0.0966726765036583,-0.35886070132255554,-0.037151068449020386
1773047908976919300,8.660919189453125,0.09880319982767105,-0.40040597319602966,-0.08189214020967484
1773047908986879200,8.670879150390626,0.10839057713747025,-0.42490702867507935,-0.12663321197032928
1773047908997059000,8.68105908203125,0.10626004636287689,-0.42384177446365356,-0.16072164475917816
1773047909007092200,8.69109228515625,0.09028109163045883,-0.37377437949180603,-0.17670060694217682
1773047909017058800,8.701058837890624,0.0648479238152504,-0.262986958026886,-0.16711322963237762
1773047909027043800,8.7110439453125,0.037151068449020386,-0.13409006595611572,-0.1351553201675415
1773047909036924000,8.720923828125,0.01584579609334469,-0.024367906153202057,-0.08082687854766846
1773047909046740000,8.730739990234374,0.008388951420783997,0.051265813410282135,-0.011584741994738579
1773047909056920000,8.740920166015625,0.017976323142647743,0.07576687633991241,0.06511423736810684
1773047909066953200,8.750953125,0.04460791498422623,0.03741738572716713,0.14381058514118195
1773047909076919600,8.76091943359375,0.07337003201246262,-0.041412122547626495,0.20559588074684143
1773047909086904600,8.770904541015625,0.09560741484165192,-0.12343742698431015,0.24714116752147675
1773047909096873200,8.780873291015626,0.10519478470087051,-0.18841850757598877,0.26098960638046265
1773047909106856700,8.790856689453125,0.10945583879947662,-0.23635536432266235,0.2396843135356903
1773047909116827000,8.800826904296875,0.11265163123607635,-0.2725743353366852,0.17150744795799255
1773047909126808800,8.810808837890624,0.12117373943328857,-0.3034669756889343,0.058722659945487976
1773047909136689000,8.82068896484375,0.12863057851791382,-0.3183806836605072,-0.07337003201246262
1773047909146505500,8.83050537109375,0.12117373943328857,-0.3002711832523346,-0.196940615773201
1773047909156685600,8.840685546875,0.10626004636287689,-0.23742063343524933,-0.2906838059425354
1773047909166719000,8.850718994140625,0.0786963477730751,-0.12769848108291626,-0.34075120091438293
1773047909176599000,8.86059912109375,0.03821633383631706,0.006524739786982536,-0.34394699335098267
1773047909186415000,8.8704150390625,-0.009720530360937119,0.12889690697193146,-0.29707539081573486
1773047909196595200,8.88059521484375,-0.05339634045958519,0.20985694229602814,-0.20439745485782623
1773047909206628400,8.89062841796875,-0.0906805694103241,0.2492716908454895,-0.0786963477730751
1773047909216594400,8.900594482421875,-0.11305110156536102,0.25672852993011475,0.06085318699479103
1773047909226579700,8.910579833984375,-0.13648690283298492,0.24607589840888977,0.18961693346500397
1773047909236548000,8.920548095703126,-0.15353111922740936,0.22690115869045258,0.2812296152114868
1773047909246531600,8.930531494140626,-0.15885743498802185,0.2162485122680664,0.3195790946483612
1773047909256411600,8.94041162109375,-0.15779218077659607,0.21092219650745392,0.301469624042511
1773047909266228000,8.95022802734375,-0.14394375681877136,0.1981390416622162,0.2300969511270523
1773047909276222500,8.960222412109376,-0.11305110156536102,0.17044217884540558,0.11930952966213226
1773047909286185000,8.97018505859375,-0.0810931921005249,0.11824426054954529,-0.010519478470087051
1773047909296365000,8.980364990234374,-0.05020054802298546,0.058722659945487976,-0.13728585839271545
1773047909306397700,8.990397705078125,-0.022503694519400597,0.013981585390865803,-0.25126907229423523
1773047909316362200,9.0003623046875,-0.0011984215816482902,-0.0062584239058196545,-0.34075120091438293
1773047909326348800,9.010348876953126,0.014780532568693161,-0.004127896390855312,-0.3940143883228302
1773047909336316000,9.02031591796875,0.020106852054595947,0.027830012142658234,-0.4036017656326294
1773047909346300700,9.03030078125,0.012650005519390106,0.08641951531171799,-0.3663175404071808
1773047909356269600,9.04026953125,-0.006524739786982536,0.15446323156356812,-0.2821617126464844
1773047909366252500,9.05025244140625,-0.03741738572716713,0.2354232668876648,-0.16072164475917816
1773047909376132600,9.060132568359375,-0.07683213800191879,0.3302317261695862,-0.021172115579247475
1773047909385991700,9.06999169921875,-0.10985531657934189,0.41225701570510864,0.10439583659172058
1773047909396176600,9.0801767578125,-0.13009531795978546,0.44847598671913147,0.19387798011302948
1773047909406161700,9.09016162109375,-0.1332911103963852,0.4367581009864807,0.24288010597229004
1773047909416130000,9.100130126953125,-0.11305110156536102,0.3941475450992584,0.2577938139438629
1773047909426113500,9.110113525390625,-0.07683213800191879,0.32810118794441223,0.24288010597229004
1773047909436083700,9.120083740234374,-0.048070020973682404,0.2577938139438629,0.21837905049324036
1773047909446066000,9.13006591796875,-0.026764748618006706,0.1928127259016037,0.19174745678901672
1773047909456037400,9.140037353515625,-0.011851058341562748,0.1406148076057434,0.16405059397220612
1773047909466018300,9.150018310546875,0.004127896390855312,0.09813741594552994,0.13315795361995697
1773047909475991000,9.159990966796874,0.021172115579247475,0.06298371404409409,0.09693899005651474
1773047909485971200,9.16997119140625,0.03821633383631706,0.039547912776470184,0.0576573945581913
1773047909495944700,9.17994482421875,0.05206476151943207,0.008655266836285591,0.02569948509335518
1773047909505924000,9.189924072265624,0.061652131378650665,-0.03502054139971733,-0.0019973693415522575
1773047909515898400,9.1998984375,0.06271740049123764,-0.06378266215324402,-0.03395527973771095
1773047909525877200,9.209877197265625,0.05632581561803818,-0.08934898674488068,-0.053130023181438446
1773047909535851800,9.219851806640625,0.032890014350414276,-0.08082687854766846,-0.0648479238152504
1773047909545830400,9.229830322265625,0.017976323142647743,-0.0691089779138565,-0.06697845458984375
1773047909555805400,9.239805419921876,0.022237379103899002,-0.07337003201246262,-0.07017423957586288
1773047909565783600,9.249783447265624,0.03075948730111122,-0.061652131378650665,-0.08295740932226181
1773047909575758800,9.2597587890625,0.03395527973771095,-0.06591318547725677,-0.0786963477730751
1773047909585737000,9.269737060546875,0.03395527973771095,-0.09467530250549316,-0.05845634266734123
1773047909595616800,9.27961669921875,0.020106852054595947,-0.13195952773094177,-0.03395527973771095
1773047909605477000,9.28947705078125,0.009454214945435524,-0.15752586722373962,-0.017976323142647743
1773047909615666000,9.299666015625,0.012650005519390106,-0.1681784987449646,-0.01584579609334469
1773047909625647900,9.30964794921875,0.017976323142647743,-0.1873532384634018,-0.028628960251808167
1773047909635619600,9.31961962890625,0.03608580678701401,-0.22570273280143738,-0.048868969082832336
1773047909645600300,9.329600341796874,0.0552605502307415,-0.26937854290008545,-0.0648479238152504
1773047909655480300,9.339480224609375,0.074435293674469,-0.308793306350708,-0.07550056278705597
1773047909665340000,9.34933984375,0.08495477586984634,-0.33542490005493164,-0.07656582444906235
1773047909675332600,9.35933251953125,0.08282424509525299,-0.3332943618297577,-0.07017423957586288
1773047909685296600,9.369296630859376,0.074435293674469,-0.3002711832523346,-0.06058686971664429
1773047909695480000,9.37947998046875,0.07017423957586288,-0.25020378828048706,-0.053130023181438446
1773047909705466400,9.38946630859375,0.0691089779138565,-0.20333220064640045,-0.04780370742082596
1773047909715434000,9.39943408203125,0.0691089779138565,-0.15965639054775238,-0.04034686088562012
1773047909725418200,9.409418212890625,0.06271740049123764,-0.12024163454771042,-0.028628960251808167
1773047909735387400,9.419387451171875,0.05099949613213539,-0.08402267098426819,-0.014780532568693161
1773047909745370400,9.429370361328125,0.037151068449020386,-0.0456731803715229,-0.0019973693415522575
1773047909755341000,9.439341064453124,0.02649843320250511,-0.004127896390855312,0.0043942127376794815
1773047909765322800,9.44932275390625,0.025433169677853584,0.02569948509335518,0.0033289489801973104
1773047909775294700,9.459294677734375,0.025433169677853584,0.04167843982577324,0.0022636852227151394
1773047909785275400,9.469275390625,0.02756369672715664,0.039547912776470184,0.007590003311634064
1773047909795248400,9.479248291015624,0.032890014350414276,0.023568958044052124,0.02463422156870365
1773047909805228300,9.489228271484375,0.03608580678701401,0.005459476262331009,0.04593949392437935
1773047909815202000,9.4992021484375,0.03821633383631706,0.005459476262331009,0.0703074038028717
1773047909825181200,9.50918115234375,0.0456731803715229,0.013981585390865803,0.09161267429590225
1773047909835155500,9.519155517578126,0.06058686971664429,0.01078579481691122,0.10439583659172058
1773047909845134300,9.52913427734375,0.08175898343324661,-0.009454214945435524,0.10865689069032669
1773047909855109000,9.539109130859375,0.10945583879947662,-0.028628960251808167,0.10759162902832031
1773047909865087500,9.54908740234375,0.13502216339111328,-0.03608580678701401,0.10546109825372696
1773047909875062800,9.559062744140626,0.15100112557411194,-0.03395527973771095,0.10439583659172058
1773047909885040600,9.56904052734375,0.16058848798274994,-0.02649843320250511,0.10759162902832031
1773047909894920700,9.578920654296875,0.16165375709533691,-0.012650005519390106,0.11398320645093918
1773047909904781000,9.588781005859374,0.16165375709533691,-0.009454214945435524,0.11398320645093918
1773047909914969900,9.598969970703125,0.15845796465873718,-0.014780532568693161,0.10865689069032669
1773047909924951600,9.60895166015625,0.1478053331375122,-0.013715269044041634,0.10013478249311447
1773047909934923500,9.618923583984374,0.13076111674308777,-0.02649843320250511,0.09161267429590225
1773047909944904200,9.628904296875,0.10945583879947662,-0.057391077280044556,0.0798947736620903
1773047909954877000,9.638876953125,0.0786963477730751,-0.08189214020967484,0.06924213469028473
1773047909964857000,9.648857177734374,0.0456731803715229,-0.08934898674488068,0.05339634045958519
1773047909974830600,9.65883056640625,0.014780532568693161,-0.08508793264627457,0.03209106624126434
1773047909984810000,9.66881005859375,-0.009720530360937119,-0.08402267098426819,0.007590003311634064
1773047909994784300,9.6787841796875,-0.023568958044052124,-0.0978710949420929,-0.012650005519390106
1773047910004763100,9.68876318359375,-0.03209106624126434,-0.1117195263504982,-0.022237379103899002
1773047910014738000,9.698738037109376,-0.04487423226237297,-0.12024163454771042,-0.024367906153202057
1773047910024716300,9.70871630859375,-0.06298371404409409,-0.13835111260414124,-0.02649843320250511
1773047910034691300,9.71869140625,-0.06937529146671295,-0.16924376785755157,-0.03395527973771095
1773047910044669400,9.72866943359375,-0.059787921607494354,-0.19907113909721375,-0.04780370742082596
1773047910054645000,9.73864501953125,-0.04487423226237297,-0.22250694036483765,-0.06271740049123764
1773047910064622800,9.748622802734374,-0.031025802716612816,-0.23955115675926208,-0.074435293674469
1773047910074503000,9.7585029296875,-0.016112113371491432,-0.25446486473083496,-0.08189214020967484
1773047910084363300,9.76836328125,-0.0022636852227151394,-0.2576606571674347,-0.07976161688566208
1773047910094358000,9.77835791015625,0.008388951420783997,-0.24700801074504852,-0.0691089779138565
1773047910104320300,9.7883203125,0.017976323142647743,-0.24594274163246155,-0.04993423447012901
1773047910114505700,9.798505615234374,0.025433169677853584,-0.2342248409986496,-0.0318247526884079
1773047910124490200,9.808490234375,0.0318247526884079,-0.21291956305503845,-0.020106852054595947
1773047910134459100,9.818459228515625,0.0456731803715229,-0.20759324729442596,-0.01584579609334469
1773047910144442400,9.8284423828125,0.06378266215324402,-0.20013640820980072,-0.021172115579247475
1773047910154322400,9.838322509765625,0.07550056278705597,-0.1820269227027893,-0.03075948730111122
1773047910164181500,9.848181396484375,0.08175898343324661,-0.1585911214351654,-0.04354264959692955
1773047910174366500,9.858366455078125,0.08388951420783997,-0.13728585839271545,-0.05632581561803818
1773047910184351500,9.8683515625,0.08069372177124023,-0.11811110377311707,-0.074435293674469
1773047910194320100,9.878320068359375,0.07976161688566208,-0.08934898674488068,-0.08615319430828094
1773047910204303400,9.888303466796875,0.07656582444906235,-0.05099949613213539,-0.08402267098426819
1773047910214273500,9.8982734375,0.0648479238152504,-0.017976323142647743,-0.06591318547725677
1773047910224255700,9.908255859375,0.04460791498422623,-0.0019973693415522575,-0.03502054139971733
1773047910234227200,9.918227294921875,0.01584579609334469,0.012916321866214275,0.007590003311634064
1773047910244208400,9.92820849609375,-0.016112113371491432,0.027830012142658234,0.06085318699479103
1773047910254088200,9.938088134765625,-0.048070020973682404,0.042743705213069916,0.10652636736631393
1773047910263947800,9.94794775390625,-0.06617950648069382,0.048070020973682404,0.13315795361995697
1773047910274134300,9.95813427734375,-0.07363634556531906,0.039547912776470184,0.14487585425376892
1773047910284118000,9.968117919921875,-0.07044056057929993,0.03315633162856102,0.14381058514118195
1773047910293998000,9.977998046875,-0.06617950648069382,0.03209106624126434,0.13954953849315643
1773047910303857200,9.987857177734375,-0.06298371404409409,0.020373167470097542,0.12889690697193146
1773047910314041600,9.99804150390625,-0.05339634045958519,-0.0062584239058196545,0.10546109825372696
1773047910324027000,10.00802685546875,-0.031025802716612816,-0.03502054139971733,0.07456845790147781
1773047910333995000,10.0179951171875,-0.005459476262331009,-0.05206476151943207,0.043808966875076294
1773047910343979000,10.02797900390625,0.014780532568693161,-0.05845634266734123,0.007590003311634064
1773047910353948700,10.03794873046875,0.028628960251808167,-0.053130023181438446,-0.02330264262855053
1773047910363931100,10.04793115234375,0.03928159549832344,-0.04993423447012901,-0.041412122547626495
1773047910373902300,10.05790234375,0.0456731803715229,-0.04354264959692955,-0.05206476151943207
1773047910383883800,10.0678837890625,0.0456731803715229,-0.01904158666729927,-0.05419528856873512
1773047910393856000,10.07785595703125,0.037151068449020386,0.011851058341562748,-0.05632581561803818
1773047910403836400,10.08783642578125,0.02649843320250511,0.03635212033987045,-0.05845634266734123
1773047910413809700,10.0978095703125,0.021172115579247475,0.05446160212159157,-0.0552605502307415
1773047910423789300,10.107789306640624,0.014780532568693161,0.06085318699479103,-0.04247738793492317
1773047910433763300,10.117763427734374,0.004127896390855312,0.0576573945581913,-0.013715269044041634
1773047910443742500,10.127742431640625,-0.01078579481691122,0.05446160212159157,0.02143843099474907
1773047910453717000,10.137717041015625,-0.023568958044052124,0.039547912776470184,0.055526867508888245
1773047910463695400,10.1476953125,-0.02996053919196129,0.020373167470097542,0.07563371956348419
1773047910473670400,10.15767041015625,-0.02996053919196129,0.01078579481691122,0.08096003532409668
1773047910483648800,10.167648681640625,-0.020373167470097542,0.0043942127376794815,0.0703074038028717
1773047910493528800,10.17752880859375,-0.0043942127376794815,-0.009454214945435524,0.055526867508888245
1773047910503389000,10.187388916015625,0.009454214945435524,-0.03502054139971733,0.03848264738917351
1773047910513577500,10.197577392578125,0.01904158666729927,-0.053130023181438446,0.02143843099474907
1773047910523559400,10.207559326171875,0.025433169677853584,-0.053130023181438446,0.005459476262331009
1773047910533531100,10.21753125,0.02649843320250511,-0.04673844203352928,-0.009454214945435524
1773047910543512000,10.227511962890626,0.017976323142647743,-0.041412122547626495,-0.029694223776459694
1773047910553484800,10.23748486328125,0.021172115579247475,-0.04460791498422623,-0.0456731803715229
1773047910563465000,10.24746484375,0.029694223776459694,-0.048868969082832336,-0.04780370742082596
1773047910573438500,10.2574384765625,0.02756369672715664,-0.0456731803715229,-0.032890014350414276
1773047910583417900,10.26741796875,0.011584741994738579,-0.03502054139971733,-0.004127896390855312
1773047910593391900,10.277391845703125,-0.0043942127376794815,-0.02756369672715664,0.02463422156870365
1773047910603371000,10.28737109375,-0.01504684891551733,-0.022237379103899002,0.035286858677864075
1773047910613345500,10.297345458984376,-0.01717737689614296,-0.01584579609334469,0.03209106624126434
1773047910623324200,10.30732421875,-0.01078579481691122,0.00013315795513335615,0.023568958044052124
1773047910633299200,10.31729931640625,-0.0043942127376794815,0.018242640420794487,0.01717737689614296
1773047910643277300,10.32727734375,0.003062632866203785,0.023568958044052124,0.01717737689614296
1773047910653252900,10.3372529296875,0.008388951420783997,0.018242640420794487,0.02889527566730976
1773047910663230700,10.347230712890624,0.012650005519390106,0.013981585390865803,0.039547912776470184
1773047910673206500,10.35720654296875,0.010519478470087051,0.018242640420794487,0.04487423226237297
1773047910683184000,10.36718408203125,0.007323687430471182,0.027830012142658234,0.035286858677864075
1773047910693160000,10.377159912109375,0.011584741994738579,0.02996053919196129,0.012916321866214275
1773047910703137500,10.387137451171874,0.01904158666729927,0.023568958044052124,-0.012650005519390106
1773047910713113600,10.397113525390624,0.022237379103899002,0.020373167470097542,-0.02649843320250511
1773047910723091000,10.407091064453125,0.013715269044041634,0.01717737689614296,-0.017976323142647743
1773047910733067300,10.4170673828125,0.0019973693415522575,0.008655266836285591,-0.0019973693415522575
1773047910743044400,10.42704443359375,-0.009720530360937119,0.00013315795513335615,0.011851058341562748
1773047910753020700,10.437020751953124,-0.01717737689614296,0.0033289489801973104,0.01504684891551733
1773047910762998000,10.446998046875,-0.020373167470097542,0.02143843099474907,0.01504684891551733
1773047910772877800,10.4568779296875,-0.022503694519400597,0.04061317816376686,0.01504684891551733
1773047910782738200,10.46673828125,-0.023568958044052124,0.048070020973682404,0.02143843099474907
1773047910792734000,10.47673388671875,-0.022503694519400597,0.04487423226237297,0.0342215932905674
1773047910802695400,10.4866953125,-0.02143843099474907,0.02996053919196129,0.042743705213069916
1773047910812881400,10.49688134765625,-0.020373167470097542,0.013981585390865803,0.043808966875076294
1773047910822865700,10.50686572265625,-0.012916321866214275,0.009720530360937119,0.03315633162856102
1773047910832835000,10.5168349609375,-0.0033289489801973104,0.0022636852227151394,0.007590003311634064
1773047910842817800,10.52681787109375,0.010519478470087051,-0.017976323142647743,-0.014780532568693161
1773047910852788700,10.536788818359375,0.02330264262855053,-0.0318247526884079,-0.025433169677853584
1773047910862770200,10.546770263671876,0.02649843320250511,-0.0318247526884079,-0.02330264262855053
1773047910872742100,10.5567421875,0.020106852054595947,-0.03608580678701401,-0.016911059617996216
1773047910882722800,10.566722900390625,0.013715269044041634,-0.04673844203352928,-0.012650005519390106
1773047910892695800,10.57669580078125,0.0019973693415522575,-0.04673844203352928,-0.016911059617996216
1773047910902675700,10.58667578125,-0.00013315795513335615,-0.032890014350414276,-0.02649843320250511
1773047910912649500,10.5966494140625,0.004127896390855312,-0.016911059617996216,-0.03395527973771095
1773047910922628900,10.60662890625,0.008388951420783997,-0.008388951420783997,-0.0318247526884079
1773047910932603100,10.61660302734375,0.007323687430471182,-0.009454214945435524,-0.01584579609334469
1773047910942581800,10.626581787109375,0.004127896390855312,-0.005193160381168127,0.011851058341562748
1773047910952461800,10.6364619140625,-0.0011984215816482902,0.02143843099474907,0.04487423226237297
1773047910962321700,10.64632177734375,-0.01078579481691122,0.06191844865679741,0.07243792712688446
1773047910972510000,10.656510009765626,-0.016112113371491432,0.09387636184692383,0.08841688185930252
1773047910982492400,10.666492431640625,-0.011851058341562748,0.10346373170614243,0.09161267429590225
1773047910992463600,10.676463623046875,-0.0033289489801973104,0.0949416235089302,0.09267793595790863
1773047911002444800,10.68644482421875,-0.0033289489801973104,0.07896266877651215,0.0990695208311081
1773047911012417300,10.696417236328125,-0.007590003311634064,0.06937529146671295,0.10865689069032669
1773047911022397700,10.706397705078125,-0.01717737689614296,0.05659212917089462,0.11078742146492004
1773047911032371000,10.716370849609374,-0.023568958044052124,0.04487423226237297,0.1033305749297142
1773047911042350600,10.7263505859375,-0.022503694519400597,0.039547912776470184,0.0798947736620903
1773047911052324600,10.73632470703125,-0.013981585390865803,0.03635212033987045,0.047004759311676025
1773047911062303700,10.7463037109375,-0.005459476262331009,0.02889527566730976,0.013981585390865803
1773047911072278300,10.7562783203125,0.0019973693415522575,0.006524739786982536,-0.009454214945435524
1773047911082257000,10.7662568359375,0.008388951420783997,-0.022237379103899002,-0.01904158666729927
1773047911092231700,10.776231689453125,0.008388951420783997,-0.03502054139971733,-0.017976323142647743
1773047911102210000,10.7862099609375,0.0009321057004854083,-0.02649843320250511,-0.013715269044041634
1773047911112185300,10.796185302734376,-0.011851058341562748,-0.007323687430471182,-0.017976323142647743
1773047911122163200,10.8061630859375,-0.016112113371491432,0.007590003311634064,-0.03075948730111122
1773047911132139000,10.816138916015625,-0.01078579481691122,0.011851058341562748,-0.0456731803715229
1773047911142116600,10.82611669921875,-0.0043942127376794815,0.012916321866214275,-0.0456731803715229
1773047911152093400,10.836093505859376,-0.0043942127376794815,0.016112113371491432,-0.024367906153202057
1773047911172046800,10.856046875,-0.019307903945446014,0.018242640420794487,0.03315633162856102
1773047911182023000,10.86602294921875,-0.019307903945446014,0.019307903945446014,0.042743705213069916
1773047911192000300,10.876000244140625,-0.018242640420794487,0.026764748618006706,0.03848264738917351
1773047911201976600,10.8859765625,-0.012916321866214275,0.042743705213069916,0.026764748618006706
1773047911211954000,10.895953857421874,-0.0043942127376794815,0.05339634045958519,0.01504684891551733
1773047911221930200,10.90593017578125,-0.0033289489801973104,0.048070020973682404,0.01078579481691122
1773047911231907300,10.9159072265625,-0.006524739786982536,0.039547912776470184,0.013981585390865803
1773047911241883600,10.925883544921875,-0.011851058341562748,0.047004759311676025,0.022503694519400597
1773047911251860700,10.93586083984375,-0.019307903945446014,0.06298371404409409,0.026764748618006706
1773047911261837300,10.94583740234375,-0.02463422156870365,0.07470161467790604,0.023568958044052124
1773047911271814400,10.955814453125,-0.01717737689614296,0.07257108390331268,0.013981585390865803
1773047911281791000,10.965791015625,-0.0043942127376794815,0.05339634045958519,0.007590003311634064
1773047911291767800,10.975767822265626,0.004127896390855312,0.02889527566730976,0.01078579481691122
1773047911301744400,10.985744384765624,0.007323687430471182,0.011851058341562748,0.018242640420794487
1773047911311721500,10.995721435546875,0.0009321057004854083,-0.005193160381168127,0.022503694519400597
1773047911321698000,11.005697998046875,-0.005459476262331009,-0.022237379103899002,0.020373167470097542
1773047911331675000,11.0156748046875,-0.0043942127376794815,-0.028628960251808167,0.005459476262331009
1773047911341651700,11.025651611328126,0.005193160381168127,-0.022237379103899002,-0.012650005519390106
1773047911351628500,11.035628662109374,0.013715269044041634,-0.013715269044041634,-0.02330264262855053
1773047911361566500,11.04556640625,0.01904158666729927,-0.017976323142647743,-0.021172115579247475
1773047911371539500,11.05553955078125,0.024367906153202057,-0.028628960251808167,-0.009454214945435524
1773047911381558800,11.065558837890626,0.020106852054595947,-0.03395527973771095,0.007590003311634064
1773047911391536400,11.075536376953124,0.007323687430471182,-0.017976323142647743,0.02463422156870365
1773047911401512400,11.085512451171875,-0.006524739786982536,0.007590003311634064,0.03209106624126434
1773047911411489800,11.09548974609375,-0.013981585390865803,0.020373167470097542,0.02889527566730976
1773047911421465900,11.1054658203125,-0.008655266836285591,0.016112113371491432,0.019307903945446014
1773047911431443200,11.115443115234376,-0.0022636852227151394,0.008655266836285591,0.013981585390865803
1773047911441419500,11.12541943359375,-0.0011984215816482902,0.0033289489801973104,0.013981585390865803
1773047911451396900,11.13539697265625,-0.008655266836285591,-0.0009321057004854083,0.019307903945446014
1773047911461334300,11.145334228515624,-0.018242640420794487,-0.007323687430471182,0.018242640420794487
1773047911471307500,11.1553076171875,-0.016112113371491432,-0.0062584239058196545,0.0043942127376794815
1773047911481326600,11.16532666015625,-0.0043942127376794815,0.009720530360937119,-0.010519478470087051
1773047911491304400,11.175304443359375,0.003062632866203785,0.026764748618006706,-0.01904158666729927
1773047911501280300,11.1852802734375,0.009454214945435524,0.02463422156870365,-0.017976323142647743
1773047911511257900,11.1952578125,0.01584579609334469,0.0022636852227151394,-0.0062584239058196545
1773047911521234000,11.20523388671875,0.020106852054595947,-0.016911059617996216,0.011851058341562748
1773047911531211300,11.215211181640624,0.016911059617996216,-0.012650005519390106,0.03315633162856102
1773047911541187600,11.2251875,0.005193160381168127,0.008655266836285591,0.048070020973682404
1773047911551165000,11.2351650390625,-0.0033289489801973104,0.035286858677864075,0.048070020973682404
1773047911561141000,11.24514111328125,-0.0033289489801973104,0.042743705213069916,0.03741738572716713
1773047911571118300,11.255118408203124,-0.0022636852227151394,0.0342215932905674,0.031025802716612816
1773047911581094700,11.2650947265625,-0.005459476262331009,0.03315633162856102,0.03635212033987045
1773047911591071700,11.27507177734375,-0.012916321866214275,0.042743705213069916,0.048070020973682404
1773047911601048300,11.28504833984375,-0.02889527566730976,0.04487423226237297,0.055526867508888245
1773047911611025200,11.295025146484376,-0.043808966875076294,0.042743705213069916,0.051265813410282135
1773047911621001700,11.305001708984374,-0.03635212033987045,0.047004759311676025,0.03635212033987045
1773047911630978800,11.314978759765625,-0.019307903945446014,0.05659212917089462,0.020373167470097542
1773047911640955400,11.324955322265625,-0.007590003311634064,0.058722659945487976,0.007590003311634064
1773047911650932500,11.334932373046875,-0.0033289489801973104,0.043808966875076294,0.0043942127376794815
1773047911660908800,11.34490869140625,0.004127896390855312,0.019307903945446014,0.01504684891551733
1773047911670886000,11.354885986328124,0.005193160381168127,-0.0009321057004854083,0.031025802716612816
1773047911680862500,11.364862548828125,-0.0011984215816482902,-0.0062584239058196545,0.043808966875076294
1773047911690839300,11.37483935546875,-0.007590003311634064,0.00013315795513335615,0.04167843982577324
1773047911700816100,11.384816162109376,-0.005459476262331009,0.00013315795513335615,0.02569948509335518
1773047911710793000,11.39479296875,0.0019973693415522575,-0.009454214945435524,0.0043942127376794815
1773047911720769800,11.404769775390625,0.0062584239058196545,-0.01904158666729927,-0.008388951420783997
1773047911730746600,11.41474658203125,-0.0011984215816482902,-0.01904158666729927,-0.0062584239058196545
1773047911740684300,11.424684326171874,-0.013981585390865803,-0.01584579609334469,0.00013315795513335615
1773047911750657300,11.4346572265625,-0.023568958044052124,-0.01584579609334469,-0.0019973693415522575
1773047911760638000,11.444637939453125,-0.027830012142658234,-0.007323687430471182,-0.012650005519390106
1773047911770611700,11.45461181640625,-0.027830012142658234,0.012916321866214275,-0.025433169677853584
1773047911780591600,11.464591552734374,-0.027830012142658234,0.02569948509335518,-0.029694223776459694
1773047911790566000,11.47456591796875,-0.026764748618006706,0.027830012142658234,-0.022237379103899002
1773047911800545000,11.484544921875,-0.023568958044052124,0.016112113371491432,-0.0019973693415522575
1773047911810519800,11.494519775390625,-0.020373167470097542,0.00013315795513335615,0.026764748618006706
1773047911820498700,11.504498779296876,-0.018242640420794487,-0.007323687430471182,0.047004759311676025
1773047911830474000,11.514473876953126,-0.01717737689614296,-0.0062584239058196545,0.051265813410282135
1773047911840452400,11.524452392578125,-0.009720530360937119,0.0011984215816482902,0.04167843982577324
1773047911850428000,11.534427978515625,0.005193160381168127,0.0043942127376794815,0.02569948509335518
1773047911860444700,11.544444580078125,0.017976323142647743,0.00013315795513335615,0.009720530360937119
1773047911870424300,11.55442431640625,0.021172115579247475,-0.0062584239058196545,0.0022636852227151394
1773047911880398000,11.564398193359375,0.01584579609334469,-0.016911059617996216,0.0043942127376794815
1773047911890377200,11.574377197265624,0.0062584239058196545,-0.01584579609334469,0.011851058341562748
1773047911900313000,11.58431298828125,-0.00013315795513335615,-0.0009321057004854083,0.018242640420794487
1773047911910287600,11.59428759765625,-0.007590003311634064,0.02143843099474907,0.02463422156870365
1773047911920227800,11.604227783203125,-0.016112113371491432,0.03848264738917351,0.0342215932905674
1773047911930199000,11.614198974609375,-0.020373167470097542,0.027830012142658234,0.04061317816376686
1773047911940142600,11.624142578125,-0.01717737689614296,-0.0062584239058196545,0.04913528636097908
1773047911950111000,11.634111083984376,-0.01078579481691122,-0.03608580678701401,0.05339634045958519
1773047911959991000,11.643990966796874,-0.007590003311634064,-0.041412122547626495,0.0576573945581913
1773047911969870800,11.653870849609374,-0.006524739786982536,-0.02330264262855053,0.051265813410282135
1773047911979971800,11.663971923828125,-0.0043942127376794815,-0.003062632866203785,0.03315633162856102
1773047911989938200,11.673938232421875,0.007323687430471182,-0.0009321057004854083,0.008655266836285591
1773047911999886600,11.683886474609375,0.020106852054595947,-0.012650005519390106,-0.014780532568693161
1773047912009851100,11.69385107421875,0.02649843320250511,-0.024367906153202057,-0.02649843320250511
1773047912020031000,11.704031005859376,0.022237379103899002,-0.0318247526884079,-0.020106852054595947
1773047912030076400,11.714076416015626,0.011584741994738579,-0.03502054139971733,-0.01584579609334469
1773047912039956500,11.72395654296875,0.008388951420783997,-0.03075948730111122,-0.016911059617996216
1773047912049836500,11.73383642578125,-0.00013315795513335615,-0.013715269044041634,-0.022237379103899002
1773047912059716400,11.74371630859375,-0.0033289489801973104,0.011851058341562748,-0.02756369672715664
1773047912069600500,11.7536005859375,-0.00013315795513335615,0.022503694519400597,-0.02330264262855053
1773047912079506400,11.76350634765625,-0.0022636852227151394,0.018242640420794487,-0.005193160381168127
1773047912089470200,11.77347021484375,-0.007590003311634064,0.005459476262331009,0.022503694519400597
1773047912099421200,11.783421142578124,-0.01504684891551733,-0.0009321057004854083,0.05339634045958519
1773047912109383700,11.7933837890625,-0.02569948509335518,0.0043942127376794815,0.07456845790147781
1773047912119336000,11.8033359375,-0.031025802716612816,0.01717737689614296,0.07563371956348419
1773047912129297400,11.81329736328125,-0.02463422156870365,0.016112113371491432,0.058722659945487976
1773047912139250700,11.823250732421876,-0.012916321866214275,0.0022636852227151394,0.03741738572716713
1773047912149211400,11.83321142578125,-0.00013315795513335615,-0.009454214945435524,0.013981585390865803
1773047912159126800,11.843126708984375,0.004127896390855312,-0.02330264262855053,-0.0019973693415522575
1773047912169083000,11.853082763671875,0.0062584239058196545,-0.03821633383631706,-0.021172115579247475
1773047912179003000,11.8630029296875,0.013715269044041634,-0.05206476151943207,-0.0456731803715229
1773047912188955400,11.872955322265625,0.025433169677853584,-0.05419528856873512,-0.07017423957586288
1773047912198956000,11.8829560546875,0.037151068449020386,-0.048868969082832336,-0.08508793264627457
1773047912208913400,11.892913330078125,0.04354264959692955,-0.04780370742082596,-0.08721846342086792
1773047912219093500,11.903093505859376,0.04354264959692955,-0.06697845458984375,-0.0786963477730751
1773047912229273300,11.9132734375,0.03821633383631706,-0.09254477918148041,-0.05845634266734123
1773047912239453400,11.923453369140624,0.03075948730111122,-0.0978710949420929,-0.03821633383631706
1773047912249559000,11.93355908203125,0.014780532568693161,-0.0648479238152504,-0.024367906153202057
1773047912259515600,11.943515625,-0.007590003311634064,-0.017976323142647743,-0.017976323142647743
1773047912269508600,11.953508544921876,-0.022503694519400597,0.02463422156870365,-0.016911059617996216
1773047912279469300,11.96346923828125,-0.019307903945446014,0.06191844865679741,-0.021172115579247475
1773047912289459200,11.973459228515624,-0.016112113371491432,0.08322372287511826,-0.016911059617996216
1773047912299423000,11.983423095703126,-0.018242640420794487,0.08961530029773712,0.00013315795513335615
1773047912309410000,11.99341015625,-0.02463422156870365,0.07470161467790604,0.016112113371491432
1773047912319376600,12.003376708984375,-0.02569948509335518,0.058722659945487976,0.020373167470097542
1773047912329361700,12.013361572265625,-0.01504684891551733,0.058722659945487976,0.008655266836285591
1773047912339330300,12.023330322265625,-0.0022636852227151394,0.07044056057929993,-0.008388951420783997
1773047912349313800,12.033313720703125,0.005193160381168127,0.07363634556531906,-0.02756369672715664
1773047912359284000,12.043283935546874,0.010519478470087051,0.0576573945581913,-0.04034686088562012
1773047912369266000,12.053265869140626,0.0062584239058196545,0.023568958044052124,-0.03928159549832344
1773047912379237600,12.063237548828125,0.005193160381168127,0.009720530360937119,-0.02756369672715664
1773047912389218600,12.073218505859375,0.003062632866203785,0.01504684891551733,-0.016911059617996216
1773047912399191000,12.08319091796875,-0.0033289489801973104,0.026764748618006706,-0.012650005519390106
1773047912409171200,12.093171142578125,-0.008655266836285591,0.06191844865679741,-0.010519478470087051
1773047912419144700,12.103144775390625,-0.01078579481691122,0.09387636184692383,-0.008388951420783997
1773047912429124000,12.1131240234375,-0.01078579481691122,0.10865689069032669,-0.0062584239058196545
1773047912439098400,12.123098388671876,-0.011851058341562748,0.11185268312692642,0.008655266836285591
1773047912449077200,12.1330771484375,-0.019307903945446014,0.10972215235233307,0.023568958044052124
1773047912459051800,12.1430517578125,-0.027830012142658234,0.10559425503015518,0.031025802716612816
1773047912469030400,12.153030517578125,-0.027830012142658234,0.10865689069032669,0.02996053919196129
1773047912479005400,12.16300537109375,-0.016112113371491432,0.11611373722553253,0.022503694519400597
1773047912488983600,12.172983642578124,0.0019973693415522575,0.11078742146492004,0.013981585390865803
1773047912498959000,12.182958984375,0.024367906153202057,0.07683213800191879,0.013981585390865803
1773047912508937000,12.19293701171875,0.04780370742082596,0.01078579481691122,0.020373167470097542
1773047912518912500,12.20291259765625,0.07017423957586288,-0.05845634266734123,0.0342215932905674
1773047912528890400,12.212890380859376,0.08815056830644608,-0.10958899557590485,0.05020054802298546
1773047912538866200,12.2228662109375,0.09560741484165192,-0.1447426974773407,0.055526867508888245
1773047912548843800,12.23284375,0.08921582996845245,-0.1639174371957779,0.048070020973682404
1773047912558819800,12.24281982421875,0.0913463607430458,-0.17883113026618958,0.035286858677864075
1773047912568797200,12.252797119140626,0.10945583879947662,-0.21824589371681213,-0.003062632866203785
1773047912578773200,12.262773193359376,0.12650005519390106,-0.23315958678722382,-0.0648479238152504
1773047912588750600,12.27275048828125,0.13608743250370026,-0.20226693153381348,-0.11278478801250458
1773047912598727000,12.282726806640625,0.12863057851791382,-0.13728585839271545,-0.15113428235054016
1773047912608704000,12.2927041015625,0.10306425392627716,-0.057391077280044556,-0.16924376785755157
1773047912618680600,12.3026806640625,0.06804371625185013,0.02143843099474907,-0.17030902206897736
1773047912628657700,12.31265771484375,0.021172115579247475,0.08641951531171799,-0.15539532899856567
1773047912638634000,12.322634033203125,-0.022503694519400597,0.1363537460565567,-0.12237215787172318
1773047912648611000,12.332611083984375,-0.0576573945581913,0.18535587191581726,-0.074435293674469
1773047912658587600,12.342587646484375,-0.07896266877651215,0.24607589840888977,-0.010519478470087051
1773047912668564500,12.352564453125,-0.0949416235089302,0.3067959249019623,0.058722659945487976
1773047912678541000,12.362541015625,-0.10559425503015518,0.3653854429721832,0.1129179447889328
1773047912688518100,12.37251806640625,-0.11624689400196075,0.40266966819763184,0.1416800618171692
1773047912698398200,12.382398193359375,-0.12583427131175995,0.3994738757610321,0.16724638640880585
1773047912708258600,12.392258544921875,-0.11305110156536102,0.3760380744934082,0.17576849460601807
1773047912718448000,12.4024482421875,-0.0949416235089302,0.3568633198738098,0.17150744795799255
1773047912728429300,12.41242919921875,-0.10239847004413605,0.33236226439476013,0.16192007064819336
1773047912738401800,12.42240185546875,-0.1322258561849594,0.3195790946483612,0.14700637757778168
1773047912748382000,12.4323818359375,-0.16311849653720856,0.3110569715499878,0.11504847556352615
1773047912758355500,12.44235546875,-0.18122798204421997,0.2972085475921631,0.058722659945487976
