time,seconds_elapsed,z,y,x
1773047900596767000,0.28076708984375,0.498543381690979,0.52837073802948,0.10612688958644867
1773047900616714000,0.3007138671875,0.49641284346580505,0.6743118762969971,0.015579480677843094
1773047900626688800,0.310688720703125,0.5262402296066284,0.7115961313247681,-0.01850895583629608
1773047900636665900,0.320665771484375,0.5763076543807983,0.7147918939590454,-0.030226856470108032
1773047900646642000,0.330641845703125,0.632766604423523,0.7094655632972717,-0.005725792143493891
1773047900656618800,0.34061865234375,0.6668550372123718,0.6615287065505981,0.03368896245956421
1773047900666595000,0.350594970703125,0.657267689704895,0.5347623229026794,0.07097318768501282
1773047900676571600,0.360571533203125,0.6359623670578003,0.38469332456588745,0.08482161909341812
1773047900686451700,0.37045166015625,0.628505527973175,0.2557964324951172,0.08269108831882477
1773047900696331800,0.380331787109375,0.6157223582267761,0.13542163372039795,0.07097318768501282
1773047900706499000,0.3904990234375,0.6061350107192993,0.05020054802298546,0.05392897129058838
1773047900716552000,0.400552001953125,0.5645897388458252,-0.05952160432934761,0.024101590737700462
1773047900736446000,0.420446044921875,0.4836297035217285,-0.2191779911518097,-0.0739026665687561
1773047900746325800,0.43032568359375,0.5028044581413269,-0.19361166656017303,-0.12503531575202942
1773047900756205800,0.440205810546875,0.5134570598602295,-0.15632744133472443,-0.1772332340478897
1773047900766127900,0.4501279296875,0.48789075016975403,-0.09574057161808014,-0.2006690353155136
1773047900776086500,0.46008642578125,0.4431496858596802,-0.012650005519390106,-0.1921469271183014
1773047900786266600,0.4702666015625,0.39840859174728394,0.08748477697372437,-0.16445007920265198
1773047900796379000,0.48037890625,0.35153698921203613,0.17909744381904602,-0.1165132075548172
1773047900806266600,0.4902666015625,0.29933908581733704,0.24407853186130524,-0.05153212696313858
1773047900816261400,0.500261474609375,0.2727074921131134,0.29201540350914,0.02516685426235199
1773047900826220000,0.510219970703125,0.28549066185951233,0.32397329807281494,0.10719215124845505
1773047900836200400,0.520200439453125,0.2908169627189636,0.32397329807281494,0.1700427085161209
1773047900846173400,0.53017333984375,0.27483803033828735,0.30905961990356445,0.21478378772735596
1773047900856150800,0.54015087890625,0.25246748328208923,0.3495396375656128,0.25845959782600403
1773047900866126600,0.550126708984375,0.22264009714126587,0.4090612530708313,0.28921908140182495
1773047900876103200,0.560103271484375,0.18429060280323029,0.39001965522766113,0.287088543176651
1773047900886079700,0.570079833984375,0.1693769246339798,0.3623228073120117,0.2659164369106293
1773047900896056300,0.580056396484375,0.17150744795799255,0.39428070187568665,0.24674169719219208
1773047900906033000,0.590032958984375,0.15872427821159363,0.4186486005783081,0.22543641924858093
1773047900916009500,0.600009521484375,0.12263847887516022,0.4474107325077057,0.19134798645973206
1773047900925889300,0.60988916015625,0.08322372287511826,0.5123918056488037,0.14980269968509674
1773047900935707000,0.619706787109375,0.06831002980470657,0.45486757159233093,0.052863709628582
1773047900945706200,0.629706298828125,0.09174583107233047,0.26644906401634216,-0.08029424399137497
1773047900955664400,0.639664306640625,0.1045289933681488,0.03209106624126434,-0.22090904414653778
1773047900965659100,0.6496591796875,0.08961530029773712,-0.20852535963058472,-0.3688475489616394
1773047900975620900,0.659620849609375,0.07363634556531906,-0.372575968503952,-0.5073317885398865
1773047900985801000,0.669801025390625,0.07576687633991241,-0.4673844277858734,-0.613858163356781
1773047900995833300,0.679833251953125,0.0810931921005249,-0.571780264377594,-0.6767086982727051
1773047901005798100,0.689798095703125,0.12157320976257324,-0.6506097912788391,-0.6756434440612793
1773047901015784200,0.6997841796875,0.1970737725496292,-0.6792387366294861,-0.6127929091453552
1773047901025751300,0.709751220703125,0.2631201148033142,-0.6463487148284912,-0.48922231793403625
1773047901035735600,0.719735595703125,0.3185138404369354,-0.5142560005187988,-0.2942790687084198
1773047901045615600,0.72961572265625,0.37284228205680847,-0.21172115206718445,-0.0504668653011322
1773047901055431400,0.739431396484375,0.41651809215545654,0.06191844865679741,0.17323850095272064
1773047901065425000,0.7494248046875,0.4143875539302826,0.13542163372039795,0.34035173058509827
1773047901075388000,0.759387939453125,0.34940648078918457,0.14394375681877136,0.4596612751483917
1773047901085567700,0.769567626953125,0.2737727463245392,0.20466378331184387,0.5470128655433655
1773047901095600000,0.77960009765625,0.18535587191581726,0.3996070325374603,0.6183855533599854
1773047901105564000,0.78956396484375,0.08535424619913101,0.6775076985359192,0.6641919016838074
1773047901115550500,0.799550537109375,-0.0019973693415522575,0.8127961754798889,0.6578003168106079
1773047901125517000,0.80951708984375,-0.04993423447012901,0.8202530145645142,0.6119939684867859
1773047901135501800,0.819501708984375,-0.04780370742082596,0.8042740225791931,0.5438171029090881
1773047901145382000,0.8293818359375,0.0011984215816482902,0.7861645817756653,0.4607265293598175
1773047901155197400,0.839197509765625,0.08002793043851852,0.7318361401557922,0.36911386251449585
1773047901165377500,0.84937744140625,0.1555284857749939,0.665789783000946,0.2732401192188263
1773047901175410200,0.85941015625,0.21092219650745392,0.5976129174232483,0.1806953400373459
1773047901185376500,0.86937646484375,0.25672852993011475,0.5486107468605042,0.09867004305124283
1773047901195361300,0.879361328125,0.2908169627189636,0.5219792127609253,0.02516685426235199
1773047901205329700,0.88932958984375,0.320644348859787,0.5230444669723511,-0.030226856470108032
1773047901215313000,0.89931298828125,0.35153698921203613,0.519848644733429,-0.0739026665687561
1773047901225282800,0.90928271484375,0.377103328704834,0.5091960430145264,-0.10053425282239914
1773047901235264800,0.9192646484375,0.3866907060146332,0.4932170510292053,-0.10373004525899887
1773047901245236000,0.929236083984375,0.3813643753528595,0.4942823350429535,-0.07922898232936859
1773047901255217000,0.939216796875,0.36964648962020874,0.5187833905220032,-0.0504668653011322
1773047901265189000,0.949189208984375,0.34621068835258484,0.5336970686912537,-0.04620581120252609
1773047901275169000,0.9591689453125,0.3249054253101349,0.5305013060569763,-0.06218476593494415
1773047901285181200,0.96918115234375,0.3195790946483612,0.5262402296066284,-0.08562056720256805
1773047901295164400,0.979164306640625,0.32597067952156067,0.5294360518455505,-0.0930774137377739
1773047901305044500,0.98904443359375,0.3195790946483612,0.5550023317337036,-0.08242477476596832
1773047901314924300,0.99892431640625,0.301469624042511,0.5763076543807983,-0.07070687413215637
1773047901325048600,1.009048583984375,0.2908169627189636,0.5475454926490784,-0.08881635963916779
1773047901335031600,1.019031494140625,0.2950780391693115,0.519848644733429,-0.11438268423080444
1773047901345001700,1.029001708984375,0.3142527639865875,0.5475454926490784,-0.12290479242801666
1773047901354983400,1.0389833984375,0.33236226439476013,0.5645897388458252,-0.12077426165342331
1773047901364955000,1.048954833984375,0.35047173500061035,0.544349730014801,-0.11225215345621109
1773047901374935600,1.058935546875,0.3802991211414337,0.49641284346580505,-0.11225215345621109
1773047901384908000,1.068907958984375,0.4282359778881073,0.4378233551979065,-0.12290479242801666
1773047901394888000,1.078887939453125,0.4431496858596802,0.359127014875412,-0.10799109935760498
1773047901404767700,1.088767822265625,0.41651809215545654,0.2930806577205658,-0.07816372066736221
1773047901414627000,1.098626953125,0.38882121443748474,0.24194800853729248,-0.04194475710391998
1773047901424814000,1.10881396484375,0.37816858291625977,0.20572903752326965,0.0017310534603893757
1773047901444767500,1.128767578125,0.36432015895843506,0.1567269116640091,0.06564687192440033
1773047901454749000,1.1387490234375,0.3675159513950348,0.12583427131175995,0.05712476372718811
1773047901464720600,1.148720703125,0.3813643753528595,0.11518163233995438,0.023036325350403786
1773047901474701300,1.158701416015625,0.3994738757610321,0.09920267760753632,-0.024900536984205246
1773047901484673800,1.168673828125,0.40160438418388367,0.0715058222413063,-0.08135951310396194
1773047901494653400,1.1786533203125,0.3952127993106842,0.0576573945581913,-0.1399490088224411
1773047901504627000,1.188626953125,0.3920170068740845,0.06191844865679741,-0.19427745044231415
1773047901514606000,1.198606201171875,0.38456016778945923,0.07363634556531906,-0.23156169056892395
1773047901524580000,1.208580078125,0.366450697183609,0.10133320093154907,-0.2475406378507614
1773047901534558700,1.218558837890625,0.3430148959159851,0.12583427131175995,-0.25073641538619995
1773047901544438800,1.228438720703125,0.3302317261695862,0.1471395343542099,-0.2528669536113739
1773047901554298000,1.238298095703125,0.3302317261695862,0.1759016513824463,-0.2486059069633484
1773047901564486100,1.248486083984375,0.32810118794441223,0.23981747031211853,-0.24967116117477417
1773047901574468400,1.25846826171875,0.32810118794441223,0.2504701018333435,-0.22943115234375
1773047901584439300,1.268439208984375,0.27909907698631287,0.08748477697372437,-0.2336922138929367
1773047901594420500,1.27842041015625,0.21944430470466614,-0.09893636405467987,-0.24434484541416168
1773047901604300300,1.28830029296875,0.22690115869045258,-0.02330264262855053,-0.16445007920265198
1773047901614159400,1.298159423828125,0.26418536901474,0.16951008141040802,-0.0834900364279747
1773047901624345600,1.308345703125,0.30466538667678833,0.2930806577205658,-0.05153212696313858
1773047901634329300,1.318329345703125,0.36858120560646057,0.3154512047767639,-0.06644582003355026
1773047901644209400,1.32820947265625,0.4133222997188568,0.2685796022415161,-0.11118689179420471
1773047901654067700,1.338067626953125,0.4239749312400818,0.22916483879089355,-0.1537974327802658
1773047901664252000,1.348251953125,0.4324970245361328,0.23449115455150604,-0.1868206113576889
1773047901674237200,1.3582373046875,0.4431496858596802,0.2824280261993408,-0.19960378110408783
1773047901684213800,1.3682138671875,0.4388886094093323,0.348474383354187,-0.18042902648448944
1773047901704070400,1.3880703125,0.40266966819763184,0.37936702370643616,-0.08775109052658081
1773047901713928400,1.397928466796875,0.39308229088783264,0.3580617308616638,-0.04301001876592636
1773047901723917000,1.4079169921875,0.38349491357803345,0.3388870060443878,-0.00892158318310976
1773047901733884000,1.4178837890625,0.37284228205680847,0.3303648829460144,0.004926844500005245
1773047901743870200,1.4278701171875,0.3611243665218353,0.32823434472084045,-0.001464737462811172
1773047901753838800,1.4378388671875,0.34514543414115906,0.3292996287345886,-0.0025300011038780212
1773047901764017400,1.448017333984375,0.32703593373298645,0.3527354300022125,0.014514217153191566
1773047901774007300,1.45800732421875,0.30892646312713623,0.3910849094390869,0.043276336044073105
1773047901783970600,1.467970458984375,0.2961432933807373,0.3964112401008606,0.06351634114980698
1773047901793958000,1.4779580078125,0.29401275515556335,0.37936702370643616,0.06884266436100006
1773047901803838000,1.487837890625,0.30360013246536255,0.3772364854812622,0.06032055243849754
1773047901813695700,1.49769580078125,0.3057306706905365,0.39321544766426086,0.047537390142679214
1773047901823682800,1.507682861328125,0.30892646312713623,0.3964112401008606,0.02197106182575226
1773047901833651000,1.51765087890625,0.3163833022117615,0.38362807035446167,-0.00892158318310976
1773047901843830000,1.527830078125,0.32277488708496094,0.3719101548194885,-0.03448791056871414
1773047901853819400,1.5378193359375,0.3249054253101349,0.3729754388332367,-0.05579318478703499
1773047901863783200,1.547783203125,0.32597067952156067,0.3974764943122864,-0.07177213579416275
1773047901873770000,1.55777001953125,0.3249054253101349,0.42930126190185547,-0.07177213579416275
1773047901883736600,1.567736572265625,0.31744855642318726,0.46871599555015564,-0.05472791939973831
1773047901893721300,1.577721435546875,0.3067959249019623,0.5038697123527527,-0.02277000993490219
1773047901903601400,1.587601318359375,0.3057306706905365,0.5038697123527527,0.004926844500005245
1773047901913459500,1.59745947265625,0.3163833022117615,0.48256441950798035,0.019840534776449203
1773047901923448800,1.60744873046875,0.3302317261695862,0.4655202031135559,0.027297381311655045
1773047901933415200,1.617415283203125,0.3376885652542114,0.4559328258037567,0.034754227846860886
1773047901943401700,1.627401611328125,0.3430148959159851,0.4282359778881073,0.031558435410261154
1773047901953370400,1.637370361328125,0.3536675274372101,0.38895440101623535,0.02197106182575226
1773047901963549000,1.647548828125,0.3675159513950348,0.3548659384250641,0.01664474420249462
1773047901973538800,1.657538818359375,0.37816858291625977,0.33249542117118835,0.018775271251797676
1773047901983502300,1.66750244140625,0.3866907060146332,0.30905961990356445,0.023036325350403786
1773047901993489400,1.677489501953125,0.3866907060146332,0.28668907284736633,0.0294279083609581
1773047902003369200,1.687369140625,0.3856254518032074,0.27710169553756714,0.035819489508867264
1773047902013227000,1.69722705078125,0.38456016778945923,0.2728406488895416,0.031558435410261154
1773047902023214300,1.70721435546875,0.37923386693000793,0.2685796022415161,0.011318426579236984
1773047902033182200,1.71718212890625,0.37816858291625977,0.27710169553756714,-0.01957421936094761
1773047902043167500,1.72716748046875,0.3802991211414337,0.28988486528396606,-0.05579318478703499
1773047902053137200,1.73713720703125,0.3866907060146332,0.2973417043685913,-0.07922898232936859
1773047902063314700,1.747314697265625,0.3920170068740845,0.29521119594573975,-0.08455529808998108
1773047902073305300,1.757305419921875,0.39734333753585815,0.2824280261993408,-0.08242477476596832
1773047902083268000,1.76726806640625,0.40586546063423157,0.26751431822776794,-0.08988162130117416
1773047902093256000,1.777255859375,0.40799596905708313,0.25366589426994324,-0.10799109935760498
1773047902103135700,1.7871357421875,0.40160438418388367,0.24727432429790497,-0.12823110818862915
1773047902112993500,1.79699365234375,0.3952127993106842,0.24833959341049194,-0.13675321638584137
1773047902122980400,1.80698046875,0.3909517526626587,0.2270343154668808,-0.12716585397720337
1773047902132948700,1.81694873046875,0.38882121443748474,0.180162712931633,-0.09627319872379303
1773047902142933200,1.826933349609375,0.3909517526626587,0.13968269526958466,-0.05472791939973831
1773047902152903400,1.8369033203125,0.3962780833244324,0.13542163372039795,-0.033422645181417465
1773047902163080700,1.847080810546875,0.3952127993106842,0.15353111922740936,-0.03129211813211441
1773047902173071600,1.857071533203125,0.3856254518032074,0.16951008141040802,-0.04194475710391998
1773047902183033900,1.867033935546875,0.3802991211414337,0.18229323625564575,-0.06431528925895691
1773047902193022000,1.87702197265625,0.3802991211414337,0.20892482995986938,-0.1069258376955986
1773047902202902000,1.886902099609375,0.3760380744934082,0.246209055185318,-0.16445007920265198
1773047902212759600,1.896759521484375,0.3675159513950348,0.2877543270587921,-0.21132168173789978
1773047902222940200,1.906940185546875,0.34940648078918457,0.3261038362979889,-0.23156169056892395
1773047902232928300,1.91692822265625,0.3302317261695862,0.3548659384250641,-0.2251701056957245
1773047902242808300,1.926808349609375,0.3163833022117615,0.3633880615234375,-0.19853851199150085
1773047902252665900,1.936665771484375,0.3153180480003357,0.35699647665023804,-0.15592797100543976
1773047902262846500,1.946846435546875,0.32170963287353516,0.34314805269241333,-0.10373004525899887
1773047902272834800,1.956834716796875,0.3334275186061859,0.3175817131996155,-0.05153212696313858
1773047902282799900,1.9667998046875,0.34940648078918457,0.27710169553756714,-0.004660528618842363
1773047902292785700,1.97678564453125,0.36964648962020874,0.23342590034008026,0.02197106182575226
1773047902302753000,1.9867529296875,0.3856254518032074,0.21105535328388214,0.02197106182575226
1773047902312737000,1.996737060546875,0.40586546063423157,0.2323606312274933,0.003861580742523074
1773047902322706200,2.0067060546875,0.42184439301490784,0.3207775056362152,-0.01850895583629608
1773047902332689000,2.01668896484375,0.4474107325077057,0.3687143921852112,-0.07070687413215637
1773047902342659600,2.02665966796875,0.4474107325077057,0.3719101548194885,-0.11225215345621109
1773047902352640800,2.036640869140625,0.42077913880348206,0.40693071484565735,-0.12716585397720337
1773047902362612700,2.04661279296875,0.39840859174728394,0.45912861824035645,-0.1069258376955986
1773047902372593200,2.05659326171875,0.3920170068740845,0.47191178798675537,-0.06964161247015
1773047902382566000,2.06656591796875,0.3802991211414337,0.44847598671913147,-0.045140545815229416
1773047902392545500,2.076545654296875,0.3675159513950348,0.4388886094093323,-0.02277000993490219
1773047902402519300,2.086519287109375,0.3621896505355835,0.4506065249443054,-0.0035952648613601923
1773047902412498200,2.096498291015625,0.37390753626823425,0.4601939022541046,0.013448953628540039
1773047902422472400,2.106472412109375,0.3909517526626587,0.4708465337753296,0.03688475489616394
1773047902432450800,2.116450927734375,0.3866907060146332,0.4644549489021301,0.06351634114980698
1773047902442425600,2.126425537109375,0.37284228205680847,0.42930126190185547,0.09014793485403061
1773047902452403700,2.13640380859375,0.3707117438316345,0.38469332456588745,0.11038794368505478
1773047902462378800,2.146378662109375,0.38349491357803345,0.3356912136077881,0.11145320534706116
1773047902472356600,2.156356689453125,0.3941475450992584,0.3069290816783905,0.10399636626243591
1773047902482332200,2.166332275390625,0.40160438418388367,0.2685796022415161,0.08482161909341812
1773047902492309800,2.176309814453125,0.4282359778881073,0.19720692932605743,0.03262370079755783
1773047902502285300,2.186285400390625,0.442084401845932,0.14927007257938385,-0.040879491716623306
1773047902512262700,2.1962626953125,0.44528019428253174,0.15353111922740936,-0.11544794589281082
1773047902522238500,2.206238525390625,0.43569281697273254,0.19720692932605743,-0.17829850316047668
1773047902532215800,2.2162158203125,0.4197138845920563,0.25686168670654297,-0.22836589813232422
1773047902542191600,2.226191650390625,0.40693071484565735,0.31971225142478943,-0.2708432674407959
1773047902552168700,2.236168701171875,0.39840859174728394,0.3388870060443878,-0.2900180220603943
1773047902562144800,2.246144775390625,0.3813643753528595,0.32823434472084045,-0.27830013632774353
1773047902572121900,2.256121826171875,0.36964648962020874,0.2973417043685913,-0.2667153775691986
1773047902582098200,2.26609814453125,0.3653854429721832,0.2941459119319916,-0.2581932842731476
1773047902592075000,2.276074951171875,0.35579806566238403,0.32290804386138916,-0.2390185296535492
1773047902602051300,2.28605126953125,0.3472759425640106,0.35699647665023804,-0.21771325170993805
1773047902612028200,2.296028076171875,0.3440801501274109,0.3878891170024872,-0.18895113468170166
1773047902622004500,2.30600439453125,0.3472759425640106,0.4006722867488861,-0.14634059369564056
1773047902631981300,2.315981201171875,0.35473278164863586,0.3644533157348633,-0.09840372949838638
1773047902641957600,2.32595751953125,0.3717769980430603,0.3079943358898163,-0.06857634335756302
1773047902651934500,2.3359345703125,0.39734333753585815,0.2696448564529419,-0.06218476593494415
1773047902661911000,2.3459111328125,0.4090612530708313,0.2728406488895416,-0.0739026665687561
1773047902671887600,2.3558876953125,0.41225701570510864,0.2451438009738922,-0.11544794589281082
1773047902681864200,2.3658642578125,0.42610546946525574,0.22383852303028107,-0.163384810090065
1773047902691841000,2.375841064453125,0.4410191476345062,0.22809958457946777,-0.1825595498085022
1773047902701817300,2.3858173828125,0.4463454782962799,0.26112276315689087,-0.17190691828727722
1773047902711794200,2.395794189453125,0.4474107325077057,0.26644906401634216,-0.16125428676605225
1773047902721770800,2.405770751953125,0.4516717791557312,0.24940484762191772,-0.14740586280822754
1773047902731747300,2.415747314453125,0.4506065249443054,0.2739059031009674,-0.1261005848646164
1773047902741724000,2.425723876953125,0.43569281697273254,0.3271690905094147,-0.10479531437158585
1773047902751700500,2.435700439453125,0.422909677028656,0.34634384512901306,-0.1069258376955986
1773047902761677000,2.445677001953125,0.42504018545150757,0.33782172203063965,-0.12290479242801666
1773047902771654000,2.45565380859375,0.42504018545150757,0.3495396375656128,-0.13142690062522888
1773047902781630500,2.46563037109375,0.4197138845920563,0.39321544766426086,-0.1261005848646164
1773047902791607000,2.47560693359375,0.40586546063423157,0.44954127073287964,-0.10799109935760498
1773047902801583600,2.48558349609375,0.38775596022605896,0.50706547498703,-0.07283740490674973
1773047902811560200,2.495560302734375,0.37816858291625977,0.5560676455497742,-0.021704746410250664
1773047902821536800,2.505536865234375,0.377103328704834,0.5848297476768494,0.04114580899477005
1773047902831513600,2.515513671875,0.37923386693000793,0.5677855014801025,0.09653951972723007
1773047902841490200,2.525490234375,0.39308229088783264,0.5091960430145264,0.13701952993869781
1773047902851466800,2.535466796875,0.41651809215545654,0.44847598671913147,0.1561942845582962
1773047902861365800,2.54536572265625,0.4378233551979065,0.4006722867488861,0.1561942845582962
1773047902871334700,2.555334716796875,0.45486757159233093,0.3740406930446625,0.13382373750209808
1773047902881396500,2.565396484375,0.46765074133872986,0.3740406930446625,0.10506162792444229
1773047902891374800,2.575374755859375,0.4655202031135559,0.38469332456588745,0.09014793485403061
1773047902901350000,2.585349853515625,0.4697812795639038,0.3633880615234375,0.0762995108962059
1773047902911327700,2.59532763671875,0.48256441950798035,0.3399522602558136,0.06458161026239395
1773047902921303000,2.605302978515625,0.4889560043811798,0.30053749680519104,0.04966791719198227
1773047902931281000,2.615281005859375,0.498543381690979,0.24301326274871826,0.027297381311655045
1773047902941256400,2.62525634765625,0.5123918056488037,0.18655429780483246,-0.0025300011038780212
1773047902951233800,2.63523388671875,0.5305013060569763,0.12583427131175995,-0.04407528415322304
1773047902961054500,2.645054443359375,0.5454149842262268,0.06191844865679741,-0.09840372949838638
1773047902971016200,2.65501611328125,0.5486107468605042,0.020373167470097542,-0.14634059369564056
1773047902981162800,2.665162841796875,0.52837073802948,0.01717737689614296,-0.17936377227306366
1773047902991143400,2.675143310546875,0.5049349665641785,0.042743705213069916,-0.19747324287891388
1773047903001116000,2.685115966796875,0.47191178798675537,0.09813741594552994,-0.1964079886674881
1773047903011095800,2.695095703125,0.4367581009864807,0.16737954318523407,-0.1772332340478897
1773047903021069300,2.7050693359375,0.41225701570510864,0.22064273059368134,-0.1442100703716278
1773047903031048400,2.71504833984375,0.3952127993106842,0.26644906401634216,-0.09733846783638
1773047903041022500,2.7250224609375,0.3866907060146332,0.2834932804107666,-0.03981423005461693
1773047903051001000,2.7350009765625,0.38456016778945923,0.24407853186130524,0.0017310534603893757
1773047903060975900,2.744975830078125,0.39308229088783264,0.19294588267803192,0.019840534776449203
1773047903070954000,2.7549541015625,0.4090612530708313,0.17909744381904602,0.023036325350403786
1773047903080890400,2.764890380859375,0.41651809215545654,0.20146799087524414,0.01664474420249462
1773047903090864400,2.774864501953125,0.42077913880348206,0.246209055185318,0.003861580742523074
1773047903100882400,2.78488232421875,0.4271707236766815,0.302668035030365,-0.007856319658458233
1773047903110860800,2.79486083984375,0.4324970245361328,0.3548659384250641,-0.01957421936094761
1773047903120835800,2.8048359375,0.4388886094093323,0.3868238627910614,-0.030226856470108032
1773047903130813700,2.814813720703125,0.4506065249443054,0.3868238627910614,-0.03768370300531387
1773047903140789000,2.8247890625,0.46338969469070435,0.3538006842136383,-0.04727107286453247
1773047903150766600,2.8347666015625,0.48149916529655457,0.2973417043685913,-0.05259739235043526
1773047903160646700,2.844646728515625,0.4942823350429535,0.2451438009738922,-0.05792371183633804
1773047903170526700,2.854526611328125,0.5006738901138306,0.21212062239646912,-0.05792371183633804
1773047903180656600,2.86465673828125,0.5028044581413269,0.19188061356544495,-0.053662657737731934
1773047903190632200,2.874632080078125,0.5038697123527527,0.18548902869224548,-0.045140545815229416
1773047903200610000,2.884610107421875,0.49641284346580505,0.18655429780483246,-0.025965800508856773
1773047903210585600,2.894585693359375,0.4697812795639038,0.20466378331184387,-0.007856319658458233
1773047903220602000,2.90460205078125,0.433562308549881,0.24727432429790497,0.014514217153191566
1773047903230582000,2.91458203125,0.3962780833244324,0.29521119594573975,0.050733182579278946
1773047903240516600,2.9245166015625,0.3653854429721832,0.3079943358898163,0.07843003422021866
1773047903250492000,2.934491943359375,0.3579285740852356,0.2877543270587921,0.09440898895263672
1773047903260371700,2.944371826171875,0.366450697183609,0.23875221610069275,0.08908267319202423
1773047903270251800,2.954251708984375,0.37390753626823425,0.17803218960762024,0.0624510794878006
1773047903280431900,2.964431884765625,0.37816858291625977,0.12263847887516022,0.02090579830110073
1773047903290439400,2.974439453125,0.37923386693000793,0.11518163233995438,-0.007856319658458233
1773047903300415200,2.984415283203125,0.37923386693000793,0.13861742615699768,-0.01318263728171587
1773047903310392600,2.994392578125,0.37497279047966003,0.17696692049503326,0.011318426579236984
1773047903320329700,3.004329833984375,0.3653854429721832,0.1993374526500702,0.05819002538919449
1773047903330303000,3.014302978515625,0.3579285740852356,0.20040272176265717,0.11145320534706116
1773047903340244200,3.024244140625,0.35473278164863586,0.17909744381904602,0.14447638392448425
1773047903350214100,3.034214111328125,0.36858120560646057,0.13542163372039795,0.1327584832906723
1773047903360094200,3.04409423828125,0.3909517526626587,0.11092057824134827,0.09440898895263672
1773047903369974300,3.053974365234375,0.4154528081417084,0.09174583107233047,0.04114580899477005
1773047903380073000,3.064072998046875,0.442084401845932,0.05659212917089462,-0.02277000993490219
1773047903390040600,3.07404052734375,0.46338969469070435,0.022503694519400597,-0.08135951310396194
1773047903399987500,3.083987548828125,0.46765074133872986,0.01717737689614296,-0.11118689179420471
1773047903409953000,3.093953125,0.4569981098175049,0.0576573945581913,-0.10266478359699249
1773047903419901700,3.103901611328125,0.4324970245361328,0.12476900219917297,-0.06751108169555664
1773047903429865700,3.11386572265625,0.4005391299724579,0.19614167511463165,-0.01850895583629608
1773047903439816400,3.12381640625,0.37497279047966003,0.2515353858470917,0.034754227846860886
1773047903449778700,3.13377880859375,0.3536675274372101,0.29521119594573975,0.08162582665681839
1773047903459847000,3.143846923828125,0.32703593373298645,0.3207775056362152,0.10293109714984894
1773047903469820200,3.153820068359375,0.3057306706905365,0.36125752329826355,0.11145320534706116
1773047903479645200,3.163645263671875,0.2908169627189636,0.4090612530708313,0.11997532099485397
1773047903489603600,3.173603515625,0.28975170850753784,0.4175833463668823,0.11784479022026062
1773047903499521000,3.18352099609375,0.2972085475921631,0.3996070325374603,0.11571425944566727
1773047903509475300,3.193475341796875,0.3057306706905365,0.3623228073120117,0.11358373612165451
1773047903519281400,3.203281494140625,0.3110569715499878,0.33249542117118835,0.118910051882267
1773047903529220900,3.213220947265625,0.30466538667678833,0.3165164589881897,0.1327584832906723
1773047903539349500,3.223349609375,0.2918822467327118,0.31438592076301575,0.14767217636108398
1773047903549308200,3.23330810546875,0.27590328454971313,0.31332066655158997,0.15939007699489594
1773047903559379700,3.243379638671875,0.26631590723991394,0.30373328924179077,0.15406376123428345
1773047903569350000,3.253349853515625,0.2588590681552887,0.30053749680519104,0.13488900661468506
1773047903579230000,3.26322998046875,0.25246748328208923,0.28988486528396606,0.10612688958644867
1773047903589092000,3.273092041015625,0.26951169967651367,0.24833959341049194,0.059255290776491165
1773047903599054300,3.283054443359375,0.29933908581733704,0.18761955201625824,0.005992108024656773
1773047903609007600,3.293007568359375,0.3249054253101349,0.12263847887516022,-0.049401599913835526
1773047903618968800,3.30296875,0.3430148959159851,0.08428898453712463,-0.09201214462518692
1773047903628922600,3.312922607421875,0.35047173500061035,0.07683213800191879,-0.10799109935760498
1773047903639102700,3.323102783203125,0.35153698921203613,0.08748477697372437,-0.10053425282239914
1773047903649282800,3.33328271484375,0.34514543414115906,0.11518163233995438,-0.07177213579416275
1773047903659462700,3.343462646484375,0.3238401412963867,0.15033532679080963,-0.03129211813211441
1773047903669568300,3.353568359375,0.30253487825393677,0.19081534445285797,0.010253162123262882
1773047903679527400,3.36352734375,0.28016433119773865,0.23768694698810577,0.03795001655817032
1773047903689518000,3.37351806640625,0.26631590723991394,0.28136277198791504,0.050733182579278946
1773047903699480800,3.383480712890625,0.2599243223667145,0.3154512047767639,0.047537390142679214
1773047903709468700,3.39346875,0.2577938139438629,0.3314301371574402,0.04008054360747337
1773047903719434200,3.403434326171875,0.26098960638046265,0.3314301371574402,0.04221107065677643
1773047903729419800,3.413419677734375,0.2492716908454895,0.3250385820865631,0.0624510794878006
1773047903739387600,3.4233876953125,0.22264009714126587,0.2984069883823395,0.08695214241743088
1773047903749371400,3.433371337890625,0.2162485122680664,0.2451438009738922,0.09760478138923645
1773047903759340800,3.4433408203125,0.2162485122680664,0.18761955201625824,0.09440898895263672
1773047903769323300,3.4533232421875,0.21731378138065338,0.1609879732131958,0.0858868807554245
1773047903779294200,3.463294189453125,0.21944430470466614,0.13116058707237244,0.06351634114980698
1773047903789275400,3.473275390625,0.2215748429298401,0.10239847004413605,0.03262370079755783
1773047903799247600,3.48324755859375,0.22903168201446533,0.09600688517093658,-0.007856319658458233
1773047903809228000,3.49322802734375,0.2354232668876648,0.09920267760753632,-0.061119500547647476
1773047903819201000,3.503200927734375,0.23861905932426453,0.12476900219917297,-0.10905636847019196
1773047903829180700,3.5131806640625,0.23329274356365204,0.17696692049503326,-0.1452753245830536
1773047903839154400,3.523154541015625,0.22370536625385284,0.24833959341049194,-0.15699322521686554
1773047903849133300,3.53313330078125,0.20985694229602814,0.3079943358898163,-0.14314480125904083
1773047903859107600,3.543107666015625,0.18748639523983002,0.3346259295940399,-0.11864373832941055
1773047903869086200,3.553086181640625,0.16618113219738007,0.35167014598846436,-0.08562056720256805
1773047903879061000,3.56306103515625,0.14913691580295563,0.3644533157348633,-0.0504668653011322
1773047903889039000,3.5730390625,0.13741901516914368,0.3740406930446625,-0.021704746410250664
1773047903898919200,3.582919189453125,0.12903006374835968,0.367649108171463,-0.0003994738799519837
1773047903908779000,3.592779052734375,0.11731215566396713,0.34740909934043884,0.015579480677843094
1773047903918967600,3.602967529296875,0.09920267760753632,0.34634384512901306,0.013448953628540039
1773047903928949200,3.61294921875,0.07789740711450577,0.3761712312698364,-0.01957421936094761
1773047903938920700,3.622920654296875,0.07257108390331268,0.3825628161430359,-0.024900536984205246
1773047903948901600,3.632901611328125,0.06831002980470657,0.359127014875412,-0.028096329420804977
1773047903958874000,3.6428740234375,0.058722659945487976,0.3580617308616638,-0.04407528415322304
1773047903968854300,3.652854248046875,0.058722659945487976,0.3857586085796356,-0.06644582003355026
1773047903978827500,3.66282763671875,0.051265813410282135,0.3878891170024872,-0.08775109052658081
1773047903988807000,3.672806884765625,0.018242640420794487,0.4101265072822571,-0.10586057603359222
1773047903998781000,3.682781005859375,-0.016911059617996216,0.4612591564655304,-0.11438268423080444
1773047904008759600,3.692759521484375,-0.04993423447012901,0.5187833905220032,-0.12397005409002304
1773047904018734000,3.702734130859375,-0.07976161688566208,0.590156078338623,-0.13249216973781586
1773047904028712700,3.712712646484375,-0.1213068962097168,0.6348971128463745,-0.14847111701965332
1773047904038687500,3.7226875,-0.17670060694217682,0.6082655191421509,-0.16977639496326447
1773047904048665600,3.73266552734375,-0.18841850757598877,0.5826992392539978,-0.14314480125904083
1773047904058679800,3.7426796875,-0.18841850757598877,0.5603286623954773,-0.09840372949838638
1773047904068661500,3.75266162109375,-0.15965639054775238,0.498543381690979,-0.0600542388856411
1773047904078594300,3.76259423828125,-0.11704584211111069,0.43036651611328125,-0.0270310640335083
1773047904088569600,3.772569580078125,-0.102132149040699,0.3729754388332367,-0.020639482885599136
1773047904098546200,3.782546142578125,-0.06591318547725677,0.31332066655158997,-0.03874896466732025
1773047904108523000,3.79252294921875,-0.005193160381168127,0.24940484762191772,-0.06431528925895691
1773047904118499600,3.80249951171875,0.06298371404409409,0.1748363971710205,-0.08881635963916779
1773047904128476400,3.812476318359375,0.1459411233663559,0.11837742477655411,-0.11225215345621109
1773047904138453000,3.822452880859375,0.2066611498594284,0.0810931921005249,-0.12929637730121613
1773047904148429600,3.8324296875,0.22370536625385284,0.03848264738917351,-0.13142690062522888
1773047904158406100,3.84240625,0.2258358895778656,0.007590003311634064,-0.11544794589281082
1773047904168383000,3.852383056640625,0.22690115869045258,-0.007323687430471182,-0.08668582886457443
1773047904178359600,3.862359619140625,0.2311622053384781,-0.024367906153202057,-0.04833633825182915
1773047904188336000,3.872336181640625,0.2300969511270523,-0.03928159549832344,-0.0035952648613601923
1773047904198313000,3.88231298828125,0.2215748429298401,-0.04780370742082596,0.03795001655817032
1773047904208289500,3.89228955078125,0.20879167318344116,-0.06804371625185013,0.07203845679759979
1773047904218266000,3.90226611328125,0.20985694229602814,-0.1255679577589035,0.09014793485403061
1773047904228243000,3.912242919921875,0.2258358895778656,-0.1712411344051361,0.0858868807554245
1773047904238219500,3.922219482421875,0.2300969511270523,-0.19254639744758606,0.04966791719198227
1773047904248196000,3.932196044921875,0.22903168201446533,-0.2138516753911972,0.002796316985040903
1773047904258173000,3.9421728515625,0.22477063536643982,-0.2330264151096344,-0.04194475710391998
1773047904268149500,3.9521494140625,0.21092219650745392,-0.2095906287431717,-0.08242477476596832
1773047904278126300,3.962126220703125,0.17789903283119202,-0.15632744133472443,-0.10586057603359222
1773047904288103000,3.97210302734375,0.14913691580295563,-0.09041424840688705,-0.11970899999141693
1773047904297983000,3.98198291015625,0.14274533092975616,-0.03395527973771095,-0.12290479242801666
1773047904307843000,3.991843017578125,0.14487585425376892,-0.016911059617996216,-0.11544794589281082
1773047904318033000,4.002032958984375,0.13528847694396973,-0.020106852054595947,-0.10799109935760498
1773047904328013800,4.012013916015625,0.11198583990335464,0.0033289489801973104,-0.09627319872379303
1773047904337986000,4.021986083984375,0.09174583107233047,0.03315633162856102,-0.08029424399137497
1773047904347966200,4.03196630859375,0.0810931921005249,0.04487423226237297,-0.06431528925895691
1773047904357939500,4.041939453125,0.06511423736810684,0.03315633162856102,-0.0366184376180172
1773047904367918800,4.0519189453125,0.047004759311676025,0.012916321866214275,-0.006791055668145418
1773047904377892900,4.061892822265625,0.03315633162856102,-0.0062584239058196545,0.02090579830110073
1773047904387871700,4.071871826171875,0.009720530360937119,-0.025433169677853584,0.04434159770607948
1773047904397846300,4.08184619140625,-0.009454214945435524,-0.04247738793492317,0.056059498339891434
1773047904407824600,4.09182470703125,-0.016911059617996216,-0.053130023181438446,0.06032055243849754
1773047904417799400,4.10179931640625,-0.016911059617996216,-0.06804371625185013,0.04966791719198227
1773047904427777500,4.111777587890625,-0.021172115579247475,-0.0691089779138565,0.024101590737700462
1773047904437752800,4.1217529296875,-0.10000162571668625,-0.07123950868844986,0.0006657897611148655
1773047904447730700,4.131730712890625,-0.11811110377311707,-0.06058686971664429,-0.011052110232412815
1773047904457706200,4.141706298828125,-0.1255679577589035,-0.06058686971664429,-0.020639482885599136
1773047904467683800,4.151683837890625,-0.08295740932226181,-0.04247738793492317,-0.012117373757064342
1773047904477564000,4.16156396484375,-0.0648479238152504,-0.03395527973771095,-0.00892158318310976
1773047904487423700,4.171423828125,-0.0456731803715229,-0.06591318547725677,-0.014247900806367397
1773047904497418800,4.181418701171875,0.01504684891551733,-0.11065425723791122,-0.03555317223072052
1773047904507380700,4.191380615234375,0.05659212917089462,-0.14567480981349945,-0.06644582003355026
1773047904517566000,4.20156591796875,0.0576573945581913,-0.16804534196853638,-0.09946899116039276
1773047904527550500,4.211550537109375,0.03848264738917351,-0.16484954953193665,-0.12077426165342331
1773047904537519400,4.221519287109375,0.018242640420794487,-0.13302479684352875,-0.12183953076601028
1773047904547502300,4.23150244140625,-0.0062584239058196545,-0.07123950868844986,-0.10373004525899887
1773047904557472800,4.24147265625,-0.03075948730111122,0.00013315795513335615,-0.07496792823076248
1773047904567454500,4.251454345703125,-0.05206476151943207,0.059787921607494354,-0.04301001876592636
1773047904577334500,4.26133447265625,-0.06591318547725677,0.09600688517093658,-0.012117373757064342
1773047904587193600,4.271193603515625,-0.07763108611106873,0.11092057824134827,0.014514217153191566
1773047904597379300,4.28137939453125,-0.0786963477730751,0.10665952414274216,0.03795001655817032
1773047904607363600,4.291363525390625,-0.07017423957586288,0.08961530029773712,0.04966791719198227
1773047904617332700,4.301332763671875,-0.0648479238152504,0.07576687633991241,0.04860265180468559
1773047904627315500,4.3113154296875,-0.06697845458984375,0.07576687633991241,0.04860265180468559
1773047904637286100,4.3212861328125,-0.08189214020967484,0.08961530029773712,0.052863709628582
1773047904647267600,4.331267578125,-0.09467530250549316,0.10559425503015518,0.0624510794878006
1773047904657239600,4.341239501953125,-0.0978710949420929,0.10985531657934189,0.07097318768501282
1773047904667220000,4.351219970703125,-0.09361004084348679,0.09387636184692383,0.08056056499481201
1773047904677193000,4.36119287109375,-0.09254477918148041,0.07257108390331268,0.09121319651603699
1773047904687172600,4.371172607421875,-0.09254477918148041,0.04593949392437935,0.0954742506146431
1773047904697052700,4.381052734375,-0.10000162571668625,-0.008388951420783997,0.09014793485403061
1773047904706912300,4.390912353515625,-0.12024163454771042,-0.0786963477730751,0.08056056499481201
1773047904717099500,4.401099609375,-0.11278478801250458,-0.07550056278705597,0.07949529588222504
1773047904727082500,4.41108251953125,-0.09254477918148041,-0.04673844203352928,0.06458161026239395
1773047904737053000,4.421052978515625,-0.08082687854766846,-0.029694223776459694,0.034754227846860886
1773047904747034600,4.43103466796875,-0.074435293674469,-0.0062584239058196545,0.015579480677843094
1773047904757006300,4.44100634765625,-0.08934898674488068,0.04061317816376686,0.009187898598611355
1773047904766987000,4.450987060546875,-0.12450268864631653,0.1045289933681488,0.015579480677843094
1773047904776866800,4.46086669921875,-0.140481635928154,0.13009531795978546,0.04114580899477005
1773047904786726100,4.47072607421875,-0.12769848108291626,0.09707214683294296,0.06884266436100006
1773047904796718800,4.48071875,-0.12237215787172318,0.03741738572716713,0.08056056499481201
1773047904806682600,4.4906826171875,-0.1117195263504982,-0.007323687430471182,0.08801741153001785
1773047904816866000,4.500865966796875,-0.10000162571668625,-0.037151068449020386,0.07843003422021866
1773047904826852000,4.51085205078125,-0.0882837250828743,-0.06804371625185013,0.059255290776491165
1773047904836819700,4.52081982421875,-0.08402267098426819,-0.09467530250549316,0.047537390142679214
1773047904846803700,4.5308037109375,-0.09147951751947403,-0.09574057161808014,0.050733182579278946
1773047904856772900,4.54077294921875,-0.11278478801250458,-0.08295740932226181,0.06351634114980698
1773047904866755600,4.550755615234375,-0.12769848108291626,-0.08189214020967484,0.07416898012161255
1773047904876726500,4.5607265625,-0.12663321197032928,-0.0978710949420929,0.07310371845960617
1773047904886708000,4.5707080078125,-0.11491531878709793,-0.12663321197032928,0.05712476372718811
1773047904896587800,4.580587890625,-0.10639320313930511,-0.1723063886165619,0.02197106182575226
1773047904906447000,4.590447021484375,-0.09574057161808014,-0.2191779911518097,-0.03555317223072052
1773047904916633000,4.600633056640625,-0.08615319430828094,-0.2553969621658325,-0.10479531437158585
1773047904926617000,4.6106171875,-0.07017423957586288,-0.2756369709968567,-0.17403744161128998
1773047904936586500,4.62058642578125,-0.05632581561803818,-0.2553969621658325,-0.23262694478034973
1773047904946569000,4.63056884765625,-0.04780370742082596,-0.18722008168697357,-0.2635195851325989
1773047904956540000,4.640539794921875,-0.05206476151943207,-0.10639320313930511,-0.24541011452674866
1773047904966521000,4.65052099609375,-0.07017423957586288,-0.057391077280044556,-0.17829850316047668
1773047904976493300,4.660493408203125,-0.09361004084348679,-0.04247738793492317,-0.07070687413215637
1773047904986473700,4.6704736328125,-0.12237215787172318,-0.05206476151943207,0.052863709628582
1773047904996446500,4.680446533203125,-0.1447426974773407,-0.07123950868844986,0.16684691607952118
1773047905006426400,4.69042626953125,-0.15326480567455292,-0.10106688737869263,0.24354590475559235
1773047905016400000,4.70039990234375,-0.15219953656196594,-0.148870587348938,0.2648511826992035
1773047905026379000,4.71037890625,-0.14793848991394043,-0.20213377475738525,0.23821958899497986
1773047905036353300,4.720353271484375,-0.1351553201675415,-0.24154852330684662,0.16897743940353394
1773047905046332000,4.730331787109375,-0.1213068962097168,-0.2660495936870575,0.07097318768501282
1773047905056306700,4.740306640625,-0.10958899557590485,-0.2788327634334564,-0.0366184376180172
1773047905066284800,4.750284912109375,-0.102132149040699,-0.27670222520828247,-0.13249216973781586
1773047905076260000,4.760260009765625,-0.0978710949420929,-0.24900537729263306,-0.19853851199150085
1773047905086238000,4.770238037109375,-0.10000162571668625,-0.19467693567276,-0.22303956747055054
1773047905096118000,4.780117919921875,-0.10426267981529236,-0.14674006402492523,-0.20706062018871307
1773047905105977900,4.789977783203125,-0.11491531878709793,-0.11917637288570404,-0.15486270189285278
1773047905116166700,4.800166748046875,-0.13835111260414124,-0.09467530250549316,-0.06964161247015
1773047905126148400,4.8101484375,-0.16711322963237762,-0.07017423957586288,0.028362644836306572
1773047905136120000,4.8201201171875,-0.1873532384634018,-0.0691089779138565,0.11677952855825424
1773047905146100700,4.830100830078125,-0.1916143000125885,-0.08189214020967484,0.17217323184013367
1773047905156073500,4.840073486328125,-0.1873532384634018,-0.09254477918148041,0.19134798645973206
1773047905166053400,4.850053466796875,-0.18309219181537628,-0.08295740932226181,0.1796300858259201
1773047905176027000,4.86002685546875,-0.1916143000125885,-0.0552605502307415,0.15725953876972198
1773047905186006000,4.870006103515625,-0.20759324729442596,-0.028628960251808167,0.12317110598087311
1773047905195886000,4.879885986328125,-0.2203764170408249,-0.007323687430471182,0.08162582665681839
1773047905205745700,4.88974560546875,-0.2246374636888504,0.01078579481691122,0.03368896245956421
1773047905215933400,4.899933349609375,-0.2246374636888504,0.03209106624126434,-0.014247900806367397
1773047905225916200,4.909916259765625,-0.21931114792823792,0.051265813410282135,-0.05685844644904137
1773047905235886800,4.919886962890625,-0.21291956305503845,0.05233107507228851,-0.09733846783638
1773047905245868300,4.929868408203125,-0.20652799308300018,0.031025802716612816,-0.13355742394924164
1773047905255840300,4.93984033203125,-0.19800588488578796,0.006524739786982536,-0.15273217856884003
1773047905265820700,4.949820556640625,-0.195875346660614,-0.010519478470087051,-0.15166690945625305
1773047905275793700,4.959793701171875,-0.20333220064640045,-0.007323687430471182,-0.1261005848646164
1773047905285773300,4.969773193359375,-0.21185430884361267,0.02463422156870365,-0.08775109052658081
1773047905295653400,4.9796533203125,-0.21291956305503845,0.06404897570610046,-0.03981423005461693
1773047905305513000,4.989512939453125,-0.21291956305503845,0.08855003863573074,0.019840534776449203
1773047905315700200,4.9997001953125,-0.21718062460422516,0.1045289933681488,0.0858868807554245
1773047905325683200,5.00968310546875,-0.2246374636888504,0.12050794810056686,0.15299849212169647
1773047905335653600,5.019653564453125,-0.22570273280143738,0.12903006374835968,0.20519641041755676
1773047905345635300,5.02963525390625,-0.21931114792823792,0.11518163233995438,0.22863221168518066
1773047905355607000,5.03960693359375,-0.20333220064640045,0.0906805694103241,0.2179795652627945
1773047905365587700,5.049587646484375,-0.1777658760547638,0.07576687633991241,0.1796300858259201
1773047905375560400,5.059560546875,-0.14687322080135345,0.039547912776470184,0.11571425944566727
1773047905385540400,5.069540283203125,-0.1213068962097168,0.007590003311634064,0.04540686309337616
1773047905395513900,5.079513916015625,-0.11278478801250458,0.012916321866214275,-0.00892158318310976
1773047905405493000,5.089492919921875,-0.11491531878709793,0.01504684891551733,-0.045140545815229416
1773047905415467300,5.09946728515625,-0.12024163454771042,0.013981585390865803,-0.06218476593494415
1773047905425446000,5.10944580078125,-0.1255679577589035,0.022503694519400597,-0.06431528925895691
1773047905435420700,5.119420654296875,-0.13195952773094177,0.02889527566730976,-0.049401599913835526
1773047905445398800,5.129398681640625,-0.1351553201675415,0.020373167470097542,-0.021704746410250664
1773047905455373800,5.139373779296875,-0.13409006595611572,-0.007323687430471182,0.011318426579236984
1773047905465352000,5.14935205078125,-0.13302479684352875,-0.05845634266734123,0.04008054360747337
1773047905475327500,5.159327392578125,-0.12450268864631653,-0.1213068962097168,0.052863709628582
1773047905485305000,5.16930517578125,-0.10852373391389847,-0.17763271927833557,0.04540686309337616
1773047905495280600,5.17928076171875,-0.09361004084348679,-0.2138516753911972,0.026232117787003517
1773047905505258200,5.18925830078125,-0.08295740932226181,-0.22556957602500916,0.014514217153191566
1773047905515234000,5.199234130859375,-0.08189214020967484,-0.22983063757419586,0.019840534776449203
1773047905525211400,5.20921142578125,-0.08189214020967484,-0.23409168422222137,0.04540686309337616
1773047905535091500,5.219091552734375,-0.07976161688566208,-0.24900537729263306,0.0858868807554245
1773047905545164800,5.229164794921875,-0.08082687854766846,-0.270310640335083,0.13062795996665955
1773047905565117400,5.249117431640625,-0.07337003201246262,-0.3363569974899292,0.15299849212169647
1773047905575094800,5.2590947265625,-0.053130023181438446,-0.3842938542366028,0.10612688958644867
1773047905585070800,5.26907080078125,-0.025433169677853584,-0.4460791349411011,0.0294279083609581
1773047905595048000,5.2790478515625,-0.003062632866203785,-0.5036033987998962,-0.053662657737731934
1773047905605024300,5.289024169921875,-0.0019973693415522575,-0.5185170769691467,-0.11757847666740417
1773047905615001300,5.29900146484375,-0.014780532568693161,-0.48442864418029785,-0.16018901765346527
1773047905624977700,5.308977783203125,-0.028628960251808167,-0.41944757103919983,-0.17616797983646393
1773047905634954500,5.31895458984375,-0.04460791498422623,-0.33316120505332947,-0.16231954097747803
1773047905644834600,5.32883447265625,-0.06378266215324402,-0.22663484513759613,-0.11438268423080444
1773047905654694700,5.338694580078125,-0.09147951751947403,-0.11917637288570404,-0.03874896466732025
1773047905664884200,5.34888427734375,-0.11704584211111069,-0.04673844203352928,0.04434159770607948
1773047905674865200,5.358865234375,-0.13195952773094177,-0.032890014350414276,0.12104058265686035
1773047905684837600,5.368837646484375,-0.13195952773094177,-0.06058686971664429,0.1849564015865326
1773047905694817800,5.37881787109375,-0.12876373529434204,-0.09041424840688705,0.23289325833320618
1773047905704791000,5.388791015625,-0.12237215787172318,-0.10958899557590485,0.2552638053894043
1773047905714770400,5.3987705078125,-0.10745847225189209,-0.1351553201675415,0.24993747472763062
1773047905724744400,5.408744384765625,-0.08189214020967484,-0.15206637978553772,0.22543641924858093
1773047905734723300,5.418723388671875,-0.07337003201246262,-0.148870587348938,0.1934785097837448
1773047905744697900,5.42869775390625,-0.07337003201246262,-0.15632744133472443,0.1423458606004715
1773047905754676200,5.43867626953125,-0.06804371625185013,-0.18722008168697357,0.0624510794878006
1773047905764651000,5.448651123046875,-0.05845634266734123,-0.22450430691242218,-0.03555317223072052
1773047905774629000,5.458629150390625,-0.05206476151943207,-0.24154852330684662,-0.1346226930618286
1773047905784604400,5.4686044921875,-0.06271740049123764,-0.2191779911518097,-0.22303956747055054
1773047905794582300,5.478582275390625,-0.08402267098426819,-0.16378428041934967,-0.2857569754123688
1773047905804557800,5.488557861328125,-0.10958899557590485,-0.10319741815328598,-0.3230412006378174
1773047905814535400,5.498535400390625,-0.13728585839271545,-0.053130023181438446,-0.32517173886299133
1773047905824511200,5.50851123046875,-0.16711322963237762,-0.003062632866203785,-0.28682222962379456
1773047905834488800,5.51848876953125,-0.19907113909721375,0.05233107507228851,-0.20706062018871307
1773047905844464600,5.528464599609375,-0.2288985252380371,0.10665952414274216,-0.08988162130117416
1773047905854442000,5.53844189453125,-0.25126907229423523,0.1471395343542099,0.056059498339891434
1773047905864418000,5.54841796875,-0.262986958026886,0.1663142889738083,0.20519641041755676
1773047905874395100,5.55839501953125,-0.26085641980171204,0.13861742615699768,0.335025429725647
1773047905884371500,5.568371337890625,-0.25126907229423523,0.0672447681427002,0.4287686049938202
1773047905894348500,5.5783486328125,-0.23209431767463684,-0.02756369672715664,0.4703139066696167
1773047905904324900,5.588324951171875,-0.19907113909721375,-0.1435442715883255,0.4468781054019928
1773047905914301700,5.5983017578125,-0.15006901323795319,-0.2575274705886841,0.3563306927680969
1773047905924278300,5.6082783203125,-0.09147951751947403,-0.3459443747997284,0.21478378772735596
1773047905934255000,5.618255126953125,-0.03821633383631706,-0.41838228702545166,0.04008054360747337
1773047905944231700,5.628231689453125,0.008655266836285591,-0.4908202290534973,-0.1452753245830536
1773047905954208500,5.63820849609375,0.043808966875076294,-0.5376918315887451,-0.3081275224685669
1773047905964184800,5.648184814453125,0.05233107507228851,-0.525973916053772,-0.42850229144096375
1773047905974161700,5.65816162109375,0.027830012142658234,-0.47484126687049866,-0.5073317885398865
1773047905984138200,5.66813818359375,-0.0062584239058196545,-0.40559911727905273,-0.5499423742294312
1773047905994115000,5.678114990234375,-0.03395527973771095,-0.3214432895183563,-0.559529721736908
1773047906004091600,5.688091552734375,-0.06058686971664429,-0.21704746782779694,-0.5339633822441101
1773047906014068500,5.698068359375,-0.09467530250549316,-0.08189214020967484,-0.4721781015396118
1773047906024045000,5.708045166015625,-0.15113428235054016,0.06298371404409409,-0.3837612271308899
1773047906034022000,5.71802197265625,-0.2203764170408249,0.18868482112884521,-0.26764747500419617
1773047906043902000,5.72790185546875,-0.27790066599845886,0.2888196110725403,-0.14101427793502808
1773047906053762000,5.737761962890625,-0.3130543529987335,0.359127014875412,-0.01957421936094761
1773047906063951600,5.74795166015625,-0.3269027769565582,0.38895440101623535,0.09227846562862396
1773047906073932500,5.7579326171875,-0.3290333151817322,0.3687143921852112,0.18602167069911957
1773047906083905000,5.767905029296875,-0.31518489122390747,0.3154512047767639,0.24993747472763062
1773047906093885200,5.77788525390625,-0.2896185517311096,0.22596904635429382,0.28815382719039917
1773047906103858400,5.7878583984375,-0.2533995807170868,0.10772478580474854,0.3009369671344757
1773047906113837800,5.797837890625,-0.20865851640701294,-0.007323687430471182,0.2860232889652252
1773047906123811800,5.807811767578125,-0.1543300747871399,-0.11278478801250458,0.2414153665304184
1773047906133790700,5.817790771484375,-0.09147951751947403,-0.22130851447582245,0.16897743940353394
1773047906143670800,5.8276708984375,-0.021172115579247475,-0.31505173444747925,0.08482161909341812
1773047906153530400,5.8375302734375,0.03209106624126434,-0.372575968503952,0.01771000772714615
1773047906163718400,5.847718505859375,0.05233107507228851,-0.38962018489837646,-0.020639482885599136
1773047906173700900,5.857700927734375,0.05446160212159157,-0.38642439246177673,-0.0366184376180172
1773047906183671800,5.867671875,0.05446160212159157,-0.3736412227153778,-0.0366184376180172
1773047906193653000,5.877653076171875,0.055526867508888245,-0.3597927987575531,-0.028096329420804977
1773047906203533000,5.887532958984375,0.04913528636097908,-0.32996541261672974,-0.01318263728171587
1773047906213392400,5.897392333984375,0.02463422156870365,-0.2798980176448822,0.009187898598611355
1773047906223563500,5.9075634765625,-0.01584579609334469,-0.22024326026439667,0.03262370079755783
1773047906233556000,5.917555908203125,-0.06697845458984375,-0.1435442715883255,0.059255290776491165
1773047906243520000,5.92752001953125,-0.11598058044910431,-0.053130023181438446,0.09121319651603699
1773047906253509000,5.937509033203125,-0.1681784987449646,0.02143843099474907,0.12104058265686035
1773047906263476000,5.94747607421875,-0.20865851640701294,0.04913528636097908,0.13915006816387177
1773047906273462500,5.957462646484375,-0.22250694036483765,0.04487423226237297,0.14554163813591003
1773047906283431200,5.96743115234375,-0.22144168615341187,0.020373167470097542,0.14128059148788452
1773047906293416000,5.977416015625,-0.21611535549163818,-0.020106852054595947,0.12956269085407257
1773047906303386000,5.98738623046875,-0.20972378551959991,-0.07337003201246262,0.10080057382583618
1773047906313369000,5.997369140625,-0.195875346660614,-0.12343742698431015,0.054994236677885056
1773047906323340800,6.0073408203125,-0.17670060694217682,-0.1435442715883255,0.0017310534603893757
1773047906333322500,6.017322509765625,-0.15965639054775238,-0.12876373529434204,-0.04833633825182915
1773047906343295200,6.027295166015625,-0.14687322080135345,-0.08189214020967484,-0.07709845900535583
1773047906353276000,6.03727587890625,-0.1394163817167282,-0.028628960251808167,-0.08135951310396194
1773047906363249400,6.04724951171875,-0.1351553201675415,-0.007323687430471182,-0.06431528925895691
1773047906373229300,6.057229248046875,-0.12663321197032928,-0.02330264262855053,-0.028096329420804977
1773047906383203300,6.067203369140625,-0.12024163454771042,-0.03608580678701401,0.012383690103888512
1773047906393083400,6.07708349609375,-0.11917637288570404,-0.03928159549832344,0.039015281945466995
1773047906402963500,6.08696337890625,-0.11385004967451096,-0.04354264959692955,0.030493171885609627
1773047906413136000,6.097135986328125,-0.09254477918148041,-0.05952160432934761,-0.014247900806367397
1773047906423116800,6.10711669921875,-0.07017423957586288,-0.07550056278705597,-0.07816372066736221
1773047906433089300,6.11708935546875,-0.0552605502307415,-0.08615319430828094,-0.1442100703716278
1773047906443069400,6.1270693359375,-0.05632581561803818,-0.08721846342086792,-0.19534271955490112
1773047906453042700,6.137042724609375,-0.07337003201246262,-0.07123950868844986,-0.23156169056892395
1773047906463022000,6.14702197265625,-0.10106688737869263,-0.02649843320250511,-0.2539322078227997
1773047906472996000,6.15699609375,-0.1213068962097168,0.048070020973682404,-0.25499749183654785
1773047906482975000,6.16697509765625,-0.13835111260414124,0.14607428014278412,-0.2241048365831375
1773047906492949500,6.176949462890625,-0.16178691387176514,0.2557964324951172,-0.15166690945625305
1773047906502928000,6.186927978515625,-0.1820269227027893,0.3399522602558136,-0.0366184376180172
1773047906512902700,6.196902587890625,-0.196940615773201,0.36551859974861145,0.09760478138923645
1773047906522881000,6.206881103515625,-0.19907113909721375,0.3314301371574402,0.22543641924858093
1773047906532856000,6.21685595703125,-0.18841850757598877,0.24940484762191772,0.3286338448524475
1773047906542834000,6.226833984375,-0.17457008361816406,0.1428784877061844,0.39787596464157104
1773047906552809500,6.2368095703125,-0.15752586722373962,0.01717737689614296,0.4191812574863434
1773047906562787300,6.246787353515625,-0.13409006595611572,-0.11278478801250458,0.38296228647232056
1773047906592717000,6.276717041015625,-0.021172115579247475,-0.46205809712409973,-0.07070687413215637
1773047906602693000,6.286693115234375,0.0033289489801973104,-0.5238434076309204,-0.27403905987739563
1773047906612670200,6.296670166015625,0.019307903945446014,-0.5067991614341736,-0.4583296775817871
1773047906622646500,6.306646484375,0.02569948509335518,-0.46525388956069946,-0.592552900314331
1773047906632623600,6.31662353515625,0.026764748618006706,-0.40559911727905273,-0.6554034352302551
1773047906642600000,6.326599853515625,0.027830012142658234,-0.31505173444747925,-0.6415550112724304
1773047906652576800,6.33657666015625,0.019307903945446014,-0.21491694450378418,-0.5584644675254822
1773047906662553000,6.346552978515625,-0.0009321057004854083,-0.12663321197032928,-0.4210454523563385
1773047906672530200,6.3565302734375,-0.02330264262855053,-0.05419528856873512,-0.25073641538619995
1773047906682506500,6.366506591796875,-0.041412122547626495,0.011851058341562748,-0.0600542388856411
1773047906692483600,6.376483642578125,-0.05952160432934761,0.07044056057929993,0.13062795996665955
1773047906702460000,6.3864599609375,-0.07550056278705597,0.10559425503015518,0.2913496196269989
1773047906712436700,6.396436767578125,-0.08402267098426819,0.1279647946357727,0.40639808773994446
1773047906722413300,6.406413330078125,-0.08295740932226181,0.14074796438217163,0.475640207529068
1773047906732390100,6.41639013671875,-0.07337003201246262,0.12903006374835968,0.502271831035614
1773047906742366700,6.42636669921875,-0.05632581561803818,0.07257108390331268,0.4852275848388672
1773047906752343600,6.436343505859375,-0.022237379103899002,-0.025433169677853584,0.42131176590919495
1773047906762320100,6.446320068359375,0.03315633162856102,-0.13715268671512604,0.3190464675426483
1773047906772297000,6.456296875,0.09281109273433685,-0.24367906153202057,0.18602167069911957
1773047906782273500,6.4662734375,0.14381058514118195,-0.3502054214477539,0.043276336044073105
1773047906792250400,6.47625048828125,0.18429060280323029,-0.448209673166275,-0.09201214462518692
1773047906802227000,6.48622705078125,0.2066611498594284,-0.5163865685462952,-0.18895113468170166
1773047906812203500,6.49620361328125,0.2066611498594284,-0.5408875942230225,-0.23688800632953644
1773047906822180400,6.506180419921875,0.18429060280323029,-0.517451822757721,-0.2486059069633484
1773047906832157000,6.516156982421875,0.1416800618171692,-0.44714441895484924,-0.22623535990715027
1773047906842133800,6.5261337890625,0.08961530029773712,-0.3459443747997284,-0.17936377227306366
1773047906852110300,6.5361103515625,0.027830012142658234,-0.22450430691242218,-0.11544794589281082
1773047906862087200,6.546087158203125,-0.03608580678701401,-0.10426267981529236,-0.045140545815229416
1773047906872063700,6.556063720703125,-0.09574057161808014,0.00013315795513335615,0.02197106182575226
1773047906882040300,6.566040283203125,-0.1447426974773407,0.06831002980470657,0.08375635743141174
1773047906892017200,6.57601708984375,-0.1735048145055771,0.10133320093154907,0.13169321417808533
1773047906901994000,6.585993896484375,-0.18948377668857574,0.1332911103963852,0.1615206003189087
1773047906911970600,6.595970458984375,-0.19267955422401428,0.1748363971710205,0.17749954760074615
1773047906921947100,6.605947021484375,-0.19054903090000153,0.2035985141992569,0.1806953400373459
1773047906931924000,6.615924072265625,-0.1820269227027893,0.20572903752326965,0.17217323184013367
1773047906941900500,6.625900634765625,-0.16924376785755157,0.17909744381904602,0.15939007699489594
1773047906951877400,6.63587744140625,-0.16072164475917816,0.14927007257938385,0.1423458606004715
1773047906961854000,6.64585400390625,-0.16072164475917816,0.1322258561849594,0.1284974217414856
1773047906971830500,6.65583056640625,-0.1585911214351654,0.12583427131175995,0.11145320534706116
1773047906981807400,6.665807373046875,-0.14154690504074097,0.11305110156536102,0.0858868807554245
1773047906991784000,6.675783935546875,-0.10958899557590485,0.07363634556531906,0.056059498339891434
1773047907001760800,6.6857607421875,-0.0691089779138565,0.018242640420794487,0.027297381311655045
1773047907011737300,6.6957373046875,-0.04034686088562012,-0.037151068449020386,0.0070573715493083
1773047907021714200,6.705714111328125,-0.017976323142647743,-0.08721846342086792,-0.012117373757064342
1773047907031690800,6.715690673828125,0.007590003311634064,-0.14674006402492523,-0.03448791056871414
1773047907041667600,6.72566748046875,0.023568958044052124,-0.18295903503894806,-0.04727107286453247
1773047907051644200,6.73564404296875,0.020373167470097542,-0.15100112557411194,-0.03768370300531387
1773047907061621000,6.74562109375,-0.009454214945435524,-0.05632581561803818,0.002796316985040903
1773047907071597600,6.75559765625,-0.05632581561803818,0.04913528636097908,0.06351634114980698
1773047907081574400,6.765574462890625,-0.10000162571668625,0.1237037405371666,0.11784479022026062
1773047907091551000,6.775551025390625,-0.13302479684352875,0.19507640600204468,0.14767217636108398
1773047907101527800,6.78552783203125,-0.1777658760547638,0.3250385820865631,0.13915006816387177
1773047907111504400,6.79550439453125,-0.23102904856204987,0.48682549595832825,0.09334372729063034
1773047907121481200,6.805481201171875,-0.2533995807170868,0.5731118321418762,0.06777740269899368
1773047907131457800,6.815457763671875,-0.29814067482948303,0.6689855456352234,0.04434159770607948
1773047907141434400,6.825434326171875,-0.3418164849281311,0.8032087683677673,0.04008054360747337
1773047907151411200,6.8354111328125,-0.3705785870552063,0.9097351431846619,-0.012117373757064342
1773047907161387800,6.8453876953125,-0.3567301630973816,0.8617982864379883,-0.029161592945456505
1773047907171364600,6.855364501953125,-0.3290333151817322,0.6998782157897949,-0.011052110232412815
1773047907181341200,6.865341064453125,-0.33116382360458374,0.5539370775222778,0.0070573715493083
1773047907191318000,6.875318115234375,-0.31198909878730774,0.4133222997188568,0.03688475489616394
1773047907201294600,6.885294677734375,-0.26085641980171204,0.2930806577205658,0.08162582665681839
1773047907211271400,6.895271484375,-0.20652799308300018,0.15033532679080963,0.13488900661468506
1773047907221248000,6.905248046875,-0.15326480567455292,-0.007323687430471182,0.16258586943149567
1773047907231224800,6.915224853515625,-0.10852373391389847,-0.15100112557411194,0.13169321417808533
1773047907241201400,6.925201416015625,-0.04780370742082596,-0.3022685647010803,0.04966791719198227
1773047907251178200,6.93517822265625,0.011851058341562748,-0.43649178743362427,-0.07603318989276886
1773047907261154800,6.94515478515625,0.048070020973682404,-0.534496009349823,-0.21877852082252502
1773047907271131600,6.955131591796875,0.08215846121311188,-0.6079992055892944,-0.3507380485534668
1773047907281108200,6.965108154296875,0.12263847887516022,-0.6506097912788391,-0.45087283849716187
1773047907291084800,6.975084716796875,0.14913691580295563,-0.655936062335968,-0.500940203666687
1773047907301061600,6.9850615234375,0.1555284857749939,-0.6101297736167908,-0.49348339438438416
1773047907311038200,6.9950380859375,0.1406148076057434,-0.5078644156455994,-0.4348938763141632
1773047907321015000,7.00501513671875,0.10559425503015518,-0.372575968503952,-0.34434646368026733
1773047907330991600,7.01499169921875,0.05233107507228851,-0.22024326026439667,-0.23262694478034973
1773047907340968400,7.024968505859375,-0.008388951420783997,-0.04780370742082596,-0.11438268423080444
1773047907350945000,7.034945068359375,-0.06058686971664429,0.11198583990335464,0.002796316985040903
1773047907360883000,7.044883056640625,-0.10000162571668625,0.2227732539176941,0.11251847445964813
1773047907370855700,7.054855712890625,-0.12982900440692902,0.26218801736831665,0.19987009465694427
1773047907380875300,7.064875244140625,-0.1447426974773407,0.23555642366409302,0.2563290596008301
1773047907390852600,7.0748525390625,-0.1394163817167282,0.17696692049503326,0.2775011658668518
1773047907400828700,7.08482861328125,-0.12769848108291626,0.10559425503015518,0.2605901062488556
1773047907410806000,7.094805908203125,-0.11598058044910431,0.023568958044052124,0.21052272617816925
1773047907420782000,7.104781982421875,-0.10000162571668625,-0.07123950868844986,0.13062795996665955
1773047907430759200,7.11475927734375,-0.061652131378650665,-0.17763271927833557,0.0294279083609581
1773047907440696600,7.124696533203125,-0.020106852054595947,-0.261788547039032,-0.06538055837154388
1773047907450669800,7.134669921875,0.005459476262331009,-0.30972540378570557,-0.1303616315126419
1773047907460650000,7.14464990234375,0.02143843099474907,-0.33422645926475525,-0.16231954097747803
1773047907470623700,7.154623779296875,0.035286858677864075,-0.35659700632095337,-0.17616797983646393
1773047907480603400,7.164603271484375,0.055526867508888245,-0.3736412227153778,-0.18149429559707642
1773047907490577700,7.17457763671875,0.08002793043851852,-0.38003280758857727,-0.18149429559707642
1773047907500401700,7.184401611328125,0.10346373170614243,-0.3779022693634033,-0.1676458716392517
1773047907510361000,7.194361083984375,0.12157320976257324,-0.3747064769268036,-0.13249216973781586
1773047907520471000,7.204470947265625,0.12476900219917297,-0.3704454302787781,-0.08455529808998108
1773047907530445800,7.21444580078125,0.1045289933681488,-0.3352917432785034,-0.025965800508856773
1773047907540463400,7.22446337890625,0.0715058222413063,-0.25433170795440674,0.034754227846860886
1773047907550442200,7.234442138671875,0.035286858677864075,-0.15526217222213745,0.08908267319202423
1773047907560322300,7.244322265625,-0.003062632866203785,-0.04034686088562012,0.1284974217414856
1773047907570182100,7.25418212890625,-0.03821633383631706,0.08215846121311188,0.15299849212169647
1773047907580370200,7.2643701171875,-0.06804371625185013,0.17909744381904602,0.16684691607952118
1773047907590352400,7.274352294921875,-0.09041424840688705,0.22916483879089355,0.16897743940353394
1773047907600323600,7.284323486328125,-0.10745847225189209,0.22064273059368134,0.15299849212169647
1773047907610304800,7.2943046875,-0.10745847225189209,0.17270587384700775,0.12317110598087311
1773047907620238000,7.304238037109375,-0.09254477918148041,0.11944268643856049,0.08482161909341812
1773047907630214700,7.314214599609375,-0.07976161688566208,0.08535424619913101,0.052863709628582
1773047907640152600,7.324152587890625,-0.06697845458984375,0.0576573945581913,0.030493171885609627
1773047907650125300,7.334125244140625,-0.053130023181438446,0.011851058341562748,0.013448953628540039
1773047907660067300,7.3440673828125,-0.03395527973771095,-0.03821633383631706,-0.004660528618842363
1773047907670036700,7.35403662109375,-0.02330264262855053,-0.061652131378650665,-0.02277000993490219
1773047907679981800,7.36398193359375,-0.03075948730111122,-0.04673844203352928,-0.04727107286453247
1773047907689949000,7.373948974609375,-0.041412122547626495,-0.013715269044041634,-0.08455529808998108
1773047907699896600,7.383896484375,-0.04247738793492317,-0.0019973693415522575,-0.12823110818862915
1773047907709861600,7.393861572265625,-0.048868969082832336,0.006524739786982536,-0.14740586280822754
1773047907719811000,7.40381103515625,-0.0456731803715229,0.047004759311676025,-0.13249216973781586
1773047907729774600,7.413774658203125,-0.04780370742082596,0.08748477697372437,-0.0930774137377739
1773047907739725600,7.4237255859375,-0.0552605502307415,0.08428898453712463,-0.0366184376180172
1773047907749687800,7.433687744140625,-0.0552605502307415,0.042743705213069916,0.0070573715493083
1773047907759679000,7.443678955078125,-0.03395527973771095,-0.011584741994738579,0.028362644836306572
1773047907769644000,7.45364404296875,-0.011584741994738579,-0.06591318547725677,0.02197106182575226
1773047907779516200,7.46351611328125,0.005459476262331009,-0.11917637288570404,-0.007856319658458233
1773047907789472000,7.473471923828125,0.009720530360937119,-0.18402428925037384,-0.05472791939973831
1773047907799430700,7.4834306640625,0.0043942127376794815,-0.2660495936870575,-0.1165132075548172
1773047907809386800,7.49338671875,0.018242640420794487,-0.18828535079956055,-0.14101427793502808
1773047907819345200,7.50334521484375,0.023568958044052124,-0.09467530250549316,-0.15060164034366608
1773047907829301500,7.513301513671875,0.0033289489801973104,-0.048868969082832336,-0.14634059369564056
1773047907839259600,7.523259765625,-0.012650005519390106,-0.02756369672715664,-0.12077426165342331
1773047907849216300,7.53321630859375,-0.01584579609334469,-0.05099949613213539,-0.08135951310396194
1773047907859174400,7.54317431640625,-0.009454214945435524,-0.029694223776459694,-0.007856319658458233
1773047907869131000,7.553131103515625,-0.013715269044041634,-0.07656582444906235,0.07097318768501282
1773047907879011800,7.56301171875,-0.02649843320250511,-0.24900537729263306,0.12104058265686035
1773047907888960800,7.572960693359375,-0.013715269044041634,-0.29587697982788086,0.17217323184013367
1773047907898964500,7.582964599609375,0.011851058341562748,-0.24367906153202057,0.2041311413049698
1773047907908919300,7.592919189453125,0.016112113371491432,-0.25859275460243225,0.1892174482345581
1773047907919099100,7.60309912109375,0.011851058341562748,-0.3310306668281555,0.13169321417808533
1773047907929279200,7.613279296875,0.016112113371491432,-0.3842938542366028,0.056059498339891434
1773047907939459300,7.623459228515625,0.03741738572716713,-0.31079065799713135,-0.0025300011038780212
1773047907949565000,7.63356494140625,0.035286858677864075,-0.20746009051799774,-0.05898897349834442
1773047907959523800,7.64352392578125,0.00013315795513335615,-0.12769848108291626,-0.1165132075548172
1773047907969514800,7.6535146484375,-0.029694223776459694,-0.014780532568693161,-0.16658060252666473
1773047907979477200,7.663477294921875,-0.028628960251808167,0.1045289933681488,-0.2006690353155136
1773047907989465600,7.673465576171875,-0.011584741994738579,0.18229323625564575,-0.21132168173789978
1773047907999430700,7.6834306640625,-0.0019973693415522575,0.2131858915090561,-0.18469008803367615
1773047908009416700,7.693416748046875,-0.007323687430471182,0.20572903752326965,-0.11438268423080444
1773047908019384300,7.70338427734375,-0.025433169677853584,0.17696692049503326,-0.012117373757064342
1773047908029368300,7.713368408203125,-0.05206476151943207,0.1471395343542099,0.09760478138923645
1773047908039337700,7.723337646484375,-0.08189214020967484,0.10559425503015518,0.18602167069911957
1773047908049320400,7.733320556640625,-0.11385004967451096,0.06191844865679741,0.23715431988239288
1773047908059291100,7.743291015625,-0.1213068962097168,0.10772478580474854,0.27537065744400024
1773047908069272600,7.7532724609375,-0.1117195263504982,0.1982721984386444,0.2966759204864502
1773047908079244800,7.763244873046875,-0.11491531878709793,0.2547311782836914,0.2828274965286255
1773047908089225200,7.77322509765625,-0.12876373529434204,0.25686168670654297,0.24248063564300537
1773047908099198200,7.7831982421875,-0.13302479684352875,0.23342590034008026,0.18389113247394562
1773047908109177900,7.793177734375,-0.12982900440692902,0.18868482112884521,0.10293109714984894
1773047908119151600,7.803151611328125,-0.12237215787172318,0.1428784877061844,0.009187898598611355
1773047908129130800,7.813130859375,-0.11385004967451096,0.12583427131175995,-0.08562056720256805
1773047908139105300,7.823105224609375,-0.10000162571668625,0.12476900219917297,-0.16977639496326447
1773047908149084000,7.833083984375,-0.07976161688566208,0.10772478580474854,-0.2102564126253128
1773047908159058700,7.84305859375,-0.07763108611106873,0.10772478580474854,-0.19960378110408783
1773047908169036800,7.853036865234375,-0.09361004084348679,0.1471395343542099,-0.14314480125904083
1773047908179012000,7.86301220703125,-0.11704584211111069,0.21212062239646912,-0.06218476593494415
1773047908188990000,7.872989990234375,-0.13622058928012848,0.23342590034008026,0.03262370079755783
1773047908198965500,7.882965576171875,-0.15113428235054016,0.23662169277668,0.1327584832906723
1773047908208943400,7.892943359375,-0.15752586722373962,0.2408827394247055,0.212653249502182
1773047908218823400,7.902823486328125,-0.15326480567455292,0.22916483879089355,0.2605901062488556
1773047908228640800,7.912640869140625,-0.14687322080135345,0.18868482112884521,0.2743053734302521
1773047908238820900,7.92282080078125,-0.12876373529434204,0.13648690283298492,0.2541985511779785
1773047908248854800,7.932854736328125,-0.10319741815328598,0.09707214683294296,0.20200061798095703
1773047908258825700,7.94282568359375,-0.0691089779138565,0.059787921607494354,0.11677952855825424
1773047908268807200,7.95280712890625,-0.03608580678701401,0.007590003311634064,0.008122635073959827
1773047908278779400,7.962779296875,0.00013315795513335615,-0.05099949613213539,-0.11118689179420471
1773047908288759800,7.972759765625,0.03315633162856102,-0.09680583328008652,-0.2241048365831375
1773047908298732800,7.98273291015625,0.05659212917089462,-0.1255679577589035,-0.30599698424339294
1773047908308712400,7.99271240234375,0.07044056057929993,-0.13409006595611572,-0.3454117476940155
1773047908318725000,8.00272509765625,0.07683213800191879,-0.12237215787172318,-0.33795487880706787
1773047908328708000,8.0127080078125,0.07789740711450577,-0.08615319430828094,-0.29108327627182007
1773047908338640000,8.022639892578125,0.07470161467790604,-0.03395527973771095,-0.219843789935112
1773047908348617700,8.03261767578125,0.06617950648069382,0.02143843099474907,-0.14101427793502808
1773047908358593300,8.04259326171875,0.059787921607494354,0.06404897570610046,-0.06964161247015
1773047908368571000,8.05257080078125,0.05659212917089462,0.0810931921005249,-0.011052110232412815
1773047908378547000,8.062546875,0.05233107507228851,0.09174583107233047,0.034754227846860886
1773047908388524300,8.072524169921875,0.03848264738917351,0.10772478580474854,0.06351634114980698
1773047908398500400,8.082500244140626,0.027830012142658234,0.10239847004413605,0.06884266436100006
1773047908408477700,8.092477783203124,0.02463422156870365,0.06404897570610046,0.052863709628582
1773047908418357500,8.102357421875,0.026764748618006706,0.0022636852227151394,0.027297381311655045
1773047908428175000,8.112175048828124,0.03315633162856102,-0.0691089779138565,-0.001464737462811172
1773047908438355200,8.122355224609375,0.043808966875076294,-0.15526217222213745,-0.03448791056871414
1773047908448389400,8.132389404296875,0.05659212917089462,-0.25007063150405884,-0.06538055837154388
1773047908458269400,8.14226953125,0.07044056057929993,-0.3502054214477539,-0.08562056720256805
1773047908468086000,8.1520859375,0.08855003863573074,-0.448209673166275,-0.10053425282239914
1773047908478081300,8.162081298828125,0.10665952414274216,-0.5323655009269714,-0.10905636847019196
1773047908488043000,8.17204296875,0.1237037405371666,-0.601607620716095,-0.11438268423080444
1773047908498223000,8.18222314453125,0.14274533092975616,-0.6548708081245422,-0.12716585397720337
1773047908508255700,8.192255859375,0.16192007064819336,-0.7090660929679871,-0.15166690945625305
1773047908518220800,8.202220703125,0.17044217884540558,-0.7442198395729065,-0.17829850316047668
1773047908528207000,8.21220703125,0.1651158630847931,-0.7175882458686829,-0.18575534224510193
1773047908538087200,8.222087158203125,0.14807164669036865,-0.6218476295471191,-0.1772332340478897
1773047908547903000,8.231903076171875,0.1279647946357727,-0.5014728307723999,-0.16125428676605225
1773047908557895000,8.24189501953125,0.11518163233995438,-0.3842938542366028,-0.12929637730121613
1773047908567859200,8.251859130859375,0.10772478580474854,-0.2798980176448822,-0.08668582886457443
1773047908577848300,8.261848388671876,0.09600688517093658,-0.1957421898841858,-0.03555317223072052
1773047908587815200,8.271815185546876,0.07896266877651215,-0.14460954070091248,0.01771000772714615
1773047908597995000,8.2819951171875,0.06085318699479103,-0.11491531878709793,0.06777740269899368
1773047908608027100,8.292027099609374,0.048070020973682404,-0.08934898674488068,0.10293109714984894
1773047908617988400,8.30198828125,0.03741738572716713,-0.0456731803715229,0.12423637509346008
1773047908627977500,8.3119775390625,0.02996053919196129,0.009720530360937119,0.13169321417808533
1773047908637941800,8.321941650390626,0.022503694519400597,0.03315633162856102,0.12530162930488586
1773047908647928600,8.331928466796874,0.01504684891551733,0.06831002980470657,0.11251847445964813
1773047908657895400,8.3418955078125,0.0043942127376794815,0.10239847004413605,0.09334372729063034
1773047908667880200,8.351880126953125,-0.005193160381168127,0.12263847887516022,0.0624510794878006
1773047908677849000,8.36184912109375,-0.009454214945435524,0.1418132185935974,0.02197106182575226
1773047908687832000,8.37183203125,-0.016911059617996216,0.17696692049503326,-0.021704746410250664
1773047908697802500,8.381802490234374,-0.029694223776459694,0.2174469381570816,-0.05579318478703499
1773047908707784400,8.391784423828126,-0.05206476151943207,0.24940484762191772,-0.07496792823076248
1773047908717756200,8.401756103515625,-0.08295740932226181,0.27603644132614136,-0.07496792823076248
1773047908727736800,8.41173681640625,-0.11598058044910431,0.3016027808189392,-0.05898897349834442
1773047908737709600,8.42170947265625,-0.15006901323795319,0.31971225142478943,-0.04301001876592636
1773047908747689700,8.431689697265625,-0.1735048145055771,0.3388870060443878,-0.03555317223072052
1773047908757663200,8.441663330078125,-0.186287984251976,0.35699647665023804,-0.04301001876592636
1773047908767642600,8.451642578125,-0.19481009244918823,0.3687143921852112,-0.06857634335756302
1773047908777522400,8.4615224609375,-0.19267955422401428,0.3644533157348633,-0.10586057603359222
1773047908787339800,8.47133984375,-0.18522271513938904,0.3495396375656128,-0.14847111701965332
1773047908797337300,8.48133740234375,-0.18096165359020233,0.33356067538261414,-0.18149429559707642
1773047908807297300,8.49129736328125,-0.17670060694217682,0.3346259295940399,-0.19427745044231415
1773047908817477400,8.501477294921875,-0.1777658760547638,0.3687143921852112,-0.1868206113576889
1773047908827510500,8.511510498046874,-0.17563533782958984,0.4154528081417084,-0.16658060252666473
1773047908837477000,8.52147705078125,-0.16072164475917816,0.4431496858596802,-0.13142690062522888
1773047908847462100,8.531462158203125,-0.13409006595611572,0.433562308549881,-0.08029424399137497
1773047908857430800,8.5414306640625,-0.10639320313930511,0.3825628161430359,-0.021704746410250664
1773047908867414000,8.5514140625,-0.08082687854766846,0.2973417043685913,0.039015281945466995
1773047908877384200,8.56138427734375,-0.05952160432934761,0.20466378331184387,0.09014793485403061
1773047908887366100,8.5713662109375,-0.041412122547626495,0.12903006374835968,0.12636689841747284
1773047908897337900,8.581337890625,-0.022237379103899002,0.06831002980470657,0.14341111481189728
1773047908907318800,8.59131884765625,-0.0009321057004854083,0.006524739786982536,0.13915006816387177
1773047908917291300,8.601291259765626,0.02569948509335518,-0.05845634266734123,0.11464899778366089
1773047908927271400,8.611271484375,0.051265813410282135,-0.12024163454771042,0.08056056499481201
1773047908937245000,8.621244873046875,0.07044056057929993,-0.17976324260234833,0.04966791719198227
1773047908947224300,8.631224365234376,0.08322372287511826,-0.24580958485603333,0.026232117787003517
1773047908957104400,8.6411044921875,0.09174583107233047,-0.3075948655605316,-0.001464737462811172
1773047908966921700,8.650921630859376,0.09707214683294296,-0.3587275445461273,-0.03981423005461693
1773047908976919300,8.660919189453125,0.09920267760753632,-0.40027281641960144,-0.08455529808998108
1773047908986879200,8.670879150390626,0.10879004746675491,-0.4247738718986511,-0.12929637730121613
1773047908997059000,8.68105908203125,0.10665952414274216,-0.42370861768722534,-0.163384810090065
1773047909007092200,8.69109228515625,0.0906805694103241,-0.3736412227153778,-0.17936377227306366
1773047909017058800,8.701058837890624,0.06511423736810684,-0.26285380125045776,-0.16977639496326447
1773047909027043800,8.7110439453125,0.03741738572716713,-0.13409006595611572,-0.13781848549842834
1773047909036924000,8.720923828125,0.016112113371491432,-0.024367906153202057,-0.0834900364279747
1773047909046740000,8.730739990234374,0.008655266836285591,0.051265813410282135,-0.014247900806367397
1773047909056920000,8.740920166015625,0.018242640420794487,0.07576687633991241,0.0624510794878006
1773047909066953200,8.750953125,0.04487423226237297,0.03741738572716713,0.14128059148788452
1773047909076919600,8.76091943359375,0.07363634556531906,-0.041412122547626495,0.203065887093544
1773047909086904600,8.770904541015625,0.09600688517093658,-0.12343742698431015,0.24461115896701813
1773047909096873200,8.780873291015626,0.10559425503015518,-0.18828535079956055,0.25845959782600403
1773047909106856700,8.790856689453125,0.10985531657934189,-0.23622220754623413,0.23715431988239288
1773047909116827000,8.800826904296875,0.11305110156536102,-0.27244117856025696,0.16897743940353394
1773047909126808800,8.810808837890624,0.12157320976257324,-0.3033338189125061,0.056059498339891434
1773047909136689000,8.82068896484375,0.12903006374835968,-0.318247526884079,-0.07603318989276886
1773047909146505500,8.83050537109375,0.12157320976257324,-0.30013802647590637,-0.19960378110408783
1773047909156685600,8.840685546875,0.10665952414274216,-0.2372874766588211,-0.293213814496994
1773047909166719000,8.850718994140625,0.07896266877651215,-0.12769848108291626,-0.34328120946884155
1773047909176599000,8.86059912109375,0.03848264738917351,0.006524739786982536,-0.3464770019054413
1773047909186415000,8.8704150390625,-0.009454214945435524,0.12903006374835968,-0.2996053993701935
1773047909196595200,8.88059521484375,-0.053130023181438446,0.20999009907245636,-0.20706062018871307
1773047909206628400,8.89062841796875,-0.09041424840688705,0.24940484762191772,-0.08135951310396194
1773047909216594400,8.900594482421875,-0.11278478801250458,0.25686168670654297,0.05819002538919449
1773047909226579700,8.910579833984375,-0.13622058928012848,0.246209055185318,0.18708692491054535
1773047909236548000,8.920548095703126,-0.15326480567455292,0.2270343154668808,0.2785664498806
1773047909246531600,8.930531494140626,-0.1585911214351654,0.21638168394565582,0.31691592931747437
1773047909256411600,8.94041162109375,-0.15752586722373962,0.21105535328388214,0.29880645871162415
1773047909266228000,8.95022802734375,-0.14367742836475372,0.1982721984386444,0.2275669425725937
1773047909276222500,8.960222412109376,-0.11278478801250458,0.1705753356218338,0.11677952855825424
1773047909286185000,8.97018505859375,-0.08082687854766846,0.11837742477655411,-0.01318263728171587
1773047909296365000,8.980364990234374,-0.04993423447012901,0.058722659945487976,-0.1399490088224411
1773047909306397700,8.990397705078125,-0.022237379103899002,0.013981585390865803,-0.2539322078227997
1773047909316362200,9.0003623046875,-0.0009321057004854083,-0.0062584239058196545,-0.34328120946884155
1773047909326348800,9.010348876953126,0.01504684891551733,-0.004127896390855312,-0.3965443968772888
1773047909336316000,9.02031591796875,0.020373167470097542,0.027830012142658234,-0.406131774187088
1773047909346300700,9.03030078125,0.012916321866214275,0.08641951531171799,-0.3688475489616394
1773047909356269600,9.04026953125,-0.0062584239058196545,0.15459638833999634,-0.284691721200943
1773047909366252500,9.05025244140625,-0.037151068449020386,0.23555642366409302,-0.163384810090065
1773047909376132600,9.060132568359375,-0.07656582444906235,0.3303648829460144,-0.02383527345955372
1773047909385991700,9.06999169921875,-0.10958899557590485,0.41225701570510864,0.10186583548784256
1773047909396176600,9.0801767578125,-0.12982900440692902,0.44847598671913147,0.19134798645973206
1773047909406161700,9.09016162109375,-0.13302479684352875,0.4367581009864807,0.24035011231899261
1773047909416130000,9.100130126953125,-0.11278478801250458,0.39428070187568665,0.2552638053894043
1773047909426113500,9.110113525390625,-0.07656582444906235,0.32823434472084045,0.24035011231899261
1773047909436083700,9.120083740234374,-0.04780370742082596,0.25792697072029114,0.21584904193878174
1773047909446066000,9.13006591796875,-0.02649843320250511,0.19294588267803192,0.1892174482345581
1773047909456037400,9.140037353515625,-0.011584741994738579,0.14074796438217163,0.1615206003189087
1773047909466018300,9.150018310546875,0.0043942127376794815,0.09813741594552994,0.13062795996665955
1773047909475991000,9.159990966796874,0.02143843099474907,0.06298371404409409,0.09440898895263672
1773047909485971200,9.16997119140625,0.03848264738917351,0.039547912776470184,0.054994236677885056
1773047909495944700,9.17994482421875,0.05233107507228851,0.008655266836285591,0.023036325350403786
1773047909505924000,9.189924072265624,0.06191844865679741,-0.03502054139971733,-0.004660528618842363
1773047909515898400,9.1998984375,0.06298371404409409,-0.06378266215324402,-0.0366184376180172
1773047909525877200,9.209877197265625,0.05659212917089462,-0.08934898674488068,-0.05579318478703499
1773047909535851800,9.219851806640625,0.03315633162856102,-0.08082687854766846,-0.06751108169555664
1773047909545830400,9.229830322265625,0.018242640420794487,-0.0691089779138565,-0.06964161247015
1773047909555805400,9.239805419921876,0.022503694519400597,-0.07337003201246262,-0.07283740490674973
1773047909565783600,9.249783447265624,0.031025802716612816,-0.061652131378650665,-0.08562056720256805
1773047909575758800,9.2597587890625,0.0342215932905674,-0.06591318547725677,-0.08135951310396194
1773047909585737000,9.269737060546875,0.0342215932905674,-0.09467530250549316,-0.061119500547647476
1773047909595616800,9.27961669921875,0.020373167470097542,-0.13195952773094177,-0.0366184376180172
1773047909605477000,9.28947705078125,0.009720530360937119,-0.1573926955461502,-0.020639482885599136
1773047909615666000,9.299666015625,0.012916321866214275,-0.16804534196853638,-0.01850895583629608
1773047909625647900,9.30964794921875,0.018242640420794487,-0.18722008168697357,-0.03129211813211441
1773047909635619600,9.31961962890625,0.03635212033987045,-0.22556957602500916,-0.05153212696313858
1773047909645600300,9.329600341796874,0.055526867508888245,-0.2692453861236572,-0.06751108169555664
1773047909655480300,9.339480224609375,0.07470161467790604,-0.3086601495742798,-0.07816372066736221
1773047909665340000,9.34933984375,0.08535424619913101,-0.3352917432785034,-0.07922898232936859
1773047909675332600,9.35933251953125,0.08322372287511826,-0.33316120505332947,-0.07283740490674973
1773047909685296600,9.369296630859376,0.07470161467790604,-0.30013802647590637,-0.06325002759695053
1773047909695480000,9.37947998046875,0.07044056057929993,-0.25007063150405884,-0.05579318478703499
1773047909705466400,9.38946630859375,0.06937529146671295,-0.20319904386997223,-0.0504668653011322
1773047909715434000,9.39943408203125,0.06937529146671295,-0.15952323377132416,-0.04301001876592636
1773047909725418200,9.409418212890625,0.06298371404409409,-0.12024163454771042,-0.03129211813211441
1773047909735387400,9.419387451171875,0.051265813410282135,-0.08402267098426819,-0.017443692311644554
1773047909745370400,9.429370361328125,0.03741738572716713,-0.0456731803715229,-0.004660528618842363
1773047909755341000,9.439341064453124,0.026764748618006706,-0.004127896390855312,0.0017310534603893757
1773047909765322800,9.44932275390625,0.02569948509335518,0.02569948509335518,0.0006657897611148655
1773047909775294700,9.459294677734375,0.02569948509335518,0.04167843982577324,-0.0003994738799519837
1773047909785275400,9.469275390625,0.027830012142658234,0.039547912776470184,0.004926844500005245
1773047909795248400,9.479248291015624,0.03315633162856102,0.023568958044052124,0.02197106182575226
1773047909805228300,9.489228271484375,0.03635212033987045,0.005459476262331009,0.043276336044073105
1773047909815202000,9.4992021484375,0.03848264738917351,0.005459476262331009,0.06777740269899368
1773047909825181200,9.50918115234375,0.04593949392437935,0.013981585390865803,0.08908267319202423
1773047909835155500,9.519155517578126,0.06085318699479103,0.01078579481691122,0.10186583548784256
1773047909845134300,9.52913427734375,0.08215846121311188,-0.009454214945435524,0.10612688958644867
1773047909855109000,9.539109130859375,0.10985531657934189,-0.028628960251808167,0.10506162792444229
1773047909865087500,9.54908740234375,0.13528847694396973,-0.03608580678701401,0.10293109714984894
1773047909875062800,9.559062744140626,0.15126743912696838,-0.03395527973771095,0.10186583548784256
1773047909885040600,9.56904052734375,0.16085481643676758,-0.02649843320250511,0.10506162792444229
1773047909894920700,9.578920654296875,0.16192007064819336,-0.012650005519390106,0.11145320534706116
1773047909904781000,9.588781005859374,0.16192007064819336,-0.009454214945435524,0.11145320534706116
1773047909914969900,9.598969970703125,0.15872427821159363,-0.014780532568693161,0.10612688958644867
1773047909924951600,9.60895166015625,0.14807164669036865,-0.013715269044041634,0.09760478138923645
1773047909934923500,9.618923583984374,0.13116058707237244,-0.02649843320250511,0.08908267319202423
1773047909944904200,9.628904296875,0.10985531657934189,-0.057391077280044556,0.07736477255821228
1773047909954877000,9.638876953125,0.07896266877651215,-0.08189214020967484,0.06671213358640671
1773047909964857000,9.648857177734374,0.04593949392437935,-0.08934898674488068,0.050733182579278946
1773047909974830600,9.65883056640625,0.01504684891551733,-0.08508793264627457,0.0294279083609581
1773047909984810000,9.66881005859375,-0.009454214945435524,-0.08402267098426819,0.004926844500005245
1773047909994784300,9.6787841796875,-0.02330264262855053,-0.0978710949420929,-0.0153131652623415
1773047910004763100,9.68876318359375,-0.0318247526884079,-0.1117195263504982,-0.024900536984205246
1773047910014738000,9.698738037109376,-0.04460791498422623,-0.12024163454771042,-0.0270310640335083
1773047910024716300,9.70871630859375,-0.06271740049123764,-0.138217955827713,-0.029161592945456505
1773047910034691300,9.71869140625,-0.0691089779138565,-0.16911059617996216,-0.0366184376180172
1773047910044669400,9.72866943359375,-0.05952160432934761,-0.19893798232078552,-0.0504668653011322
1773047910054645000,9.73864501953125,-0.04460791498422623,-0.22237378358840942,-0.06538055837154388
1773047910064622800,9.748622802734374,-0.03075948730111122,-0.23941799998283386,-0.07709845900535583
1773047910074503000,9.7585029296875,-0.01584579609334469,-0.25433170795440674,-0.08455529808998108
1773047910084363300,9.76836328125,-0.0019973693415522575,-0.2575274705886841,-0.08242477476596832
1773047910094358000,9.77835791015625,0.008655266836285591,-0.2468748539686203,-0.07177213579416275
1773047910104320300,9.7883203125,0.018242640420794487,-0.24580958485603333,-0.05259739235043526
1773047910114505700,9.798505615234374,0.02569948509335518,-0.23409168422222137,-0.03448791056871414
1773047910124490200,9.808490234375,0.03209106624126434,-0.21278640627861023,-0.02277000993490219
1773047910134459100,9.818459228515625,0.04593949392437935,-0.20746009051799774,-0.01850895583629608
1773047910144442400,9.8284423828125,0.06404897570610046,-0.2000032514333725,-0.02383527345955372
1773047910154322400,9.838322509765625,0.07576687633991241,-0.18189376592636108,-0.033422645181417465
1773047910164181500,9.848181396484375,0.08215846121311188,-0.15845796465873718,-0.04620581120252609
1773047910174366500,9.858366455078125,0.08428898453712463,-0.13715268671512604,-0.05898897349834442
1773047910184351500,9.8683515625,0.0810931921005249,-0.11811110377311707,-0.07709845900535583
1773047910194320100,9.878320068359375,0.08002793043851852,-0.08934898674488068,-0.08881635963916779
1773047910204303400,9.888303466796875,0.07683213800191879,-0.05099949613213539,-0.08668582886457443
1773047910214273500,9.8982734375,0.06511423736810684,-0.017976323142647743,-0.06857634335756302
1773047910224255700,9.908255859375,0.04487423226237297,-0.0019973693415522575,-0.03768370300531387
1773047910234227200,9.918227294921875,0.016112113371491432,0.012916321866214275,0.004926844500005245
1773047910244208400,9.92820849609375,-0.01584579609334469,0.027830012142658234,0.05819002538919449
1773047910254088200,9.938088134765625,-0.04780370742082596,0.042743705213069916,0.10399636626243591
1773047910263947800,9.94794775390625,-0.06591318547725677,0.048070020973682404,0.13062795996665955
1773047910274134300,9.95813427734375,-0.07337003201246262,0.039547912776470184,0.1423458606004715
1773047910284118000,9.968117919921875,-0.07017423957586288,0.03315633162856102,0.14128059148788452
1773047910293998000,9.977998046875,-0.06591318547725677,0.03209106624126434,0.13701952993869781
1773047910303857200,9.987857177734375,-0.06271740049123764,0.020373167470097542,0.12636689841747284
1773047910314041600,9.99804150390625,-0.053130023181438446,-0.0062584239058196545,0.10293109714984894
1773047910324027000,10.00802685546875,-0.03075948730111122,-0.03502054139971733,0.07203845679759979
1773047910333995000,10.0179951171875,-0.005193160381168127,-0.05206476151943207,0.04114580899477005
1773047910343979000,10.02797900390625,0.01504684891551733,-0.05845634266734123,0.004926844500005245
1773047910353948700,10.03794873046875,0.02889527566730976,-0.053130023181438446,-0.025965800508856773
1773047910363931100,10.04793115234375,0.039547912776470184,-0.04993423447012901,-0.04407528415322304
1773047910373902300,10.05790234375,0.04593949392437935,-0.04354264959692955,-0.05472791939973831
1773047910383883800,10.0678837890625,0.04593949392437935,-0.01904158666729927,-0.05685844644904137
1773047910393856000,10.07785595703125,0.03741738572716713,0.011851058341562748,-0.05898897349834442
1773047910403836400,10.08783642578125,0.026764748618006706,0.03635212033987045,-0.061119500547647476
1773047910413809700,10.0978095703125,0.02143843099474907,0.05446160212159157,-0.05792371183633804
1773047910423789300,10.107789306640624,0.01504684891551733,0.06085318699479103,-0.045140545815229416
1773047910433763300,10.117763427734374,0.0043942127376794815,0.0576573945581913,-0.016378428786993027
1773047910443742500,10.127742431640625,-0.010519478470087051,0.05446160212159157,0.018775271251797676
1773047910453717000,10.137717041015625,-0.02330264262855053,0.039547912776470184,0.052863709628582
1773047910463695400,10.1476953125,-0.029694223776459694,0.020373167470097542,0.07310371845960617
1773047910473670400,10.15767041015625,-0.029694223776459694,0.01078579481691122,0.07843003422021866
1773047910483648800,10.167648681640625,-0.020106852054595947,0.0043942127376794815,0.06777740269899368
1773047910493528800,10.17752880859375,-0.004127896390855312,-0.009454214945435524,0.052863709628582
1773047910503389000,10.187388916015625,0.009720530360937119,-0.03502054139971733,0.035819489508867264
1773047910513577500,10.197577392578125,0.019307903945446014,-0.053130023181438446,0.018775271251797676
1773047910523559400,10.207559326171875,0.02569948509335518,-0.053130023181438446,0.002796316985040903
1773047910533531100,10.21753125,0.026764748618006706,-0.04673844203352928,-0.012117373757064342
1773047910543512000,10.227511962890626,0.018242640420794487,-0.041412122547626495,-0.03235738351941109
1773047910553484800,10.23748486328125,0.02143843099474907,-0.04460791498422623,-0.04833633825182915
1773047910563465000,10.24746484375,0.02996053919196129,-0.048868969082832336,-0.0504668653011322
1773047910573438500,10.2574384765625,0.027830012142658234,-0.0456731803715229,-0.03555317223072052
1773047910583417900,10.26741796875,0.011851058341562748,-0.03502054139971733,-0.006791055668145418
1773047910593391900,10.277391845703125,-0.004127896390855312,-0.02756369672715664,0.02197106182575226
1773047910603371000,10.28737109375,-0.014780532568693161,-0.022237379103899002,0.03262370079755783
1773047910613345500,10.297345458984376,-0.016911059617996216,-0.01584579609334469,0.0294279083609581
1773047910623324200,10.30732421875,-0.010519478470087051,0.00013315795513335615,0.02090579830110073
1773047910633299200,10.31729931640625,-0.004127896390855312,0.018242640420794487,0.014514217153191566
1773047910643277300,10.32727734375,0.0033289489801973104,0.023568958044052124,0.014514217153191566
1773047910653252900,10.3372529296875,0.008655266836285591,0.018242640420794487,0.026232117787003517
1773047910663230700,10.347230712890624,0.012916321866214275,0.013981585390865803,0.03688475489616394
1773047910673206500,10.35720654296875,0.01078579481691122,0.018242640420794487,0.04221107065677643
1773047910683184000,10.36718408203125,0.007590003311634064,0.027830012142658234,0.03262370079755783
1773047910693160000,10.377159912109375,0.011851058341562748,0.02996053919196129,0.010253162123262882
1773047910703137500,10.387137451171874,0.019307903945446014,0.023568958044052124,-0.0153131652623415
1773047910713113600,10.397113525390624,0.022503694519400597,0.020373167470097542,-0.029161592945456505
1773047910723091000,10.407091064453125,0.013981585390865803,0.01717737689614296,-0.020639482885599136
1773047910733067300,10.4170673828125,0.0022636852227151394,0.008655266836285591,-0.004660528618842363
1773047910743044400,10.42704443359375,-0.009454214945435524,0.00013315795513335615,0.009187898598611355
1773047910753020700,10.437020751953124,-0.016911059617996216,0.0033289489801973104,0.012383690103888512
1773047910762998000,10.446998046875,-0.020106852054595947,0.02143843099474907,0.012383690103888512
1773047910772877800,10.4568779296875,-0.022237379103899002,0.04061317816376686,0.012383690103888512
1773047910782738200,10.46673828125,-0.02330264262855053,0.048070020973682404,0.018775271251797676
1773047910792734000,10.47673388671875,-0.022237379103899002,0.04487423226237297,0.031558435410261154
1773047910802695400,10.4866953125,-0.021172115579247475,0.02996053919196129,0.04008054360747337
1773047910812881400,10.49688134765625,-0.020106852054595947,0.013981585390865803,0.04114580899477005
1773047910822865700,10.50686572265625,-0.012650005519390106,0.009720530360937119,0.030493171885609627
1773047910832835000,10.5168349609375,-0.003062632866203785,0.0022636852227151394,0.004926844500005245
1773047910842817800,10.52681787109375,0.01078579481691122,-0.017976323142647743,-0.017443692311644554
1773047910852788700,10.536788818359375,0.023568958044052124,-0.0318247526884079,-0.028096329420804977
1773047910862770200,10.546770263671876,0.026764748618006706,-0.0318247526884079,-0.025965800508856773
1773047910872742100,10.5567421875,0.020373167470097542,-0.03608580678701401,-0.01957421936094761
1773047910882722800,10.566722900390625,0.013981585390865803,-0.04673844203352928,-0.0153131652623415
1773047910892695800,10.57669580078125,0.0022636852227151394,-0.04673844203352928,-0.01957421936094761
1773047910902675700,10.58667578125,0.00013315795513335615,-0.032890014350414276,-0.029161592945456505
1773047910912649500,10.5966494140625,0.0043942127376794815,-0.016911059617996216,-0.0366184376180172
1773047910922628900,10.60662890625,0.008655266836285591,-0.008388951420783997,-0.03448791056871414
1773047910932603100,10.61660302734375,0.007590003311634064,-0.009454214945435524,-0.01850895583629608
1773047910942581800,10.626581787109375,0.0043942127376794815,-0.005193160381168127,0.009187898598611355
1773047910952461800,10.6364619140625,-0.0009321057004854083,0.02143843099474907,0.04221107065677643
1773047910962321700,10.64632177734375,-0.010519478470087051,0.06191844865679741,0.06990792602300644
1773047910972510000,10.656510009765626,-0.01584579609334469,0.09387636184692383,0.0858868807554245
1773047910982492400,10.666492431640625,-0.011584741994738579,0.10346373170614243,0.08908267319202423
1773047910992463600,10.676463623046875,-0.003062632866203785,0.0949416235089302,0.09014793485403061
1773047911002444800,10.68644482421875,-0.003062632866203785,0.07896266877651215,0.09653951972723007
1773047911012417300,10.696417236328125,-0.007323687430471182,0.06937529146671295,0.10612688958644867
1773047911022397700,10.706397705078125,-0.016911059617996216,0.05659212917089462,0.10825742036104202
1773047911032371000,10.716370849609374,-0.02330264262855053,0.04487423226237297,0.10080057382583618
1773047911042350600,10.7263505859375,-0.022237379103899002,0.039547912776470184,0.07736477255821228
1773047911052324600,10.73632470703125,-0.013715269044041634,0.03635212033987045,0.04434159770607948
1773047911062303700,10.7463037109375,-0.005193160381168127,0.02889527566730976,0.011318426579236984
1773047911072278300,10.7562783203125,0.0022636852227151394,0.006524739786982536,-0.012117373757064342
1773047911082257000,10.7662568359375,0.008655266836285591,-0.022237379103899002,-0.021704746410250664
1773047911092231700,10.776231689453125,0.008655266836285591,-0.03502054139971733,-0.020639482885599136
1773047911102210000,10.7862099609375,0.0011984215816482902,-0.02649843320250511,-0.016378428786993027
1773047911112185300,10.796185302734376,-0.011584741994738579,-0.007323687430471182,-0.020639482885599136
1773047911122163200,10.8061630859375,-0.01584579609334469,0.007590003311634064,-0.033422645181417465
1773047911132139000,10.816138916015625,-0.010519478470087051,0.011851058341562748,-0.04833633825182915
1773047911142116600,10.82611669921875,-0.004127896390855312,0.012916321866214275,-0.04833633825182915
1773047911152093400,10.836093505859376,-0.004127896390855312,0.016112113371491432,-0.0270310640335083
1773047911162069500,10.846069580078124,-0.011584741994738579,0.018242640420794487,0.004926844500005245
1773047911172046800,10.856046875,-0.01904158666729927,0.018242640420794487,0.030493171885609627
1773047911182023000,10.86602294921875,-0.01904158666729927,0.019307903945446014,0.04008054360747337
1773047911192000300,10.876000244140625,-0.017976323142647743,0.026764748618006706,0.035819489508867264
1773047911201976600,10.8859765625,-0.012650005519390106,0.042743705213069916,0.024101590737700462
1773047911211954000,10.895953857421874,-0.004127896390855312,0.05339634045958519,0.012383690103888512
1773047911221930200,10.90593017578125,-0.003062632866203785,0.048070020973682404,0.008122635073959827
1773047911231907300,10.9159072265625,-0.0062584239058196545,0.039547912776470184,0.011318426579236984
1773047911241883600,10.925883544921875,-0.011584741994738579,0.047004759311676025,0.019840534776449203
1773047911251860700,10.93586083984375,-0.01904158666729927,0.06298371404409409,0.024101590737700462
1773047911261837300,10.94583740234375,-0.024367906153202057,0.07470161467790604,0.02090579830110073
1773047911271814400,10.955814453125,-0.016911059617996216,0.07257108390331268,0.011318426579236984
1773047911281791000,10.965791015625,-0.004127896390855312,0.05339634045958519,0.004926844500005245
1773047911291767800,10.975767822265626,0.0043942127376794815,0.02889527566730976,0.008122635073959827
1773047911301744400,10.985744384765624,0.007590003311634064,0.011851058341562748,0.015579480677843094
1773047911311721500,10.995721435546875,0.0011984215816482902,-0.005193160381168127,0.019840534776449203
1773047911321698000,11.005697998046875,-0.005193160381168127,-0.022237379103899002,0.01771000772714615
1773047911331675000,11.0156748046875,-0.004127896390855312,-0.028628960251808167,0.002796316985040903
1773047911341651700,11.025651611328126,0.005459476262331009,-0.022237379103899002,-0.0153131652623415
1773047911351628500,11.035628662109374,0.013981585390865803,-0.013715269044041634,-0.025965800508856773
1773047911361566500,11.04556640625,0.019307903945446014,-0.017976323142647743,-0.02383527345955372
1773047911371539500,11.05553955078125,0.02463422156870365,-0.028628960251808167,-0.012117373757064342
1773047911381558800,11.065558837890626,0.020373167470097542,-0.03395527973771095,0.004926844500005245
1773047911391536400,11.075536376953124,0.007590003311634064,-0.017976323142647743,0.02197106182575226
1773047911401512400,11.085512451171875,-0.0062584239058196545,0.007590003311634064,0.0294279083609581
1773047911411489800,11.09548974609375,-0.013715269044041634,0.020373167470097542,0.026232117787003517
1773047911421465900,11.1054658203125,-0.008388951420783997,0.016112113371491432,0.01664474420249462
1773047911431443200,11.115443115234376,-0.0019973693415522575,0.008655266836285591,0.011318426579236984
1773047911441419500,11.12541943359375,-0.0009321057004854083,0.0033289489801973104,0.011318426579236984
1773047911451396900,11.13539697265625,-0.008388951420783997,-0.0009321057004854083,0.01664474420249462
1773047911461334300,11.145334228515624,-0.017976323142647743,-0.007323687430471182,0.015579480677843094
1773047911471307500,11.1553076171875,-0.01584579609334469,-0.0062584239058196545,0.0017310534603893757
1773047911481326600,11.16532666015625,-0.004127896390855312,0.009720530360937119,-0.01318263728171587
1773047911491304400,11.175304443359375,0.0033289489801973104,0.026764748618006706,-0.021704746410250664
1773047911501280300,11.1852802734375,0.009720530360937119,0.02463422156870365,-0.020639482885599136
1773047911511257900,11.1952578125,0.016112113371491432,0.0022636852227151394,-0.00892158318310976
1773047911521234000,11.20523388671875,0.020373167470097542,-0.016911059617996216,0.009187898598611355
1773047911531211300,11.215211181640624,0.01717737689614296,-0.012650005519390106,0.030493171885609627
1773047911541187600,11.2251875,0.005459476262331009,0.008655266836285591,0.04540686309337616
1773047911551165000,11.2351650390625,-0.003062632866203785,0.035286858677864075,0.04540686309337616
1773047911561141000,11.24514111328125,-0.003062632866203785,0.042743705213069916,0.034754227846860886
1773047911571118300,11.255118408203124,-0.0019973693415522575,0.0342215932905674,0.028362644836306572
1773047911581094700,11.2650947265625,-0.005193160381168127,0.03315633162856102,0.03368896245956421
1773047911591071700,11.27507177734375,-0.012650005519390106,0.042743705213069916,0.04540686309337616
1773047911601048300,11.28504833984375,-0.028628960251808167,0.04487423226237297,0.052863709628582
1773047911611025200,11.295025146484376,-0.04354264959692955,0.042743705213069916,0.04860265180468559
1773047911621001700,11.305001708984374,-0.03608580678701401,0.047004759311676025,0.03368896245956421
1773047911630978800,11.314978759765625,-0.01904158666729927,0.05659212917089462,0.01771000772714615
1773047911640955400,11.324955322265625,-0.007323687430471182,0.058722659945487976,0.004926844500005245
1773047911650932500,11.334932373046875,-0.003062632866203785,0.043808966875076294,0.0017310534603893757
1773047911660908800,11.34490869140625,0.0043942127376794815,0.019307903945446014,0.012383690103888512
1773047911670886000,11.354885986328124,0.005459476262331009,-0.0009321057004854083,0.028362644836306572
1773047911680862500,11.364862548828125,-0.0009321057004854083,-0.0062584239058196545,0.04114580899477005
1773047911690839300,11.37483935546875,-0.007323687430471182,0.00013315795513335615,0.039015281945466995
1773047911700816100,11.384816162109376,-0.005193160381168127,0.00013315795513335615,0.023036325350403786
1773047911710793000,11.39479296875,0.0022636852227151394,-0.009454214945435524,0.0017310534603893757
1773047911720769800,11.404769775390625,0.006524739786982536,-0.01904158666729927,-0.011052110232412815
1773047911730746600,11.41474658203125,-0.0009321057004854083,-0.01904158666729927,-0.00892158318310976
1773047911740684300,11.424684326171874,-0.013715269044041634,-0.01584579609334469,-0.0025300011038780212
1773047911750657300,11.4346572265625,-0.02330264262855053,-0.01584579609334469,-0.004660528618842363
1773047911760638000,11.444637939453125,-0.02756369672715664,-0.007323687430471182,-0.0153131652623415
1773047911770611700,11.45461181640625,-0.02756369672715664,0.012916321866214275,-0.028096329420804977
1773047911780591600,11.464591552734374,-0.02756369672715664,0.02569948509335518,-0.03235738351941109
1773047911790566000,11.47456591796875,-0.02649843320250511,0.027830012142658234,-0.024900536984205246
1773047911800545000,11.484544921875,-0.02330264262855053,0.016112113371491432,-0.004660528618842363
1773047911810519800,11.494519775390625,-0.020106852054595947,0.00013315795513335615,0.024101590737700462
1773047911820498700,11.504498779296876,-0.017976323142647743,-0.007323687430471182,0.04434159770607948
1773047911830474000,11.514473876953126,-0.016911059617996216,-0.0062584239058196545,0.04860265180468559
1773047911840452400,11.524452392578125,-0.009454214945435524,0.0011984215816482902,0.039015281945466995
1773047911850428000,11.534427978515625,0.005459476262331009,0.0043942127376794815,0.023036325350403786
1773047911860444700,11.544444580078125,0.018242640420794487,0.00013315795513335615,0.0070573715493083
1773047911870424300,11.55442431640625,0.02143843099474907,-0.0062584239058196545,-0.0003994738799519837
1773047911880398000,11.564398193359375,0.016112113371491432,-0.016911059617996216,0.0017310534603893757
1773047911890377200,11.574377197265624,0.006524739786982536,-0.01584579609334469,0.009187898598611355
1773047911900313000,11.58431298828125,0.00013315795513335615,-0.0009321057004854083,0.015579480677843094
1773047911910287600,11.59428759765625,-0.007323687430471182,0.02143843099474907,0.02197106182575226
1773047911920227800,11.604227783203125,-0.01584579609334469,0.03848264738917351,0.031558435410261154
1773047911930199000,11.614198974609375,-0.020106852054595947,0.027830012142658234,0.03795001655817032
1773047911940142600,11.624142578125,-0.016911059617996216,-0.0062584239058196545,0.04647212475538254
1773047911950111000,11.634111083984376,-0.010519478470087051,-0.03608580678701401,0.050733182579278946
1773047911959991000,11.643990966796874,-0.007323687430471182,-0.041412122547626495,0.054994236677885056
1773047911969870800,11.653870849609374,-0.0062584239058196545,-0.02330264262855053,0.04860265180468559
1773047911979971800,11.663971923828125,-0.004127896390855312,-0.003062632866203785,0.030493171885609627
1773047911989938200,11.673938232421875,0.007590003311634064,-0.0009321057004854083,0.005992108024656773
1773047911999886600,11.683886474609375,0.020373167470097542,-0.012650005519390106,-0.017443692311644554
1773047912009851100,11.69385107421875,0.026764748618006706,-0.024367906153202057,-0.029161592945456505
1773047912020031000,11.704031005859376,0.022503694519400597,-0.0318247526884079,-0.02277000993490219
1773047912030076400,11.714076416015626,0.011851058341562748,-0.03502054139971733,-0.01850895583629608
1773047912039956500,11.72395654296875,0.008655266836285591,-0.03075948730111122,-0.01957421936094761
1773047912049836500,11.73383642578125,0.00013315795513335615,-0.013715269044041634,-0.024900536984205246
1773047912059716400,11.74371630859375,-0.003062632866203785,0.011851058341562748,-0.030226856470108032
1773047912069600500,11.7536005859375,0.00013315795513335615,0.022503694519400597,-0.025965800508856773
1773047912079506400,11.76350634765625,-0.0019973693415522575,0.018242640420794487,-0.007856319658458233
1773047912089470200,11.77347021484375,-0.007323687430471182,0.005459476262331009,0.019840534776449203
1773047912099421200,11.783421142578124,-0.014780532568693161,-0.0009321057004854083,0.050733182579278946
1773047912109383700,11.7933837890625,-0.025433169677853584,0.0043942127376794815,0.07203845679759979
1773047912119336000,11.8033359375,-0.03075948730111122,0.01717737689614296,0.07310371845960617
1773047912129297400,11.81329736328125,-0.024367906153202057,0.016112113371491432,0.056059498339891434
1773047912139250700,11.823250732421876,-0.012650005519390106,0.0022636852227151394,0.034754227846860886
1773047912149211400,11.83321142578125,0.00013315795513335615,-0.009454214945435524,0.011318426579236984
1773047912159126800,11.843126708984375,0.0043942127376794815,-0.02330264262855053,-0.004660528618842363
1773047912169083000,11.853082763671875,0.006524739786982536,-0.03821633383631706,-0.02383527345955372
1773047912179003000,11.8630029296875,0.013981585390865803,-0.05206476151943207,-0.04833633825182915
1773047912188955400,11.872955322265625,0.02569948509335518,-0.05419528856873512,-0.07283740490674973
1773047912198956000,11.8829560546875,0.03741738572716713,-0.048868969082832336,-0.08775109052658081
1773047912208913400,11.892913330078125,0.043808966875076294,-0.04780370742082596,-0.08988162130117416
1773047912219093500,11.903093505859376,0.043808966875076294,-0.06697845458984375,-0.08135951310396194
1773047912229273300,11.9132734375,0.03848264738917351,-0.09254477918148041,-0.061119500547647476
1773047912239453400,11.923453369140624,0.031025802716612816,-0.0978710949420929,-0.040879491716623306
1773047912249559000,11.93355908203125,0.01504684891551733,-0.0648479238152504,-0.0270310640335083
1773047912259515600,11.943515625,-0.007323687430471182,-0.017976323142647743,-0.020639482885599136
1773047912269508600,11.953508544921876,-0.022237379103899002,0.02463422156870365,-0.01957421936094761
1773047912279469300,11.96346923828125,-0.01904158666729927,0.06191844865679741,-0.02383527345955372
1773047912289459200,11.973459228515624,-0.01584579609334469,0.08322372287511826,-0.01957421936094761
1773047912299423000,11.983423095703126,-0.017976323142647743,0.08961530029773712,-0.0025300011038780212
1773047912309410000,11.99341015625,-0.024367906153202057,0.07470161467790604,0.013448953628540039
1773047912319376600,12.003376708984375,-0.025433169677853584,0.058722659945487976,0.01771000772714615
1773047912329361700,12.013361572265625,-0.014780532568693161,0.058722659945487976,0.005992108024656773
1773047912339330300,12.023330322265625,-0.0019973693415522575,0.07044056057929993,-0.011052110232412815
1773047912349313800,12.033313720703125,0.005459476262331009,0.07363634556531906,-0.030226856470108032
1773047912359284000,12.043283935546874,0.01078579481691122,0.0576573945581913,-0.04301001876592636
1773047912369266000,12.053265869140626,0.006524739786982536,0.023568958044052124,-0.04194475710391998
1773047912379237600,12.063237548828125,0.005459476262331009,0.009720530360937119,-0.030226856470108032
1773047912389218600,12.073218505859375,0.0033289489801973104,0.01504684891551733,-0.01957421936094761
1773047912399191000,12.08319091796875,-0.003062632866203785,0.026764748618006706,-0.0153131652623415
1773047912409171200,12.093171142578125,-0.008388951420783997,0.06191844865679741,-0.01318263728171587
1773047912419144700,12.103144775390625,-0.010519478470087051,0.09387636184692383,-0.011052110232412815
1773047912429124000,12.1131240234375,-0.010519478470087051,0.10879004746675491,-0.00892158318310976
1773047912439098400,12.123098388671876,-0.011584741994738579,0.11198583990335464,0.005992108024656773
1773047912449077200,12.1330771484375,-0.01904158666729927,0.10985531657934189,0.02090579830110073
1773047912459051800,12.1430517578125,-0.02756369672715664,0.10559425503015518,0.028362644836306572
1773047912469030400,12.153030517578125,-0.02756369672715664,0.10879004746675491,0.027297381311655045
1773047912479005400,12.16300537109375,-0.01584579609334469,0.11624689400196075,0.019840534776449203
1773047912488983600,12.172983642578124,0.0022636852227151394,0.11092057824134827,0.011318426579236984
1773047912498959000,12.182958984375,0.02463422156870365,0.07683213800191879,0.011318426579236984
1773047912508937000,12.19293701171875,0.048070020973682404,0.01078579481691122,0.01771000772714615
1773047912518912500,12.20291259765625,0.07044056057929993,-0.05845634266734123,0.031558435410261154
1773047912528890400,12.212890380859376,0.08855003863573074,-0.10958899557590485,0.047537390142679214
1773047912538866200,12.2228662109375,0.09600688517093658,-0.14460954070091248,0.052863709628582
1773047912548843800,12.23284375,0.08961530029773712,-0.16378428041934967,0.04540686309337616
1773047912558819800,12.24281982421875,0.09174583107233047,-0.17869797348976135,0.03262370079755783
1773047912568797200,12.252797119140626,0.10985531657934189,-0.2181127369403839,-0.005725792143493891
1773047912578773200,12.262773193359376,0.12689952552318573,-0.2330264151096344,-0.06751108169555664
1773047912588750600,12.27275048828125,0.1363537460565567,-0.20213377475738525,-0.11544794589281082
1773047912598727000,12.282726806640625,0.12903006374835968,-0.13715268671512604,-0.1537974327802658
1773047912608704000,12.2927041015625,0.10346373170614243,-0.057391077280044556,-0.17190691828727722
1773047912618680600,12.3026806640625,0.06831002980470657,0.02143843099474907,-0.1729721873998642
1773047912628657700,12.31265771484375,0.02143843099474907,0.08641951531171799,-0.15805849432945251
1773047912638634000,12.322634033203125,-0.022237379103899002,0.13648690283298492,-0.12503531575202942
1773047912648611000,12.332611083984375,-0.057391077280044556,0.18548902869224548,-0.07709845900535583
1773047912658587600,12.342587646484375,-0.0786963477730751,0.246209055185318,-0.01318263728171587
1773047912668564500,12.352564453125,-0.09467530250549316,0.3069290816783905,0.056059498339891434
1773047912678541000,12.362541015625,-0.10532794147729874,0.36551859974861145,0.11038794368505478
1773047912688518100,12.37251806640625,-0.11598058044910431,0.40266966819763184,0.13915006816387177
1773047912698398200,12.382398193359375,-0.1255679577589035,0.3996070325374603,0.16471639275550842
1773047912708258600,12.392258544921875,-0.11278478801250458,0.3761712312698364,0.17323850095272064
1773047912718448000,12.4024482421875,-0.09467530250549316,0.35699647665023804,0.16897743940353394
1773047912728429300,12.41242919921875,-0.102132149040699,0.33249542117118835,0.15939007699489594
1773047912738401800,12.42240185546875,-0.13195952773094177,0.31971225142478943,0.14447638392448425
1773047912748382000,12.4323818359375,-0.1628521829843521,0.311190128326416,0.11251847445964813
1773047912758355500,12.44235546875,-0.18096165359020233,0.2973417043685913,0.056059498339891434
1773047912768334800,12.4523349609375,-0.186287984251976,0.311190128326416,-0.0270310640335083
1773047912778308900,12.462308837890625,-0.18415744602680206,0.359127014875412,-0.12077426165342331
1773047912788288000,12.4722880859375,-0.18096165359020233,0.4197138845920563,-0.1921469271183014
1773047912798262500,12.482262451171875,-0.15965639054775238,0.4048001766204834,-0.22090904414653778
1773047912808241200,12.4922412109375,-0.12876373529434204,0.2941459119319916,-0.23156169056892395
