time,seconds_elapsed,z,y,x
1773049362498112500,0.278112548828125,0,0,0
1773049362518058500,0.29805859375,0.1197805404663086,-0.024204373359680176,0.1560063362121582
1773049362538021000,0.318021240234375,-0.048816680908203125,0.052765488624572754,-0.2017383873462677
1773049362547980800,0.327980712890625,-0.06867408752441406,0.048106491565704346,-0.11491715908050537
1773049362557974800,0.337974853515625,0.10120105743408203,-0.06559056043624878,-0.04929611086845398
1773049362567948300,0.3479482421875,0.15141010284423828,0.055258333683013916,0.0062812864780426025
1773049362577928700,0.3579287109375,-0.32927989959716797,0.06260073184967041,-0.31424593925476074
1773049362587905000,0.367905029296875,0.05695533752441406,-0.0471043586730957,0.1066727340221405
1773049362597921300,0.37792138671875,0.19981861114501953,-0.12175452709197998,0.44368207454681396
1773049362607913700,0.387913818359375,-0.018583297729492188,0.0024853944778442383,-0.11433422565460205
1773049362617875700,0.397875732421875,0.009253501892089844,0.10411655902862549,0.05158442258834839
1773049362627856000,0.40785595703125,0.05740070343017578,0.07924848794937134,-0.25645911693573
1773049362637753000,0.417753173828125,-0.13416194915771484,0.09163463115692139,-0.37756213545799255
1773049362647699700,0.42769970703125,-0.12121105194091797,-0.11611944437026978,0.05286300182342529
1773049362657706200,0.437706298828125,0.2915525436401367,-0.09686708450317383,0.4217110872268677
1773049362667677400,0.447677490234375,-0.13153362274169922,0.022027194499969482,0.016480952501296997
1773049362677583600,0.45758349609375,-0.19272136688232422,0.12565100193023682,-0.09592145681381226
1773049362687528400,0.467528564453125,0.21253204345703125,0.014320135116577148,0.11141672730445862
1773049362697408500,0.477408447265625,-0.03460979461669922,-0.03616613149642944,-0.23782996833324432
1773049362707288600,0.48728857421875,-0.051342010498046875,0.06571054458618164,-0.1264244019985199
1773049362717448400,0.497448486328125,-0.021600723266601562,-0.0189211368560791,-0.001506716012954712
1773049362727484400,0.507484375,0.029767990112304688,0.018258094787597656,-0.04299050569534302
1773049362737290800,0.517290771484375,-0.09543704986572266,-0.0740354061126709,0.17318063974380493
1773049362747233000,0.52723291015625,0.17988204956054688,-0.04428166151046753,0.43722468614578247
1773049362757281000,0.537281005859375,0.150177001953125,0.031199097633361816,-0.026408284902572632
1773049362767266800,0.547266845703125,-0.20615577697753906,0.1419697105884552,-0.34634512662887573
1773049362777159700,0.55715966796875,-0.018863677978515625,0.03995943069458008,-0.20705264806747437
1773049362787107600,0.567107666015625,0.05128955841064453,-0.12360066175460815,0.1493968367576599
1773049362797074400,0.577074462890625,0.012666702270507812,-0.013749301433563232,0.06276002526283264
1773049362807030000,0.587030029296875,-0.015504837036132812,-0.00790715217590332,0.19980770349502563
1773049362816989700,0.59698974609375,0.11487007141113281,0.08031868934631348,0.2420211136341095
1773049362826945500,0.606945556640625,-0.0511322021484375,0.0596354603767395,-0.33720892667770386
1773049362836904700,0.61690478515625,-0.11948776245117188,0.03474777936935425,0.026895344257354736
1773049362846861000,0.626861083984375,0.26551342010498047,-0.05539834499359131,0.06363829970359802
1773049362856820000,0.636820068359375,-0.3099508285522461,0.07267427444458008,-0.2933178246021271
1773049362866776600,0.646776611328125,-0.11536216735839844,0.0381087064743042,-0.0652017593383789
1773049362876735000,0.65673486328125,0.13490581512451172,-0.1263875961303711,0.3600890338420868
1773049362886691800,0.66669189453125,-0.045764923095703125,-0.030187249183654785,0.227024108171463
1773049362896573200,0.6765732421875,0.16089534759521484,0.03144347667694092,0.034955382347106934
1773049362906522400,0.6865224609375,-0.08612442016601562,0.11550211906433105,-0.18231770396232605
1773049362916488400,0.696488525390625,-0.1262378692626953,0.07109487056732178,-0.317440927028656
1773049362926439200,0.706439208984375,-0.2169046401977539,0.008330881595611572,-0.20882222056388855
1773049362936480300,0.716480224609375,0.18125438690185547,-0.1656179428100586,0.31842440366744995
1773049362946440400,0.7264404296875,0.15863037109375,-0.021716654300689697,0.3476097583770752
1773049362956620300,0.736620361328125,-0.31803226470947266,0.12493506073951721,-0.22201097011566162
1773049362966800400,0.74680029296875,0.17604637145996094,0.019051849842071533,0.12802985310554504
1773049362976980500,0.75698046875,0.008296966552734375,-0.014193534851074219,0.012481689453125
1773049362987046000,0.7670458984375,0.0034990310668945312,-0.004653334617614746,-0.3223286271095276
1773049362997003000,0.7770029296875,-0.02952289581298828,0.009707272052764893,-0.027560800313949585
1773049363006996000,0.786995849609375,-0.010142326354980469,-0.03705787658691406,-0.012990087270736694
1773049363016957200,0.796957275390625,0.008879661560058594,-0.022787272930145264,-0.014204144477844238
1773049363026947000,0.806947021484375,0.08398628234863281,-0.11137694120407104,0.266876757144928
1773049363036911400,0.816911376953125,0.36916637420654297,0.02624058723449707,0.2437596321105957
1773049363046898700,0.826898681640625,-0.16881465911865234,0.12572166323661804,-0.42765161395072937
1773049363056904200,0.836904296875,-0.06719779968261719,0.09547185897827148,-0.2665995955467224
1773049363066893600,0.8468935546875,0.10334968566894531,-0.09022742509841919,0.029513776302337646
1773049363076819500,0.8568193359375,0.0076084136962890625,-0.13138341903686523,0.06308931112289429
1773049363086802400,0.866802490234375,0.026323318481445312,-0.025834739208221436,0.09453600645065308
1773049363096773600,0.876773681640625,-0.0070953369140625,0.045803070068359375,0.13649624586105347
1773049363106755300,0.88675537109375,0.12947654724121094,0.07255232334136963,-0.10024559497833252
1773049363116727800,0.896727783203125,-0.15513134002685547,0.02953934669494629,-0.23570041358470917
1773049363126708500,0.90670849609375,0.09691524505615234,0.014172494411468506,0.13644781708717346
1773049363136682000,0.916681884765625,0.0294036865234375,0.0232202410697937,-0.17255637049674988
1773049363146662000,0.926661865234375,-0.38539791107177734,0.10377860069274902,-0.45664116740226746
1773049363156542000,0.9365419921875,0.08707332611083984,-0.0631711483001709,0.3012053072452545
1773049363166359600,0.946359619140625,-0.0036792755126953125,-0.08096915483474731,0.48589447140693665
1773049363176539600,0.95653955078125,-0.0035543441772460938,0.056279897689819336,0.056600600481033325
1773049363186573800,0.96657373046875,-0.10240745544433594,0.11773872375488281,-0.07400843501091003
1773049363196544000,0.9765439453125,-0.039656639099121094,0.18647539615631104,-0.2293727844953537
1773049363206526700,0.986526611328125,-0.09542560577392578,0.061431050300598145,-0.3205838203430176
1773049363216498200,0.996498291015625,-0.03722953796386719,-0.01514512300491333,0.21445855498313904
1773049363226479600,1.006479736328125,0.21776771545410156,-0.05760157108306885,0.3259007930755615
1773049363236452400,1.016452392578125,-0.15303993225097656,0.024079203605651855,-0.033657729625701904
1773049363246433000,1.02643310546875,-0.009366035461425781,0.08997833728790283,-0.13348698616027832
1773049363256406300,1.03640625,0.2591428756713867,0.01802140474319458,0.17575114965438843
1773049363266386200,1.04638623046875,-0.02761077880859375,0.036116957664489746,-0.3190690279006958
1773049363276360400,1.0563603515625,-0.06949043273925781,0.06455814838409424,-0.22403132915496826
1773049363286339800,1.06633984375,0.0022268295288085938,0.044931232929229736,0.11579468846321106
1773049363296219600,1.0762197265625,0.14823532104492188,-0.14888644218444824,0.07454368472099304
1773049363306037500,1.08603759765625,-0.10841751098632812,-0.08541464805603027,0.35857656598091125
1773049363316035800,1.096035888671875,0.23239898681640625,-0.046766698360443115,0.23922044038772583
1773049363325995800,1.105995849609375,0.16254234313964844,0.12368842959403992,0.02480214834213257
1773049363336175600,1.116175537109375,-0.23102092742919922,0.1081954836845398,-0.43535107374191284
1773049363346209500,1.12620947265625,-0.015383720397949219,-0.016364753246307373,-0.07807797193527222
1773049363356176400,1.13617626953125,0.11676216125488281,-0.1440533995628357,0.19424784183502197
1773049363366161700,1.14616162109375,0.039595603942871094,-0.01965278387069702,0.12219768762588501
1773049363376130600,1.156130615234375,-0.1964702606201172,0.009407997131347656,0.1815212368965149
1773049363386114000,1.166114013671875,0.046844482421875,-0.005008041858673096,-0.05045488476753235
1773049363396084700,1.176084716796875,-0.10463523864746094,-0.014363229274749756,0.0026403963565826416
1773049363406067000,1.18606689453125,-0.046356201171875,-0.028276145458221436,-0.22408133745193481
1773049363416039000,1.196038818359375,0.10031986236572266,0.01905125379562378,0.14317649602890015
1773049363426020000,1.20602001953125,-0.26856040954589844,0.02884155511856079,-0.259793758392334
1773049363435992800,1.215992919921875,-0.0993051528930664,-0.05149853229522705,0.06538987159729004
1773049363445973200,1.22597314453125,0.2460956573486328,-0.1594778299331665,0.614127516746521
1773049363455947000,1.235947021484375,-0.021531105041503906,0.012962639331817627,-0.14276951551437378
1773049363465926700,1.2459267578125,-0.054279327392578125,0.14025363326072693,-0.05694770812988281
1773049363475901200,1.255901123046875,0.02188396453857422,0.0680685043334961,-0.2511783242225647
1773049363485880300,1.26588037109375,-0.0867757797241211,0.05729192495346069,-0.28030556440353394
1773049363495760400,1.275760498046875,-0.024017333984375,-0.15556597709655762,0.06603890657424927
1773049363515576300,1.295576416015625,0.04100799560546875,-0.05759960412979126,0.12955507636070251
1773049363525536500,1.30553662109375,-0.11509227752685547,0.12747642397880554,-0.22448405623435974
1773049363535716400,1.31571630859375,0.10802555084228516,0.012209594249725342,0.1484355628490448
1773049363545750000,1.32575,0.16277217864990234,-0.025898873805999756,-0.0718199610710144
1773049363555717400,1.33571728515625,-0.13186359405517578,0.1112586259841919,-0.3012971878051758
1773049363565702400,1.345702392578125,-0.026106834411621094,0.025238513946533203,-0.045344024896621704
1773049363575671300,1.35567138671875,0.0779104232788086,-0.060456275939941406,0.0349145233631134
1773049363585654800,1.36565478515625,-0.11631011962890625,-0.12549233436584473,0.11629199981689453
1773049363595534800,1.375534912109375,0.036266326904296875,0.022026002407073975,0.14734748005867004
1773049363605352000,1.38535205078125,0.14857769012451172,-0.006333649158477783,-0.15903928875923157
1773049363615531800,1.39553173828125,-0.08938121795654297,0.0837165117263794,-0.333620548248291
1773049363625565700,1.405565673828125,-0.17737388610839844,0.006962001323699951,-0.41716304421424866
1773049363635533600,1.415533447265625,0.18345260620117188,-0.14907681941986084,0.2573331892490387
1773049363645518000,1.42551806640625,0.16164875030517578,-0.06708139181137085,0.1516670286655426
1773049363655487700,1.43548779296875,-0.11875247955322266,-0.032125115394592285,-0.025959551334381104
1773049363665470700,1.445470703125,0.06674671173095703,0.04831802845001221,0.10377553105354309
1773049363675442000,1.45544189453125,0.07980918884277344,-0.02765798568725586,-0.13887163996696472
1773049363685423600,1.465423583984375,-0.1474761962890625,0.001129746437072754,-0.189424067735672
1773049363695303700,1.4753037109375,0.07155799865722656,-0.017749786376953125,-0.025826364755630493
1773049363705121000,1.48512109375,-0.037871360778808594,0.03942328691482544,-0.06381908059120178
1773049363715301000,1.495301025390625,-0.2302093505859375,0.0014955401420593262,-0.24757446348667145
1773049363725335000,1.5053349609375,0.1738739013671875,-0.10715550184249878,0.5279970169067383
1773049363735304000,1.515303955078125,0.1710796356201172,0.0023936033248901367,0.24800941348075867
1773049363745287700,1.52528759765625,-0.09070873260498047,0.13476815819740295,-0.2269495725631714
1773049363755258000,1.535258056640625,-0.11289691925048828,0.2130446434020996,-0.0310230553150177
1773049363765240600,1.545240478515625,0.0020046234130859375,0.04456979036331177,-0.20517918467521667
1773049363775212300,1.55521240234375,-0.2992668151855469,0.034088313579559326,0.07336369156837463
1773049363785193500,1.565193359375,-0.09647941589355469,-0.06087154150009155,0.21704888343811035
1773049363795166500,1.57516650390625,0.03220653533935547,0.038996875286102295,0.4263804852962494
1773049363805147000,1.58514697265625,-0.17080211639404297,0.10003513097763062,-0.08389514684677124
1773049363815120400,1.595120361328125,-0.18212032318115234,0.08933544158935547,-0.07651659846305847
1773049363825100300,1.605100341796875,0.225738525390625,0.002364516258239746,0.2463231086730957
1773049363835074600,1.615074462890625,0.12314510345458984,0.021341145038604736,-0.13993752002716064
1773049363845053700,1.6250537109375,-0.2744312286376953,0.10663831233978271,-0.0893416702747345
1773049363855028700,1.63502880859375,0.1209115982055664,-0.08350419998168945,0.14844253659248352
1773049363865007600,1.645007568359375,0.15662670135498047,-0.08724892139434814,0.4596688151359558
1773049363874983000,1.65498291015625,0.0034646987915039062,-0.05256164073944092,0.03555852174758911
1773049363884961300,1.664961181640625,0.1821908950805664,0.06609904766082764,0.13202345371246338
1773049363894936800,1.674936767578125,0.10375308990478516,0.06086677312850952,-0.26843613386154175
1773049363904915000,1.6849150390625,-0.09573841094970703,0.09298926591873169,-0.46147292852401733
1773049363914795000,1.694794921875,0.04240894317626953,-0.10183048248291016,-0.01151740550994873
1773049363924613000,1.704613037109375,0.37604236602783203,-0.10095471143722534,0.18478745222091675
1773049363934793200,1.714793212890625,-0.0445098876953125,0.03274369239807129,0.006285548210144043
1773049363944828000,1.724827880859375,-0.06265544891357422,0.023250162601470947,-0.1663728654384613
1773049363954708000,1.7347080078125,0.1642618179321289,0.02713710069656372,0.12117120623588562
1773049363964525000,1.744525146484375,-0.08795452117919922,-0.03917151689529419,-0.39555296301841736
1773049363974705200,1.754705078125,-0.030071258544921875,0.06000798940658569,-0.13813158869743347
1773049363984739000,1.764739013671875,-0.0625457763671875,-0.020870327949523926,-0.059946298599243164
1773049363994619000,1.774618896484375,-0.2874794006347656,0.04547220468521118,-0.32799553871154785
1773049364004435500,1.784435546875,-0.0425567626953125,-0.12031739950180054,0.3223881125450134
1773049364014428400,1.794428466796875,0.1748065948486328,-0.07167482376098633,0.30108439922332764
1773049364024392700,1.804392822265625,-0.09648609161376953,0.08046776056289673,-0.24057145416736603
1773049364034572500,1.814572509765625,-0.13262653350830078,0.1225140392780304,-0.27127882838249207
1773049364044605700,1.824605712890625,-0.045711517333984375,0.045015573501586914,-0.26117128133773804
1773049364054485800,1.83448583984375,-0.04953956604003906,-0.12074857950210571,-0.0665181577205658
1773049364064301300,1.84430126953125,-0.10983562469482422,-0.0529322624206543,0.15856251120567322
1773049364074481200,1.854481201171875,0.061560630798339844,-0.10355567932128906,0.2964027523994446
1773049364084514000,1.86451416015625,-0.09483051300048828,0.08229947090148926,-0.014331400394439697
1773049364094477600,1.8744775390625,-0.09795475006103516,0.03903621435165405,-0.060618042945861816
1773049364104465700,1.884465576171875,0.10614395141601562,-0.022842705249786377,-0.02658778429031372
1773049364114345700,1.894345703125,0.1420459747314453,-0.0038403868675231934,-0.017064213752746582
1773049364124161500,1.90416162109375,-0.053305625915527344,0.039184391498565674,-0.20576447248458862
1773049364134153000,1.914153076171875,-0.1607189178466797,0.0011559724807739258,0.014733582735061646
1773049364144118500,1.924118408203125,0.3457794189453125,-0.1691044569015503,0.5597235560417175
1773049364154298400,1.93429833984375,-0.003570556640625,-0.006215810775756836,0.13318955898284912
1773049364164331300,1.944331298828125,0.06705760955810547,0.055481553077697754,-0.022731631994247437
1773049364174294000,1.9542939453125,0.1505727767944336,0.1018141508102417,0.06508105993270874
1773049364184282600,1.96428271484375,-0.18150043487548828,0.07194089889526367,-0.44048872590065
1773049364194162400,1.974162353515625,-0.08429718017578125,-0.004918873310089111,0.12191569805145264
1773049364203978500,1.983978515625,0.2231893539428711,-0.11396050453186035,0.43851447105407715
1773049364213969200,1.99396923828125,0.06889820098876953,0.010325491428375244,0.13246068358421326
1773049364223935200,2.003935302734375,-0.27131080627441406,0.15669748187065125,-0.018858283758163452
1773049364233923300,2.01392333984375,0.20394611358642578,0.04523754119873047,0.1715567409992218
1773049364243891500,2.023891357421875,0.10169124603271484,-0.07858604192733765,-0.020932763814926147
1773049364253877200,2.033877197265625,-0.2154397964477539,0.031595051288604736,-0.3690875768661499
1773049364263847200,2.04384716796875,-0.06598186492919922,0.06409353017807007,0.12411430478096008
1773049364274027300,2.05402734375,0.043440818786621094,0.053062498569488525,-0.17579224705696106
1773049364284059100,2.06405908203125,-0.12197208404541016,-0.06525170803070068,0.20664548873901367
1773049364293939200,2.073939208984375,-0.00693511962890625,-0.13973432779312134,0.29240283370018005
1773049364303753700,2.083753662109375,0.08731365203857422,0.041584789752960205,-0.0035703182220458984
1773049364313739500,2.093739501953125,-0.04606342315673828,0.22959506511688232,-0.2510108947753906
1773049364323709700,2.103709716796875,-0.13477325439453125,0.1559254229068756,-0.5139517784118652
1773049364333693400,2.113693359375,0.11225223541259766,-0.13452911376953125,0.31447091698646545
1773049364343665000,2.123664794921875,-0.030687332153320312,-0.014486968517303467,-0.12295037508010864
1773049364353647600,2.133647705078125,-0.039600372314453125,0.15535417199134827,0.06771200895309448
1773049364363620000,2.1436201171875,0.3329200744628906,0.27966734766960144,0.2522965669631958
1773049364373800200,2.15380029296875,-0.12457561492919922,0.2988332211971283,-0.29459354281425476
1773049364383831800,2.163831787109375,-0.018957138061523438,-0.04069364070892334,0.1300351619720459
1773049364393789000,2.173788818359375,0.11313629150390625,0.030282676219940186,-0.15849804878234863
1773049364403782000,2.183781982421875,-0.1712942123413086,0.20868295431137085,-0.3106776475906372
1773049364413743000,2.1937431640625,-0.0083465576171875,0.41196054220199585,-0.3437179923057556
1773049364423733000,2.20373291015625,0.27901458740234375,0.12154951691627502,0.4329625368118286
1773049364433697300,2.213697265625,0.10500335693359375,-0.0926891565322876,0.3988039195537567
1773049364443684600,2.2236845703125,-0.4429349899291992,0.17743265628814697,-0.25756943225860596
1773049364453564400,2.233564453125,0.2939739227294922,0.29576072096824646,0.06696909666061401
1773049364463380700,2.243380615234375,0.21840763092041016,0.5164176225662231,-0.23054225742816925
1773049364473560800,2.253560791015625,-0.28423118591308594,0.18738651275634766,-0.14449787139892578
1773049364483594200,2.26359423828125,-0.22297000885009766,-0.07064574956893921,0.0874459445476532
1773049364493474000,2.27347412109375,0.10081768035888672,0.009550034999847412,0.025835365056991577
1773049364503290000,2.2832900390625,0.11327266693115234,0.37172645330429077,0.006116598844528198
1773049364513280800,2.29328076171875,-0.04397773742675781,0.5531356334686279,-0.051764845848083496
1773049364523246800,2.303246826171875,0.29576873779296875,0.053374141454696655,0.5932967662811279
1773049364533234700,2.313234619140625,-0.4907064437866211,-0.03189980983734131,-0.1381925344467163
1773049364543202800,2.323202880859375,-0.21904468536376953,0.10975140333175659,-0.4475732147693634
1773049364553383000,2.3333828125,0.30240345001220703,0.31946587562561035,0.10400772094726562
1773049364563415300,2.343415283203125,0.11388301849365234,0.5491356253623962,-0.4522630572319031
1773049364573375700,2.353375732421875,-0.06676959991455078,0.2670614421367645,0.6726177930831909
1773049364583366100,2.3633662109375,0.11813163757324219,0.08292943239212036,0.5775246024131775
1773049364593330000,2.373329833984375,0.026696205139160156,0.13791179656982422,-0.29854756593704224
1773049364603317800,2.38331787109375,0.14368534088134766,0.4093768000602722,-0.018948763608932495
1773049364613284000,2.3932841796875,0.21651268005371094,0.5297558307647705,-0.3929424583911896
1773049364623269600,2.40326953125,0.18942546844482422,0.15772736072540283,0.20960861444473267
1773049364633149700,2.413149658203125,-0.2702608108520508,0.06111198663711548,-0.09910792112350464
1773049364642966300,2.42296630859375,-0.00687408447265625,0.0453510582447052,0.1014622151851654
1773049364653146400,2.433146484375,0.4027423858642578,0.40650710463523865,0.2997594475746155
1773049364663179800,2.4431796875,0.06178855895996094,0.9126347899436951,-0.15895438194274902
1773049364673185300,2.453185302734375,0.22082233428955078,0.6137435436248779,0.507026195526123
1773049364683174700,2.463174560546875,-0.3524971008300781,0.2459196299314499,0.17668569087982178
1773049364693054700,2.4730546875,-0.24796009063720703,-0.12157857418060303,-0.481993705034256
1773049364702934800,2.482934814453125,0.2550048828125,0.031398624181747437,-0.2845364809036255
1773049364712821800,2.49282177734375,0.19892406463623047,0.7455765008926392,-0.4919080436229706
1773049364722785300,2.502785400390625,0.5724077224731445,0.6793155074119568,0.30783823132514954
1773049364732775700,2.512775634765625,0.13465118408203125,0.266991525888443,0.6592681407928467
1773049364742742000,2.522741943359375,-0.8420791625976562,0.08806189894676208,0.3382708430290222
1773049364752921900,2.532921875,-0.30097103118896484,-0.004585057497024536,0.270788311958313
1773049364762954500,2.54295458984375,0.4193000793457031,0.42330607771873474,-0.38011258840560913
1773049364772916700,2.552916748046875,-0.2283496856689453,1.2692017555236816,-0.7582316994667053
1773049364782905900,2.56290576171875,0.22734832763671875,0.8934506177902222,0.02337995171546936
1773049364792786000,2.572785888671875,0.6667003631591797,-0.043760865926742554,-0.09094876050949097
1773049364802601700,2.582601806640625,-1.288534164428711,-0.3387764096260071,0.19744330644607544
1773049364812781600,2.592781494140625,0.40901851654052734,-0.4972456991672516,0.6701421737670898
1773049364822814700,2.602814697265625,0.8162937164306641,0.6074551343917847,-0.38652992248535156
1773049364832694800,2.61269482421875,-0.6712789535522461,1.5130980014801025,-0.37008020281791687
1773049364842510600,2.622510498046875,1.629481315612793,1.2219290733337402,0.4982668161392212
1773049364852690700,2.632690673828125,-0.42702388763427734,0.1314169019460678,-0.08852037787437439
1773049364862723600,2.6427236328125,-2.737114429473877,-0.09535729885101318,-0.510493814945221
1773049364872687400,2.652687255859375,1.0362958908081055,-1.07157564163208,0.7961019277572632
1773049364882675000,2.662675048828125,1.9899921417236328,0.5430340766906738,-0.43954649567604065
1773049364892641300,2.672641357421875,-1.652146339416504,1.3807419538497925,-0.5179400444030762
1773049364902627000,2.682626953125,2.1305809020996094,1.6583681106567383,0.16810965538024902
1773049364912507100,2.692507080078125,0.1907796859741211,0.4572076201438904,0.20154187083244324
1773049364922323700,2.70232373046875,-3.452223777770996,-0.1430072784423828,-0.2981060743331909
1773049364932503600,2.712503662109375,1.498427391052246,-0.5387469530105591,0.7367074489593506
1773049364942537200,2.722537109375,3.0190887451171875,-0.9635668396949768,0.5284861922264099
1773049364952503800,2.73250390625,-2.019958019256592,1.5329246520996094,-0.6075979471206665
1773049364962489300,2.7424892578125,1.5540904998779297,1.8272361755371094,-0.3451730012893677
1773049364972457700,2.752457763671875,-0.8045015335083008,1.3131895065307617,-0.20474931597709656
1773049364982441700,2.762441650390625,-3.4393482208251953,0.5315830111503601,-0.06408858299255371
1773049364992412000,2.772411865234375,3.175387382507324,-0.23945879936218262,0.07252562046051025
1773049365002394400,2.782394287109375,2.392610549926758,-0.18990227580070496,1.0281091928482056
1773049365012274400,2.7922744140625,-2.817847728729248,1.1028461456298828,-0.5062185525894165
1773049365022091800,2.802091796875,3.2329912185668945,1.8009599447250366,-0.4496152997016907
1773049365032272000,2.81227197265625,-1.809903621673584,0.7948672771453857,-0.2858341634273529
1773049365042305800,2.822305908203125,-4.028826713562012,0.12265577912330627,0.36454474925994873
1773049365052274200,2.832274169921875,3.051279067993164,-0.08124968409538269,1.1141016483306885
1773049365062258200,2.842258056640625,2.9243078231811523,0.12536215782165527,-0.4225228428840637
1773049365072228400,2.852228271484375,-3.4889907836914062,0.7767491340637207,-0.5432774424552917
1773049365082210800,2.8622109375,3.692220687866211,1.7992510795593262,-0.25249236822128296
1773049365092182500,2.8721826171875,-1.1545419692993164,0.8401205539703369,-0.034778475761413574
1773049365102164000,2.8821640625,-5.715256214141846,0.07385419309139252,-0.21927016973495483
1773049365112136700,2.89213671875,4.337977409362793,-0.01973477005958557,0.2512893080711365
1773049365122117000,2.9021171875,3.0060853958129883,-0.005044043064117432,0.02718573808670044
1773049365131997200,2.9119970703125,-3.0950231552124023,0.8256312608718872,-0.48656898736953735
1773049365141814800,2.921814697265625,4.154921531677246,1.88710355758667,0.15698039531707764
1773049365151995000,2.931994873046875,-0.7139215469360352,0.6769512295722961,0.25183409452438354
1773049365162029300,2.942029296875,-6.608661651611328,-0.1168617457151413,0.19888979196548462
1773049365171998700,2.951998779296875,2.950058937072754,-0.0831022560596466,1.0374302864074707
1773049365181981700,2.961981689453125,3.4195756912231445,-0.3401371240615845,-1.1957615613937378
1773049365191861800,2.97186181640625,-3.339212417602539,-0.031236737966537476,-0.20024758577346802
1773049365201678800,2.981678955078125,4.056453704833984,1.7882574796676636,0.22713029384613037
1773049365211674000,2.991674072265625,0.08263874053955078,1.1234925985336304,-1.0818952322006226
1773049365221636600,3.00163671875,-6.093130588531494,0.09532752633094788,1.1919312477111816
1773049365231628000,3.0116279296875,2.628127098083496,0.24617384374141693,0.7273648977279663
1773049365241593300,3.02159326171875,3.2668848037719727,0.19309642910957336,-0.5061970949172974
1773049365251773400,3.0317734375,-2.862788677215576,0.28103822469711304,-1.8659083843231201
1773049365261806000,3.04180615234375,3.4837474822998047,1.2907023429870605,2.405066967010498
1773049365271769000,3.05176904296875,1.1116762161254883,1.0353760719299316,0.114937424659729
1773049365281757400,3.06175732421875,-7.685730934143066,0.9994546175003052,-2.016690969467163
1773049365291723300,3.07172314453125,0.023023605346679688,-0.061751388013362885,2.521191120147705
1773049365301709300,3.081709228515625,4.803682327270508,-0.38446101546287537,-0.7264425158500671
1773049365311677400,3.091677490234375,-2.500246524810791,0.813679039478302,-2.354649543762207
1773049365321661700,3.10166162109375,1.2716445922851562,2.0461583137512207,1.490254282951355
1773049365331631600,3.111631591796875,4.017874717712402,1.69462251663208,-1.014463186264038
1773049365341614300,3.1216142578125,-5.637071132659912,0.1995052695274353,0.5309368371963501
1773049365351585500,3.13158544921875,-1.426985740661621,-0.22682416439056396,1.6451671123504639
1773049365361567200,3.141567138671875,3.2179794311523438,-0.5331716537475586,-0.6345500946044922
1773049365371578600,3.15157861328125,-0.5332098007202148,1.0606008768081665,-1.120190143585205
1773049365381563400,3.1615634765625,-0.7007007598876953,1.9661147594451904,1.3080618381500244
1773049365391494000,3.171493896484375,3.548008918762207,1.573240041732788,-1.1214475631713867
1773049365401473000,3.18147314453125,-3.4040708541870117,0.28522488474845886,-0.2294248342514038
1773049365411448000,3.191447998046875,-1.8636469841003418,-0.23367810249328613,1.813489556312561
1773049365421426700,3.2014267578125,2.4401540756225586,-0.6224125623703003,-0.2993417978286743
1773049365431402000,3.211402099609375,0.27069664001464844,0.9226909875869751,-1.6044431924819946
1773049365441380400,3.22138037109375,-0.7347774505615234,1.7626488208770752,0.988530158996582
1773049365451356200,3.231356201171875,2.9036760330200195,1.6473747491836548,-0.30072546005249023
1773049365461334300,3.241334228515625,-1.1080732345581055,0.45201486349105835,-0.7830292582511902
1773049365471310000,3.25131005859375,-3.2161712646484375,0.25008103251457214,1.8218592405319214
1773049365481288200,3.2612880859375,1.225571632385254,-0.503570020198822,0.33599352836608887
1773049365491168300,3.271168212890625,1.130533218383789,0.4499000608921051,-1.6106398105621338
1773049365501028900,3.28102880859375,-1.267354965209961,1.5646551847457886,0.3565349578857422
1773049365511218200,3.29121826171875,1.867243766784668,1.4788575172424316,-0.052962422370910645
1773049365521200000,3.3012001953125,1.1167316436767578,0.3970232605934143,-1.2993156909942627
1773049365531172400,3.31117236328125,-2.8262267112731934,0.5315880179405212,1.876964807510376
1773049365541153300,3.3211533203125,-0.3412628173828125,-0.0034643635153770447,0.7516283988952637
1773049365551126500,3.33112646484375,2.135324478149414,-0.09374873340129852,-1.0890991687774658
1773049365561106400,3.3411064453125,-0.9484615325927734,1.2927948236465454,-0.144683837890625
1773049365571080400,3.35108056640625,0.4157752990722656,1.6847217082977295,0.375860333442688
1773049365581060000,3.36106005859375,2.1222801208496094,0.36082229018211365,-1.2577422857284546
1773049365591034600,3.37103466796875,-2.9025440216064453,0.48816001415252686,0.8672386407852173
1773049365601013800,3.381013671875,-1.5241050720214844,0.44996699690818787,1.1690727472305298
1773049365610988800,3.39098876953125,3.15065860748291,-0.4401388168334961,-0.6561880111694336
1773049365620967200,3.40096728515625,-0.28440284729003906,1.0970193147659302,-0.8945711255073547
1773049365630847200,3.41084716796875,-0.6824016571044922,1.771334171295166,0.5338536500930786
1773049365640707800,3.420707763671875,3.356609344482422,0.825524091720581,-0.510860800743103
1773049365650896600,3.430896728515625,-2.511928081512451,0.06578199565410614,0.5116063356399536
1773049365660879000,3.440879150390625,-3.0620250701904297,0.5126574039459229,0.9513157606124878
1773049365670850800,3.450850830078125,3.649899482727051,-0.5857676863670349,0.21716082096099854
1773049365680832000,3.46083203125,0.5329246520996094,0.8756089210510254,-1.2689573764801025
1773049365690805000,3.470804931640625,-1.7987618446350098,1.4710617065429688,-0.26603007316589355
1773049365700785400,3.480785400390625,3.8780603408813477,1.601724624633789,0.12474691867828369
1773049365710759000,3.490759033203125,-2.3831286430358887,0.09411931782960892,0.29782354831695557
1773049365720738800,3.50073876953125,-3.496262550354004,0.21254432201385498,0.5573551654815674
1773049365730713000,3.510713134765625,4.295392036437988,-0.6420848965644836,0.7105963230133057
1773049365740692200,3.520692138671875,0.29390716552734375,0.7383959293365479,-1.1570758819580078
1773049365750667300,3.530667236328125,-2.2213797569274902,1.463204026222229,0.14146029949188232
1773049365760646000,3.54064599609375,3.985325813293457,1.6248247623443604,0.28115320205688477
1773049365770621200,3.55062109375,-2.9854965209960938,-0.03711523115634918,-0.23870086669921875
1773049365780599600,3.560599609375,-3.1933488845825195,-0.09918438643217087,0.47854483127593994
1773049365790575400,3.570575439453125,5.342657089233398,-0.5278058648109436,0.7972109317779541
1773049365800553500,3.580553466796875,-0.8812198638916016,0.6358289122581482,-1.7947040796279907
1773049365810529500,3.590529541015625,-2.8076329231262207,1.3364371061325073,0.1931370496749878
1773049365820507400,3.60050732421875,5.659682273864746,2.029567241668701,1.018984079360962
1773049365830483500,3.6104833984375,-4.400054931640625,0.21247068047523499,-0.7747435569763184
1773049365840461300,3.62046142578125,-2.8647422790527344,-0.23339566588401794,0.8061063289642334
1773049365850437600,3.630437744140625,5.84865665435791,-0.08286532014608383,0.864540696144104
1773049365860415200,3.640415283203125,-2.42799711227417,0.5703153014183044,-1.83601975440979
1773049365870391800,3.650391845703125,0.3144359588623047,1.3659453392028809,-0.6360204219818115
1773049365880369200,3.660369140625,3.5189666748046875,1.604167103767395,1.195211410522461
1773049365890345700,3.670345703125,-5.123682498931885,0.34324002265930176,-0.0922098159790039
1773049365900323000,3.680322998046875,-0.22931289672851562,-0.3196030259132385,0.9588899612426758
1773049365910300000,3.6902998046875,4.596190452575684,-0.19373737275600433,-0.3018152713775635
1773049365920277200,3.70027734375,-3.8589553833007812,0.8107534646987915,-0.9871631264686584
1773049365930253800,3.71025390625,2.1814966201782227,2.0152740478515625,0.9640693664550781
1773049365940231200,3.720231201171875,1.634505271911621,0.4155973494052887,-0.6435680389404297
1773049365950208000,3.7302080078125,-6.63127326965332,0.21666771173477173,0.012879729270935059
1773049365960185000,3.74018505859375,4.7132978439331055,0.188324972987175,1.2897213697433472
1773049365970162000,3.750161865234375,3.4787063598632812,0.33835890889167786,-0.8692576289176941
1773049365980139300,3.76013916015625,-5.64302396774292,0.8566274046897888,-1.1450697183609009
1773049365990116000,3.7701162109375,2.2196741104125977,1.5840638875961304,1.6140778064727783
1773049366000093200,3.78009326171875,1.234766960144043,-0.1852884292602539,0.01929163932800293
1773049366010070300,3.7900703125,-4.196937561035156,0.3987681269645691,-0.34906280040740967
1773049366020047400,3.80004736328125,3.8765907287597656,0.5845309495925903,0.690292239189148
1773049366030024200,3.810024169921875,0.5787343978881836,0.6227105855941772,-0.4243321418762207
1773049366040001300,3.820001220703125,-3.627680778503418,0.9829759001731873,-0.9597101807594299
1773049366049978400,3.829978271484375,3.397676467895508,0.48298293352127075,0.8213026523590088
1773049366059955500,3.83995556640625,-1.3557624816894531,0.4449580907821655,-0.7026830911636353
1773049366069932300,3.849932373046875,-0.7396354675292969,0.878544807434082,0.7355959415435791
1773049366079909400,3.859909423828125,3.330219268798828,0.5709589123725891,0.8714463710784912
1773049366089886500,3.869886474609375,-3.357452392578125,0.7659355401992798,-1.3532804250717163
1773049366099863300,3.87986328125,0.8326177597045898,0.19770598411560059,0.08532726764678955
1773049366109840400,3.88984033203125,1.835036277770996,0.3699084222316742,-0.4157019853591919
1773049366119817500,3.8998173828125,-1.7710013389587402,1.2432981729507446,-0.475119948387146
1773049366129794600,3.909794677734375,1.6777563095092773,1.2318825721740723,0.7403275966644287
1773049366139771600,3.919771728515625,-2.014599323272705,0.7226201891899109,0.03207564353942871
1773049366149748500,3.92974853515625,0.21971893310546875,-0.016523241996765137,-0.17622435092926025
1773049366159725600,3.9397255859375,1.521733283996582,0.49024638533592224,0.24050021171569824
1773049366169702700,3.94970263671875,-1.9323668479919434,1.3650104999542236,-0.15587544441223145
1773049366179679700,3.9596796875,1.8086166381835938,1.020803689956665,-0.5720336437225342
1773049366189656600,3.969656494140625,-0.6626424789428711,0.26437440514564514,-0.029930591583251953
1773049366199633700,3.979633544921875,-1.1568374633789062,0.18692587316036224,0.4728461503982544
1773049366209610800,3.98961083984375,1.7283439636230469,1.0115832090377808,0.149674654006958
1773049366219587800,3.999587890625,-0.7199335098266602,1.332213044166565,-0.15429162979125977
1773049366229564700,4.009564697265625,0.4414939880371094,0.49320679903030396,0.11860036849975586
1773049366239541800,4.019541748046875,-0.5951118469238281,-0.09565658122301102,0.6055495738983154
1773049366249518800,4.029518798828125,-0.9948186874389648,0.6290147304534912,-0.5844348669052124
1773049366259496000,4.039495849609375,1.6802282333374023,1.033366322517395,0.358819842338562
1773049366269473000,4.04947314453125,-0.25232410430908203,0.982941210269928,-0.05483543872833252
1773049366279449900,4.059449951171875,-0.5381641387939453,0.3980279862880707,0.08355379104614258
1773049366289427000,4.069427001953125,0.2555389404296875,0.024566203355789185,0.2912954092025757
1773049366299404000,4.079404052734375,-0.40404319763183594,0.845233678817749,0.4617030620574951
1773049366309380900,4.089380859375,1.1240148544311523,1.0871268510818481,0.3525567054748535
1773049366319358000,4.09935791015625,-0.3298616409301758,0.44483137130737305,-0.7183240652084351
1773049366329335000,4.1093349609375,-0.610896110534668,0.11419355869293213,-0.1953115463256836
1773049366339312000,4.11931201171875,0.5170745849609375,0.5006281733512878,0.6067121028900146
1773049366349289200,4.129289306640625,0.0141754150390625,1.3106683492660522,0.37636351585388184
1773049366359266000,4.13926611328125,0.7825613021850586,0.5924543738365173,0.2060701847076416
1773049366369243100,4.1492431640625,-0.5942001342773438,0.38568180799484253,-0.6677231788635254
1773049366379220200,4.15922021484375,-0.4260272979736328,0.27953672409057617,0.6549088954925537
1773049366389197000,4.169197021484375,1.7036809921264648,0.938058614730835,-0.35596799850463867
1773049366399174100,4.179174072265625,-0.7783851623535156,1.1117939949035645,-0.3131488561630249
1773049366409151200,4.189151123046875,0.015814781188964844,0.3221331834793091,0.12550461292266846
1773049366419128300,4.19912841796875,-0.20391178131103516,-0.17986345291137695,0.16803014278411865
1773049366429105200,4.209105224609375,0.5313444137573242,0.9287726879119873,-0.04786038398742676
1773049366439082200,4.219082275390625,0.1572093963623047,1.3944058418273926,0.28788912296295166
1773049366449059300,4.229059326171875,0.6767539978027344,0.431526780128479,-0.5785959959030151
1773049366459036400,4.239036376953125,-0.8094549179077148,0.13967348635196686,0.057849884033203125
1773049366469013200,4.24901318359375,-0.41163158416748047,0.7458842992782593,-0.02007126808166504
1773049366478990300,4.258990234375,1.0925359725952148,1.0546114444732666,0.2693943977355957
1773049366488967400,4.268967529296875,-0.32296180725097656,0.18423597514629364,0.1769932508468628
1773049366498944500,4.278944580078125,-0.2745647430419922,0.2894076704978943,-1.1981843709945679
1773049366508921300,4.28892138671875,0.3414897918701172,0.7039439678192139,0.43303072452545166
1773049366518898400,4.2988984375,0.6126003265380859,0.8939524292945862,0.4907480478286743
1773049366528875500,4.30887548828125,-0.4104490280151367,0.6923537254333496,-0.35463714599609375
1773049366538852600,4.3188525390625,-0.9774875640869141,0.34224653244018555,-0.5847994089126587
1773049366548829400,4.328829345703125,1.5452594757080078,0.3037884533405304,0.8201011419296265
1773049366558806500,4.338806640625,0.23827457427978516,0.7906554937362671,-0.14653825759887695
1773049366568783600,4.34878369140625,-1.1467361450195312,0.9706326723098755,-0.7806791067123413
1773049366578760400,4.358760498046875,0.7608051300048828,0.1475943922996521,-0.2235724925994873
1773049366588737500,4.368737548828125,0.3293342590332031,0.5439915657043457,0.6064047813415527
1773049366598714600,4.378714599609375,-0.039010047912597656,0.8155225515365601,0.3741534948348999
1773049366608691700,4.388691650390625,-0.22016429901123047,0.6847081184387207,-0.6646277904510498
1773049366618668500,4.39866845703125,0.6539592742919922,0.2246411144733429,0.17084181308746338
1773049366628645600,4.408645751953125,0.42334747314453125,0.558573305606842,-0.10818874835968018
1773049366638622700,4.418622802734375,-0.3701143264770508,0.8344554901123047,-0.28246045112609863
1773049366648599800,4.428599853515625,-0.46437740325927734,0.31718766689300537,0.8531574010848999
1773049366658576600,4.43857666015625,1.193124771118164,0.2298927754163742,-0.8722632527351379
1773049366668553700,4.4485537109375,-0.1797637939453125,0.6496410965919495,0.40028059482574463
1773049366678530800,4.45853076171875,-0.30803489685058594,0.7204188704490662,0.13998651504516602
1773049366688508000,4.4685078125,-0.039925575256347656,0.5941659212112427,-0.4614173173904419
1773049366698484700,4.478484619140625,0.5617551803588867,0.10109429061412811,0.1141897439956665
1773049366708461800,4.4884619140625,0.37432003021240234,0.3878132700920105,0.37046122550964355
1773049366718439000,4.49843896484375,-1.3689212799072266,0.21950586140155792,0.3398998975753784
1773049366728416000,4.508416015625,0.5867385864257812,0.17109325528144836,-0.4659409523010254
1773049366738392800,4.518392822265625,0.7712793350219727,0.17990949749946594,-0.1671532392501831
1773049366748370000,4.528369873046875,-0.26161766052246094,0.30458152294158936,0.3737504482269287
1773049366758347000,4.538346923828125,-1.1392669677734375,0.44272223114967346,-0.1412642002105713
1773049366768323800,4.54832373046875,0.1906585693359375,-0.030846238136291504,0.5413756370544434
1773049366778301000,4.558301025390625,1.4739160537719727,0.131549671292305,0.034924983978271484
1773049366788278000,4.568278076171875,-1.5890893936157227,0.07047004997730255,-0.08294415473937988
1773049366798255000,4.578255126953125,-0.4636363983154297,0.20899167656898499,0.06571364402770996
1773049366808232000,4.58823193359375,0.8405208587646484,-0.11187975853681564,0.0038367509841918945
1773049366818170000,4.598170166015625,0.590184211730957,-0.0818074494600296,0.26089370250701904
1773049366828143400,4.608143310546875,-1.7501025199890137,0.17766612768173218,0.4090454578399658
1773049366838163000,4.618162841796875,0.27805137634277344,-0.19052214920520782,-0.30090343952178955
1773049366848140800,4.628140869140625,1.7758808135986328,-0.03268818557262421,0.09831023216247559
1773049366858078200,4.638078125,-1.3067398071289062,-0.006719633936882019,-0.0210953950881958
1773049366868052000,4.648052001953125,-0.6448726654052734,0.0991908460855484,-0.027786850929260254
1773049366878032100,4.6580322265625,0.721898078918457,-0.2066882848739624,0.7651457786560059
1773049366888006700,4.668006591796875,0.8060922622680664,-0.05222076177597046,-0.45021796226501465
1773049366897986300,4.677986328125,-1.7924246788024902,0.28356385231018066,-0.6358643770217896
1773049366907961000,4.687961181640625,0.6464605331420898,-0.060070544481277466,0.654023289680481
1773049366917940200,4.697940185546875,1.1504888534545898,0.1210765540599823,-0.5620670318603516
1773049366927915500,4.70791552734375,-1.2196102142333984,-0.006599321961402893,0.1217803955078125
1773049366937894100,4.71789404296875,0.19617080688476562,0.0993359386920929,0.7910729646682739
1773049366947870000,4.727869873046875,0.11908340454101562,-0.05440618097782135,-0.8864439129829407
1773049366957887200,4.73788720703125,0.29014015197753906,0.23264487087726593,0.37033283710479736
1773049366967867100,4.7478671875,-1.0372848510742188,-0.08232364803552628,0.07665896415710449
1773049366977802500,4.757802490234375,0.5256233215332031,0.06554771959781647,-0.17306745052337646
1773049366987777800,4.76777783203125,-0.038926124572753906,0.05142711102962494,0.5465341806411743
1773049366997717500,4.777717529296875,-0.6736717224121094,0.1375817060470581,-0.1640152931213379
1773049367007689500,4.787689453125,0.6786642074584961,0.10319395363330841,-0.1243969202041626
1773049367017632800,4.7976328125,0.008832931518554688,0.04553937911987305,0.360123872756958
1773049367027601700,4.8076015625,-0.6641979217529297,-0.0022342056035995483,0.3233065605163574
1773049367037509000,4.817509033203125,0.09661483764648438,-0.02612745761871338,0.013616442680358887
1773049367047472000,4.82747216796875,0.7407102584838867,0.05450960993766785,0.2693467140197754
1773049367057463000,4.837463134765625,-0.06760406494140625,0.04033385217189789,-0.4470325708389282
1773049367067428600,4.8474287109375,-0.5302276611328125,-0.021494776010513306,0.4922487735748291
1773049367077378300,4.85737841796875,0.8313941955566406,-0.06003774702548981,-0.3061716556549072
1773049367087342300,4.86734228515625,0.10879039764404297,0.13141432404518127,0.40247225761413574
1773049367097293300,4.877293212890625,-0.3973569869995117,0.016695618629455566,-0.42235803604125977
1773049367107256000,4.887256103515625,0.25264453887939453,-0.050321221351623535,-0.21758127212524414
1773049367117208600,4.89720849609375,0.38558483123779297,0.10762713849544525,0.22326385974884033
1773049367127170300,4.90717041015625,-0.4700279235839844,-0.08351778239011765,0.4167635440826416
1773049367137162500,4.91716259765625,0.5189437866210938,-0.14040008187294006,0.1387772560119629
1773049367147127300,4.927127197265625,0.15459537506103516,-0.07356467843055725,-0.7115066051483154
1773049367157000200,4.937000244140625,-0.26137351989746094,-0.02541746199131012,0.8857556581497192
1773049367166956000,4.9469560546875,-0.007909774780273438,-0.3309600055217743,0.3599323034286499
1773049367176915500,4.95691552734375,0.7127456665039062,-0.19654907286167145,-0.9560334086418152
1773049367186871300,4.966871337890625,-0.8071136474609375,-0.22920916974544525,1.0623632669448853
1773049367196830500,4.97683056640625,-0.1128072738647461,-0.16594812273979187,-0.1090247631072998
1773049367206786800,4.986786865234375,0.7704629898071289,-0.40404629707336426,-0.7931331396102905
1773049367216745700,4.996745849609375,-0.19049739837646484,-0.27691665291786194,0.7603172063827515
1773049367226702300,5.006702392578125,-0.6481599807739258,-0.14648786187171936,0.17351114749908447
1773049367236660700,5.01666064453125,0.9717512130737305,-0.5271133780479431,-0.38101625442504883
1773049367246617600,5.02661767578125,-0.0328216552734375,-0.13762247562408447,-0.1222909688949585
1773049367256537300,5.036537353515625,-1.149765968322754,-0.23626786470413208,0.12756848335266113
1773049367266490400,5.046490478515625,1.0155200958251953,-0.5111622214317322,0.18179190158843994
1773049367276452400,5.056452392578125,-0.2950601577758789,-0.269920289516449,-0.10905766487121582
1773049367286406400,5.066406494140625,-0.9770097732543945,-0.25300484895706177,-0.29226839542388916
1773049367296586200,5.076586181640625,0.8198089599609375,-0.09856775403022766,0.4092252254486084
1773049367306766300,5.086766357421875,0.3639669418334961,-0.4362603425979614,0.2601940631866455
1773049367316946400,5.096946533203125,-0.44376468658447266,-0.25204190611839294,-0.43049347400665283
1773049367327053300,5.10705322265625,-0.8821630477905273,-0.021732866764068604,0.43070530891418457
1773049367337013200,5.11701318359375,1.7546558380126953,-0.3746219873428345,0.5547128915786743
1773049367347004000,5.12700390625,-0.5125246047973633,-0.15846139192581177,-0.8240957260131836
1773049367356967200,5.13696728515625,-1.198648452758789,-0.10473732650279999,0.6421340703964233
1773049367366955300,5.146955322265625,1.5868167877197266,-0.1817120760679245,0.5232706069946289
1773049367376921300,5.15692138671875,-0.5221376419067383,-0.10071109235286713,-0.4837977886199951
1773049367386907100,5.1669072265625,-0.3204612731933594,-0.00501646101474762,0.11096727848052979
1773049367396875300,5.176875244140625,0.6875400543212891,-0.04423755407333374,0.32904791831970215
1773049367406859500,5.186859619140625,-0.2784461975097656,-0.036044999957084656,0.1056058406829834
1773049367416829400,5.196829345703125,0.04682636260986328,-0.13756310939788818,0.22603774070739746
1773049367426812200,5.206812255859375,0.39997386932373047,0.07098779082298279,-0.4659215211868286
1773049367436783400,5.216783447265625,-0.25501155853271484,-0.06480676680803299,0.1972869634628296
1773049367446765000,5.22676513671875,0.5285196304321289,-0.09513768553733826,0.09422624111175537
1773049367456737500,5.236737548828125,0.21692562103271484,-0.1637876182794571,0.12179279327392578
1773049367466718200,5.24671826171875,-0.4376487731933594,0.2783825397491455,-0.6204280853271484
1773049367476691500,5.25669140625,-0.13104915618896484,-0.1113239973783493,0.20385348796844482
1773049367486671400,5.26667138671875,1.0863113403320312,-0.1271897256374359,-0.11140775680541992
1773049367496645600,5.276645751953125,-1.7611613273620605,0.2009643018245697,-0.09292721748352051
1773049367506624800,5.286624755859375,0.25225067138671875,0.23634852468967438,0.04165923595428467
1773049367516504800,5.2965048828125,1.397089958190918,-0.45357877016067505,-0.17812073230743408
1773049367526365200,5.306365234375,-1.7425637245178223,-0.04254452884197235,-0.1163703203201294
1773049367536553500,5.316553466796875,-0.8362445831298828,0.20437051355838776,0.045871734619140625
1773049367546536200,5.3265361328125,1.9529857635498047,-0.15659502148628235,0.48337769508361816
1773049367556507600,5.336507568359375,-0.9967136383056641,-0.12289173901081085,-0.5137567520141602
1773049367566489000,5.346489013671875,-1.013631820678711,0.08696334064006805,-0.4821246862411499
1773049367576461600,5.356461669921875,0.5830936431884766,-0.11480319499969482,1.0823729038238525
1773049367586442200,5.366442138671875,-0.5257167816162109,-0.07665137946605682,-0.28574085235595703
1773049367596415500,5.37641552734375,-0.07603836059570312,-0.1385556161403656,-0.3772355318069458
1773049367606395600,5.386395751953125,0.6926908493041992,-0.05703105032444,0.49074840545654297
1773049367616369700,5.39636962890625,-0.6028232574462891,-0.1626031994819641,0.0037931203842163086
1773049367626349000,5.40634912109375,1.0455999374389648,-0.3242844045162201,0.14736664295196533
1773049367636323600,5.416323486328125,-0.20787525177001953,0.12910547852516174,-0.14726173877716064
1773049367646302500,5.426302490234375,-1.094797134399414,-0.01886145770549774,0.034133195877075195
1773049367656277800,5.43627783203125,1.499593734741211,-0.08608775585889816,-0.0557866096496582
1773049367666256100,5.446256103515625,-0.39905452728271484,-0.19111505150794983,0.18554043769836426
1773049367676231700,5.456231689453125,-1.0662975311279297,0.05330921709537506,0.11094093322753906
1773049367686209800,5.466209716796875,0.7407035827636719,-0.1523652970790863,-0.012106060981750488
1773049367696089900,5.47608984375,0.4573860168457031,-0.16143138706684113,-0.023484110832214355
1773049367705950500,5.485950439453125,-0.4126291275024414,-0.0032625943422317505,0.03630828857421875
1773049367715945500,5.495945556640625,0.2997598648071289,-0.3274337351322174,0.6063137054443359
1773049367725908000,5.505907958984375,0.6618776321411133,-0.08806916326284409,-0.5025475025177002
1773049367736093400,5.516093505859375,-0.4948539733886719,-0.09702620655298233,0.014919519424438477
1773049367746078500,5.526078369140625,0.6663675308227539,-0.04381091892719269,0.3767526149749756
1773049367756047600,5.536047607421875,-0.5143728256225586,-0.034654125571250916,-0.26793956756591797
1773049367766030800,5.54603076171875,-0.011959075927734375,-0.020093590021133423,0.255465030670166
1773049367776001500,5.55600146484375,0.19799518585205078,-0.015345454216003418,-0.28362298011779785
1773049367785983700,5.565983642578125,-0.33707332611083984,-0.0007567256689071655,0.35503673553466797
1773049367795863600,5.575863525390625,0.6708869934082031,-0.23010125756263733,0.4487032890319824
1773049367805723400,5.585723388671875,0.2778167724609375,-0.15807688236236572,-0.22256755828857422
1773049367815909400,5.595909423828125,-0.7588310241699219,0.2044128030538559,0.3913987874984741
1773049367825894000,5.605893798828125,1.3816232681274414,-0.030687838792800903,0.04865384101867676
1773049367835863600,5.615863525390625,-0.40689659118652344,0.016360536217689514,-0.08263182640075684
1773049367845846500,5.625846435546875,-0.7683200836181641,-0.05085289478302002,0.3444545269012451
1773049367855726600,5.6357265625,0.9661779403686523,-0.009471207857131958,-0.5569883584976196
1773049367865586200,5.645586181640625,-0.9833383560180664,-0.20109346508979797,-0.3782411813735962
1773049367875771400,5.655771484375,-0.9376659393310547,0.09070369601249695,0.31886565685272217
1773049367885756700,5.665756591796875,0.6495952606201172,-0.12533941864967346,-0.07849478721618652
1773049367895725600,5.6757255859375,-0.5689449310302734,0.11795744299888611,-0.9437100291252136
1773049367905709000,5.685708984375,-0.17128753662109375,-0.19718225300312042,0.6168320178985596
1773049367915679500,5.695679443359375,0.6026430130004883,-0.20626389980316162,-0.11401867866516113
1773049367925661700,5.70566162109375,-1.3511743545532227,0.018167048692703247,-0.03911852836608887
1773049367935633400,5.71563330078125,1.6162300109863281,-0.07742874324321747,0.10609400272369385
1773049367945614600,5.725614501953125,-0.0010290145874023438,-0.19661007821559906,0.046805739402770996
1773049367955587600,5.735587646484375,-1.451986312866211,0.24387770891189575,-0.17879128456115723
1773049367965567700,5.745567626953125,0.7757968902587891,-0.24380925297737122,-0.09309220314025879
1773049367975541500,5.75554150390625,0.11534309387207031,0.07728388905525208,0.4004709720611572
1773049367985521200,5.765521240234375,-0.7441825866699219,0.1635102480649948,-0.6780327558517456
1773049367995401200,5.775401123046875,0.8949413299560547,-0.07475648820400238,0.7191077470779419
1773049368005261600,5.785261474609375,-0.4771099090576172,0.011000111699104309,0.07665431499481201
1773049368015449300,5.795449462890625,0.7601451873779297,0.07325218617916107,0.02462184429168701
1773049368025432300,5.805432373046875,0.30501461029052734,0.2925204634666443,0.571052074432373
1773049368035403500,5.815403564453125,-0.4642305374145508,-0.019472241401672363,-0.7418073415756226
1773049368045385200,5.82538525390625,1.1646785736083984,-0.11950176954269409,1.2619669437408447
1773049368055265300,5.835265380859375,-1.167160987854004,0.018210574984550476,-0.4901442527770996
1773049368065125000,5.845125,0.8971405029296875,0.07871095836162567,-0.7932039499282837
1773049368075311400,5.855311279296875,0.6807432174682617,0.05012655258178711,1.2297735214233398
1773049368085295600,5.865295654296875,-1.7694706916809082,0.29272687435150146,0.013611197471618652
1773049368095265300,5.875265380859375,1.5379905700683594,0.21482834219932556,-0.8532775044441223
1773049368105248300,5.885248291015625,0.5321292877197266,-0.1681896597146988,0.4282621145248413
1773049368115128300,5.89512841796875,-1.2017669677734375,0.3140844702720642,0.19121170043945312
1773049368124988000,5.90498779296875,0.7773151397705078,-0.1463010013103485,-0.4897400140762329
1773049368135173400,5.91517333984375,-0.045266151428222656,0.14943170547485352,0.22799348831176758
1773049368145158400,5.925158447265625,-0.5703010559082031,0.16724146902561188,-0.4473247528076172
1773049368155127300,5.935127197265625,1.3359813690185547,-0.13390998542308807,0.8149468898773193
1773049368165110800,5.94511083984375,-1.196828842163086,0.3898687958717346,-0.23414015769958496
1773049368175081500,5.95508154296875,0.9775047302246094,-0.070985808968544,-0.7438167333602905
1773049368185063400,5.9650634765625,-0.3174896240234375,0.178457111120224,0.7478811740875244
1773049368194943500,5.974943603515625,-0.9081201553344727,-0.10950695723295212,0.0012763738632202148
1773049368204803300,5.98480322265625,2.315375328063965,-0.10023967176675797,-0.5232657194137573
1773049368214795300,5.994795166015625,-2.342581272125244,0.239454984664917,0.37905097007751465
1773049368224760000,6.004760009765625,0.8844490051269531,0.13253389298915863,-0.20349609851837158
1773049368234943200,6.014943115234375,0.5528116226196289,-0.07230891287326813,0.006302237510681152
1773049368244930000,6.024929931640625,-1.6377968788146973,0.34751784801483154,0.02322518825531006
1773049368254810000,6.03481005859375,1.1573247909545898,-0.04610428214073181,-0.03163588047027588
1773049368264669000,6.0446689453125,-0.9684276580810547,0.05540257692337036,-0.031285881996154785
1773049368274851300,6.054851318359375,-0.49840831756591797,-0.006685048341751099,0.11942410469055176
1773049368284839000,6.0648388671875,0.7392950057983398,0.05642777681350708,0.6334378719329834
1773049368294718700,6.07471875,-1.0812301635742188,0.07071779668331146,-0.8500571250915527
1773049368304577300,6.084577392578125,1.154973030090332,0.06255829334259033,0.08355236053466797
1773049368314565000,6.094565185546875,-1.3385372161865234,0.16968265175819397,1.2345447540283203
1773049368324533500,6.104533447265625,0.3963804244995117,0.05344948172569275,-1.0110118389129639
1773049368334519000,6.11451904296875,0.7435503005981445,-0.3554576635360718,0.899821400642395
1773049368344489200,6.1244892578125,-1.887220859527588,0.9127293825149536,-0.21634554862976074
1773049368354473000,6.134472900390625,0.9846296310424805,-0.05538696050643921,0.2802788019180298
1773049368364444400,6.1444443359375,-0.3920888900756836,0.2530462145805359,0.24830412864685059
1773049368374427000,6.154427001953125,-1.8804678916931152,0.6163559556007385,-0.8078725337982178
1773049368384399400,6.1643994140625,1.5552568435668945,-0.32431113719940186,1.689880609512329
1773049368394380800,6.174380859375,-1.8847384452819824,0.05128265917301178,-0.6846758127212524
1773049368404354300,6.184354248046875,0.7622280120849609,0.3805251717567444,-0.05591154098510742
1773049368414334700,6.194334716796875,1.123356819152832,-0.029084667563438416,2.059826374053955
1773049368424309000,6.20430908203125,0.4943866729736328,0.08520238101482391,-1.329387903213501
1773049368434288600,6.21428857421875,-1.2309932708740234,0.33903056383132935,0.2874981164932251
1773049368444263400,6.224263427734375,-0.7020120620727539,0.12033253908157349,0.11679112911224365
1773049368454242800,6.234242919921875,1.8665494918823242,0.10146361589431763,-0.7183303833007812
1773049368464217900,6.2442177734375,-2.3185572624206543,0.35729891061782837,1.613500714302063
1773049368474196700,6.25419677734375,0.9793796539306641,-0.2832784652709961,-1.3568525314331055
1773049368484172300,6.26417236328125,1.0751686096191406,0.15001533925533295,-0.30143821239471436
1773049368494052000,6.274052001953125,-0.9972620010375977,0.35075318813323975,1.7311475276947021
1773049368503913700,6.283913818359375,2.388700485229492,-0.3109699785709381,-1.2852184772491455
1773049368513910800,6.293910888671875,-0.9770116806030273,0.2509680390357971,-0.7100141048431396
1773049368523871500,6.30387158203125,0.14721202850341797,-0.006557449698448181,1.253604531288147
1773049368534058200,6.314058349609375,1.5833396911621094,-0.14498889446258545,-0.29544198513031006
1773049368544041700,6.324041748046875,-1.0608329772949219,0.06872029602527618,-0.8451828360557556
1773049368554012200,6.33401220703125,0.49772071838378906,0.03129078447818756,0.634446382522583
1773049368563994600,6.34399462890625,-0.2907285690307617,-0.1501474678516388,0.2172461748123169
1773049368573966300,6.35396630859375,1.122330665588379,-0.14582091569900513,-0.6111370325088501
1773049368583947500,6.363947509765625,-0.7270212173461914,0.26116982102394104,0.029619216918945312
1773049368593920300,6.373920166015625,0.2531566619873047,-0.24151486158370972,-0.39120590686798096
1773049368603900700,6.383900634765625,1.2123537063598633,-0.21651427447795868,0.7668566703796387
1773049368613874400,6.39387451171875,-1.3244991302490234,0.08886675536632538,-0.6857632398605347
1773049368623854000,6.40385400390625,1.4944572448730469,-0.13234490156173706,-1.096000075340271
1773049368633828400,6.413828369140625,-0.3933372497558594,-0.016137823462486267,0.979901909828186
1773049368643807500,6.423807373046875,-0.05311393737792969,-0.01194484531879425,-0.9097731709480286
1773049368653782500,6.433782470703125,-0.21030902862548828,-0.10845570266246796,-0.885072648525238
1773049368663761200,6.44376123046875,-0.26596736907958984,0.04059639573097229,0.19054293632507324
1773049368673736400,6.453736328125,0.16455841064453125,0.07321776449680328,-0.4450312852859497
1773049368683714800,6.46371484375,-0.5752201080322266,0.11573782563209534,-0.13381707668304443
1773049368693690400,6.4736904296875,0.5147905349731445,0.02930930256843567,-0.34601330757141113
1773049368703668500,6.48366845703125,-0.6412010192871094,0.08167131245136261,0.4844543933868408
1773049368713644500,6.49364453125,0.644536018371582,0.1576874852180481,-0.23415708541870117
1773049368723622400,6.503622314453125,-0.5117559432983398,-0.000555872917175293,0.20426428318023682
1773049368733598500,6.513598388671875,0.28211498260498047,0.17102892696857452,0.5205897092819214
1773049368743576000,6.523576171875,-0.09025859832763672,0.16529148817062378,-0.23047101497650146
1773049368753552600,6.533552734375,-0.013639450073242188,0.5698505640029907,0.22412586212158203
1773049368763530000,6.543530029296875,0.05380439758300781,0.2672834098339081,0.4930229187011719
1773049368773506600,6.553506591796875,-1.043863296508789,0.26075583696365356,-0.029408693313598633
1773049368783484000,6.56348388671875,-0.01936054229736328,0.030689910054206848,-0.004066944122314453
1773049368793460500,6.57346044921875,-0.5297346115112305,0.3496097922325134,-0.012142658233642578
1773049368803437800,6.583437744140625,0.3404989242553711,0.8683032989501953,0.3244394063949585
1773049368813414700,6.59341455078125,-0.4472627639770508,-0.03643271327018738,1.3968373537063599
1773049368823391700,6.603391845703125,0.952301025390625,0.044393524527549744,-1.767939567565918
1773049368833368600,6.61336865234375,-1.861128330230713,0.7503268718719482,0.43627870082855225
1773049368843346000,6.623345947265625,1.2370758056640625,-0.12992672622203827,1.7138290405273438
1773049368853322500,6.633322509765625,1.1859607696533203,-0.036701932549476624,-1.8382346630096436
1773049368863299800,6.6432998046875,-2.644157886505127,0.8066483736038208,0.28331875801086426
1773049368873276700,6.653276611328125,1.4526796340942383,0.03972738981246948,1.2543668746948242
1773049368883253800,6.663253662109375,0.5329618453979492,0.12084944546222687,-0.3587735891342163
1773049368893230600,6.673230712890625,-1.3542137145996094,0.4973934292793274,-0.4816068410873413
1773049368903207700,6.683207763671875,0.32965087890625,0.2584446966648102,1.147716999053955
1773049368913184800,6.693184814453125,0.8634166717529297,0.042841359972953796,0.43507516384124756
1773049368923161900,6.703161865234375,-0.2362842559814453,0.2440595030784607,-0.5410557985305786
1773049368933138700,6.713138671875,-0.3074960708618164,0.46814343333244324,0.23963594436645508
1773049368943115800,6.72311572265625,0.528961181640625,0.15242068469524384,-0.08965170383453369
1773049368953092600,6.733092529296875,0.5131492614746094,0.1332806795835495,0.20272231101989746
1773049368963069700,6.743069580078125,-1.10589599609375,0.29172879457473755,-0.5791510343551636
1773049368973046800,6.753046875,-0.09154987335205078,0.23373936116695404,0.16312682628631592
1773049368983023600,6.763023681640625,1.4647932052612305,-0.061946094036102295,0.2298731803894043
1773049368993000700,6.773000732421875,-1.7320160865783691,0.5161318778991699,-0.2983269691467285
1773049369002977800,6.782977783203125,0.46274852752685547,-0.0240650475025177,-0.6554243564605713
1773049369012954600,6.79295458984375,-0.048729896545410156,0.17294184863567352,0.9375090599060059
1773049369022931700,6.802931640625,0.09904003143310547,-0.18975113332271576,-0.299838662147522
1773049369032908800,6.81290869140625,0.04652690887451172,0.6624683737754822,-0.6589089632034302
1773049369042886000,6.822885986328125,0.1557302474975586,0.2795051336288452,0.8691157102584839
1773049369052862700,6.83286279296875,0.6852092742919922,-0.08284227550029755,-0.8224332332611084
1773049369062839800,6.84283984375,-1.2501373291015625,0.7150793075561523,0.30739283561706543
1773049369072817000,6.85281689453125,0.19885921478271484,-0.04155358672142029,0.4905407428741455
1773049369082793700,6.862793701171875,1.1908025741577148,-0.21803733706474304,-0.6229028701782227
1773049369092770800,6.872770751953125,-2.883986473083496,0.7564400434494019,0.3497873544692993
1773049369102748000,6.882747802734375,0.7500495910644531,0.04212313890457153,0.6954634189605713
1773049369112725000,6.89272509765625,2.093385696411133,-0.09037701785564423,-0.2717306613922119
1773049369122701800,6.902701904296875,-2.8701820373535156,0.5073023438453674,-0.27952587604522705
1773049369132679000,6.912678955078125,0.820216178894043,0.14645260572433472,0.4929438829421997
1773049369142656000,6.922656005859375,0.9137296676635742,-0.12655793130397797,-0.17712712287902832
1773049369152632800,6.9326328125,-0.883641242980957,0.01794123649597168,0.07670116424560547
1773049369162610000,6.94260986328125,-0.1701345443725586,0.4920841455459595,-0.4613351821899414
1773049369172587000,6.9525869140625,0.846653938293457,-0.014922305941581726,0.476476788520813
1773049369182564000,6.962564208984375,0.04751300811767578,0.34964948892593384,-0.17782199382781982
1773049369192541000,6.972541015625,-1.4751434326171875,0.3362971246242523,-0.2742964029312134
1773049369202518000,6.98251806640625,0.8003482818603516,0.3176131546497345,-0.2979092597961426
1773049369212398000,6.992398193359375,0.3115510940551758,-0.011161863803863525,0.7704907655715942
1773049369222259200,7.00225927734375,-0.7299280166625977,0.6396121978759766,-0.7104042768478394
1773049369232448800,7.01244873046875,0.2551279067993164,0.11464907228946686,0.04478037357330322
1773049369242430000,7.022429931640625,0.04006195068359375,0.3551855981349945,0.056110382080078125
1773049369252403000,7.03240283203125,0.35033512115478516,0.07922542095184326,0.4861276149749756
1773049369262383400,7.04238330078125,0.31633567810058594,0.6152006387710571,-1.413076639175415
1773049369272356900,7.05235693359375,-0.2237253189086914,0.1613098382949829,0.8901126384735107
1773049369282336800,7.062336669921875,0.8754329681396484,0.29667508602142334,-0.5405837297439575
1773049369292311000,7.07231103515625,-0.15762996673583984,0.31565481424331665,0.13938748836517334
1773049369302290200,7.082290283203125,-0.06588363647460938,0.08725190162658691,-0.5807168483734131
1773049369312265200,7.09226513671875,0.40741729736328125,0.07417406141757965,-0.4136488437652588
1773049369322243800,7.102243896484375,0.25428104400634766,0.1899479776620865,0.4193485975265503
1773049369332219100,7.11221923828125,0.18728065490722656,0.15671104192733765,-0.16710710525512695
1773049369342197500,7.122197509765625,0.5215396881103516,-0.30099552869796753,-0.16876530647277832
1773049369352173000,7.132173095703125,-0.09985065460205078,-0.5998342037200928,0.3238823413848877
1773049369362151200,7.142151123046875,-1.311772346496582,-0.30605989694595337,-0.34630250930786133
1773049369372127200,7.152127197265625,-0.27721118927001953,-0.7664932012557983,0.5497496128082275
1773049369382105000,7.16210498046875,0.0006313323974609375,-0.5707926750183105,0.16540086269378662
1773049369392003800,7.17200390625,-1.383498191833496,-0.5613811016082764,-0.1940840482711792
1773049369401973800,7.181973876953125,-0.04354572296142578,-0.6699168682098389,0.937856912612915
1773049369412035300,7.192035400390625,-0.6927108764648438,-0.7262111902236938,0.5179612636566162
1773049369422014500,7.202014404296875,0.13461875915527344,-0.7244707345962524,-0.411423921585083
1773049369431989200,7.2119892578125,0.0719289779663086,-0.6941820979118347,0.6127216815948486
1773049369441968000,7.221968017578125,-0.6349430084228516,-0.926568865776062,0.012652397155761719
1773049369451943400,7.231943359375,-0.13244152069091797,-0.6951851844787598,-0.18996942043304443
1773049369461921800,7.241921875,-0.590576171875,-0.44545936584472656,-0.261816143989563
1773049369471897300,7.2518974609375,-0.30797767639160156,-0.8930676579475403,0.7832927703857422
1773049369481875500,7.26187548828125,-0.2214822769165039,-0.6659945845603943,0.3237581253051758
1773049369491851500,7.2718515625,-1.0183534622192383,-0.722094714641571,-0.5860576629638672
1773049369501829400,7.281829345703125,0.8168468475341797,-0.9247832894325256,0.9464571475982666
1773049369511709400,7.29170947265625,-0.10637474060058594,-0.612229585647583,0.8687577247619629
1773049369521570600,7.301570556640625,0.0032339096069335938,-0.6785479187965393,-0.5017859935760498
1773049369531759400,7.31175927734375,0.7529268264770508,-1.125171422958374,0.6131503582000732
1773049369541741300,7.3217412109375,0.001407623291015625,-0.5508517622947693,-0.17319726943969727
1773049369551713500,7.331713623046875,-0.20859432220458984,-0.49848002195358276,0.32301390171051025
1773049369561694500,7.341694580078125,0.6795768737792969,-0.6900355219841003,-0.3283426761627197
1773049369571667700,7.351667724609375,-0.2625732421875,-1.0483113527297974,-0.010202527046203613
1773049369581647600,7.361647705078125,-0.2000274658203125,-0.6178423166275024,-0.40087687969207764
1773049369591621600,7.37162158203125,0.07693290710449219,-0.3088603615760803,-0.24412786960601807
1773049369601601300,7.381601318359375,1.3987817764282227,-0.5491860508918762,0.30146491527557373
1773049369611575800,7.391575927734375,-0.37572479248046875,-0.8989728689193726,0.0038945674896240234
1773049369621555000,7.401554931640625,-0.38928985595703125,-0.5846942663192749,-0.40602409839630127
1773049369631530000,7.411530029296875,0.9098720550537109,-0.6158574819564819,0.918428897857666
1773049369641508600,7.421508544921875,1.4039592742919922,-0.5183632969856262,0.029705286026000977
1773049369651484000,7.43148388671875,-0.599583625793457,-0.49277910590171814,-0.14899814128875732
1773049369661462300,7.441462158203125,-0.03962898254394531,-0.7397393584251404,-0.0654374361038208
1773049369671438000,7.45143798828125,-0.4642448425292969,-0.5761247277259827,-0.06726133823394775
1773049369681416200,7.461416259765625,0.17183589935302734,-0.551271378993988,-0.19904828071594238
1773049369691392000,7.47139208984375,-0.4488649368286133,-0.5455264449119568,-0.039566874504089355
1773049369701369900,7.481369873046875,-0.29003047943115234,-0.8023977875709534,-0.0876913070678711
1773049369711346200,7.49134619140625,0.5270204544067383,-0.7244410514831543,-0.24280214309692383
1773049369721323800,7.50132373046875,-0.25224876403808594,-0.2363339364528656,0.6048994064331055
1773049369731300400,7.51130029296875,0.4642066955566406,-0.37542247772216797,0.13383305072784424
1773049369741277700,7.521277587890625,0.191314697265625,-0.7329418659210205,0.07347965240478516
1773049369751254300,7.531254150390625,-0.9833383560180664,-0.6129868030548096,0.23623967170715332
1773049369761232000,7.54123193359375,0.35570240020751953,-0.4222739636898041,-0.0037194490432739258
1773049369771208400,7.55120849609375,0.11642265319824219,-0.5516112446784973,0.548163890838623
1773049369781185800,7.561185791015625,-0.8049707412719727,-0.6278387308120728,-0.1782691478729248
1773049369791162400,7.571162353515625,-0.04864788055419922,-0.7036517858505249,0.11542356014251709
1773049369801139700,7.5811396484375,-0.3349781036376953,-0.5557201504707336,-0.21987712383270264
1773049369811019800,7.591019775390625,0.6253833770751953,-0.8178837895393372,0.3422895669937134
1773049369820881200,7.600881103515625,-0.010997772216796875,-0.3067365884780884,-0.45849597454071045
1773049369831070500,7.611070556640625,-0.3597145080566406,-0.26521357893943787,0.5317337512969971
1773049369841052000,7.621052001953125,1.593210220336914,-0.8958545923233032,0.07499265670776367
1773049369851024600,7.631024658203125,-1.3028945922851562,-0.3790878653526306,-0.2670474052429199
1773049369861005000,7.641005126953125,-0.6652708053588867,-0.6001836657524109,0.7460837364196777
1773049369870978600,7.650978515625,1.565530776977539,-0.28951963782310486,-0.2226858139038086
1773049369880958500,7.66095849609375,-0.9876689910888672,-0.7399238348007202,0.2869443893432617
1773049369890894000,7.67089404296875,0.21282672882080078,-0.423805296421051,0.28586554527282715
1773049369900869400,7.680869384765625,-0.15999412536621094,-0.5249471068382263,-0.4374650716781616
1773049369910887000,7.690886962890625,0.3556356430053711,-1.1072001457214355,1.0093331336975098
1773049369920866600,7.700866455078125,0.4695472717285156,-0.7839412093162537,0.04110610485076904
1773049369930840800,7.7108408203125,-1.1783246994018555,-0.3118242025375366,-1.469531536102295
1773049369940820000,7.720820068359375,1.917403221130371,-0.8465198278427124,1.173254132270813
1773049369950795000,7.730794921875,0.0657033920288086,-0.4900325834751129,-0.31847691535949707
1773049369960773600,7.740773681640625,-2.1487622261047363,-0.2700746953487396,0.503373384475708
1773049369970749200,7.750749267578125,1.3311185836791992,-0.4422464370727539,-0.13347077369689941
1773049369980727600,7.7607275390625,0.37790966033935547,-0.8243167400360107,-0.6283210515975952
1773049369990703000,7.770703125,-1.5277252197265625,-0.7084822058677673,0.7623085975646973
1773049370000681200,7.78068115234375,-0.0921945571899414,-0.41791701316833496,-0.5181888341903687
1773049370010657300,7.7906572265625,2.0506715774536133,-0.8342777490615845,0.8832875490188599
1773049370020635100,7.80063525390625,-0.8419456481933594,-0.6896349787712097,0.05273544788360596
1773049370030611500,7.810611572265625,-1.2367029190063477,-0.5620899796485901,-0.9578093886375427
1773049370040589000,7.820589111328125,1.1526641845703125,-0.7497619390487671,0.6786080598831177
1773049370050565400,7.8305654296875,0.6867198944091797,-0.777998149394989,0.1836632490158081
1773049370060543000,7.84054296875,-1.2194929122924805,-0.23738107085227966,-0.19603800773620605
1773049370070519600,7.85051953125,-0.7298259735107422,-0.4969792068004608,0.06538534164428711
1773049370080497000,7.860496826171875,1.6672554016113281,-0.7834256291389465,-0.389873743057251
1773049370090473700,7.8704736328125,-1.2337961196899414,-0.5510225892066956,0.12401473522186279
1773049370100451000,7.880451171875,-0.9344930648803711,-0.5536678433418274,0.5675528049468994
1773049370110427600,7.890427734375,2.1503963470458984,-0.749565064907074,-0.3209688663482666
1773049370120405000,7.900405029296875,-1.2765607833862305,-0.4978313744068146,-0.43663549423217773
1773049370130381800,7.9103818359375,-1.0583925247192383,-0.6000959277153015,0.2903186082839966
1773049370140359200,7.920359130859375,0.6100358963012695,-0.681364893913269,0.3196394443511963
1773049370150336000,7.9303359375,-0.1266326904296875,-0.5323073863983154,-0.012925386428833008
1773049370160313000,7.94031298828125,-1.1092424392700195,-0.5734966993331909,0.42128968238830566
1773049370170290000,7.9502900390625,-0.17564773559570312,-0.5918814539909363,-0.28844642639160156
1773049370180267300,7.960267333984375,0.9894018173217773,-0.6576584577560425,-0.6368517875671387
1773049370190244000,7.970244140625,-0.8456106185913086,-0.502845048904419,1.1619244813919067
1773049370200221200,7.98022119140625,0.1683053970336914,-0.602665364742279,-0.02618539333343506
1773049370210198300,7.9901982421875,0.8697710037231445,-0.7246517539024353,-0.5980186462402344
1773049370220175400,8.00017529296875,-1.0413198471069336,-0.7948964834213257,0.6081792116165161
1773049370230152200,8.010152099609375,0.4122591018676758,-0.411975234746933,-0.5772233009338379
1773049370240129300,8.02012939453125,0.8217153549194336,-0.6355188488960266,0.8108597993850708
1773049370250106400,8.0301064453125,-0.31618690490722656,-0.5863268971443176,-0.32802271842956543
1773049370260083500,8.04008349609375,-1.3656225204467773,-0.22823959589004517,-0.20124661922454834
1773049370270060500,8.050060546875,0.7954387664794922,-0.7919386029243469,1.186314582824707
1773049370280037600,8.06003759765625,0.631439208984375,-0.43225306272506714,-1.0874428749084473
1773049370290014500,8.070014404296876,-1.4892330169677734,-0.708615779876709,-0.004106283187866211
1773049370299991600,8.079991455078124,0.39529991149902344,-0.49674439430236816,0.4362088441848755
1773049370309968600,8.08996875,-0.45508575439453125,-0.6356915831565857,-0.7249051332473755
1773049370319945700,8.09994580078125,0.8488960266113281,-0.8301625847816467,0.40989601612091064
1773049370329922800,8.1099228515625,-0.5417842864990234,-0.46077480912208557,0.23461377620697021
1773049370339899600,8.119899658203124,-0.33063411712646484,-0.5996307134628296,-0.4662266969680786
1773049370349876700,8.129876708984375,0.8975057601928711,-0.6215500235557556,0.2955591678619385
1773049370359853800,8.139853759765625,0.11251544952392578,-0.5451268553733826,-0.13806653022766113
1773049370369831000,8.149830810546876,-0.025913238525390625,-0.2817594110965729,0.041895270347595215
1773049370379808000,8.15980810546875,-0.1929330825805664,-0.6401278972625732,0.8342159986495972
1773049370389784800,8.169784912109375,-0.03457832336425781,-0.7155255675315857,-0.3584766387939453
1773049370399762000,8.179761962890625,-1.1322212219238281,-0.5288061499595642,0.048860907554626465
1773049370409739000,8.189739013671876,1.4531898498535156,-0.7379566431045532,0.19951188564300537
1773049370419716000,8.199716064453124,0.15175724029541016,-0.5408133864402771,-0.5961800813674927
1773049370429693200,8.209693115234375,-0.7838907241821289,-0.712417483329773,-0.12646055221557617
1773049370439670300,8.219670166015625,1.1896247863769531,-0.4583266079425812,0.7344843149185181
1773049370449647000,8.229647216796875,1.2869062423706055,-1.003307819366455,0.26003289222717285
1773049370459624200,8.239624267578124,-0.07222461700439453,-0.49879127740859985,-0.5508432388305664
1773049370469601300,8.249601318359375,-1.29339599609375,-0.299242228269577,0.20757603645324707
1773049370479578400,8.259578369140625,2.0553207397460938,-0.7358021140098572,0.17827463150024414
1773049370489555500,8.269555419921875,-0.6605978012084961,-0.5291937589645386,-0.3255101442337036
1773049370499532300,8.2795322265625,-1.9955134391784668,-0.4915198087692261,0.13438594341278076
1773049370509509400,8.28950927734375,0.4105033874511719,-0.6578382849693298,0.7387882471084595
1773049370519486500,8.299486572265625,1.2160024642944336,-0.9337804913520813,-0.6017252206802368
1773049370529463600,8.309463623046875,-0.37194061279296875,-0.5494198799133301,-0.2368713617324829
1773049370539440600,8.319440673828124,-0.6576862335205078,-0.663054347038269,0.36600589752197266
1773049370549417700,8.329417724609375,1.6778039932250977,-0.7617897987365723,-0.2990685701370239
1773049370559394600,8.33939453125,-0.45081329345703125,-0.6173139810562134,0.4030332565307617
1773049370569294000,8.349294189453126,-0.8559713363647461,-0.5740220546722412,0.6852970123291016
1773049370579263500,8.359263427734374,0.38231658935546875,-0.7532211542129517,-0.6012206077575684
1773049370589325800,8.369325927734375,-1.394089698791504,-0.6467583775520325,-0.06702291965484619
1773049370599304400,8.379304443359375,-0.3453969955444336,-0.406857430934906,0.6824915409088135
1773049370609279700,8.38927978515625,0.5527877807617188,-0.4817800521850586,-0.3094066381454468
1773049370619258000,8.399258056640624,-0.742034912109375,-0.9233652949333191,0.2930293083190918
1773049370629234000,8.40923388671875,-0.7927274703979492,-0.7001473903656006,0.5837063789367676
1773049370639212000,8.4192119140625,0.4742603302001953,-0.43055596947669983,-0.8898558616638184
1773049370649188000,8.42918798828125,1.0689067840576172,-0.24196289479732513,-0.12192070484161377
1773049370659166000,8.439166015625,-1.2379264831542969,-0.5491653680801392,0.1361217498779297
1773049370669142000,8.44914208984375,0.21097660064697266,-0.7341412901878357,-0.03356921672821045
1773049370679120000,8.459119873046875,0.8169097900390625,-0.7648923397064209,0.47835230827331543
1773049370689096200,8.46909619140625,-0.4932241439819336,-0.15668529272079468,-0.9160993695259094
1773049370699073800,8.47907373046875,-0.5114641189575195,-0.332560271024704,1.055959939956665
1773049370709050400,8.48905029296875,0.21556663513183594,-0.684190571308136,-0.2683837413787842
1773049370719027700,8.49902783203125,-1.2938556671142578,-0.5543573498725891,-0.9770228266716003
1773049370729004300,8.50900439453125,0.1030120849609375,-0.8532040119171143,0.9558672904968262
1773049370738981600,8.518981689453126,1.1478490829467773,-0.5162177681922913,0.3851374387741089
1773049370748958500,8.52895849609375,0.19475460052490234,-0.4731450080871582,-0.3385502099990845
1773049370758935800,8.538935791015625,0.21266555786132812,-0.34845396876335144,-0.22901082038879395
1773049370768757800,8.5487578125,-0.3320350646972656,-0.5672063827514648,0.6486668586730957
1773049370778719500,8.558719482421875,0.02160167694091797,-0.4139454662799835,-0.5628674030303955
1773049370788866300,8.5688662109375,-0.22710323333740234,-0.6670854687690735,0.5146323442459106
1773049370798847000,8.578846923828126,0.22661876678466797,-0.41272252798080444,-0.004181027412414551
1773049370808820500,8.588820556640625,-1.3734512329101562,-0.3982861638069153,0.5324572324752808
1773049370818800400,8.59880029296875,0.5768117904663086,-0.6701634526252747,-0.5048835277557373
1773049370828774700,8.608774658203124,0.09290409088134766,-0.577215313911438,-0.14513707160949707
1773049370838753800,8.61875390625,-0.9193744659423828,-0.35267534852027893,0.1532353162765503
1773049370848728800,8.628728759765625,0.4568052291870117,-0.27659767866134644,0.6776103973388672
1773049370858707700,8.638707763671874,0.3507118225097656,-0.7723540663719177,0.10207700729370117
1773049370868644000,8.64864404296875,-0.815704345703125,-0.3460753262042999,-1.173034906387329
1773049370878618600,8.65861865234375,-0.827610969543457,-0.3166814148426056,0.2799431085586548
1773049370888637000,8.668636962890625,1.0500879287719727,-0.544998049736023,-0.4007467031478882
1773049370898615800,8.67861572265625,-0.5659208297729492,-0.5774630904197693,0.2921578884124756
1773049370908591000,8.688591064453124,-0.683807373046875,-0.49002891778945923,-0.5306837558746338
1773049370928739300,8.7087392578125,0.1252889633178711,-0.28180134296417236,-1.2709057331085205
1773049370938737200,8.718737060546875,-0.48572635650634766,-0.2810622453689575,-0.5738948583602905
1773049370948693500,8.728693603515625,0.5090999603271484,-0.3175402879714966,0.8169165849685669
1773049370958687500,8.7386875,-0.40761470794677734,-0.550773561000824,-0.2300330400466919
1773049370968647700,8.748647705078126,-0.27773094177246094,0.017028719186782837,-2.2637734413146973
1773049370978638000,8.75863818359375,0.08197402954101562,0.2840699851512909,0.6944675445556641
1773049370988601900,8.768601806640625,0.8801803588867188,-0.2841654121875763,-0.09919822216033936
1773049370998589700,8.778589599609376,-0.7289705276489258,-0.5163825154304504,-1.7654098272323608
1773049371008556000,8.78855615234375,-0.08140373229980469,-0.23798495531082153,0.025435209274291992
1773049371018541600,8.79854150390625,2.6022558212280273,-0.10524532943964005,0.38813042640686035
1773049371028510200,8.80851025390625,0.926121711730957,-0.2727736532688141,0.2807929515838623
1773049371038494000,8.818493896484375,-1.1461973190307617,-0.3682382106781006,-1.4735610485076904
1773049371048464100,8.828464111328126,0.42258548736572266,-0.33161595463752747,0.7071081399917603
1773049371058446800,8.83844677734375,1.4253273010253906,-0.494537353515625,0.8400348424911499
1773049371068418300,8.848418212890625,-0.3244667053222656,-0.5048143863677979,-1.0872373580932617
1773049371078399700,8.858399658203124,-0.7144088745117188,-0.6484413146972656,0.34855198860168457
1773049371088372500,8.86837255859375,0.4100685119628906,-0.7046536207199097,1.0820783376693726
1773049371098353200,8.878353271484375,1.2113418579101562,-0.4656051695346832,-0.8018844127655029
1773049371108326700,8.88832666015625,-0.0033426284790039062,-0.5221524238586426,0.4055514335632324
1773049371118306300,8.898306396484376,0.1311502456665039,-0.8220131397247314,0.4438124895095825
1773049371128280600,8.908280517578126,0.80419921875,-0.8593569993972778,0.4718179702758789
1773049371138260000,8.918260009765625,0.5205621719360352,-0.5294547080993652,0.7658077478408813
1773049371148234800,8.92823486328125,-0.10616397857666016,-0.3386688232421875,0.09371626377105713
1773049371158213600,8.938213623046876,-0.42099857330322266,-0.5350475311279297,0.1309283971786499
1773049371168188700,8.948188720703126,-0.4488515853881836,-0.46363765001296997,0.2655106782913208
1773049371178167300,8.958167236328125,-0.5767526626586914,-0.00039292871952056885,0.3176426887512207
1773049371188104000,8.96810400390625,0.049775123596191406,-0.5357639789581299,0.8023594617843628
1773049371198078200,8.978078125,-0.49942588806152344,-0.5348791480064392,0.08759677410125732
1773049371208097000,8.988096923828126,-0.42209815979003906,-0.6294857859611511,0.15593445301055908
1773049371218075600,8.99807568359375,1.1252355575561523,-0.4179389774799347,-0.7408387660980225
1773049371228012300,9.00801220703125,-0.9828319549560547,-0.30726513266563416,0.4685063362121582
1773049371237986600,9.017986572265626,-0.04061412811279297,-0.7836371660232544,0.138940691947937
1773049371247966200,9.02796630859375,0.4462709426879883,-0.6466822624206543,-0.5471193790435791
1773049371257941200,9.037941162109375,-0.5861625671386719,-0.664869487285614,0.2451612949371338
1773049371267920100,9.047920166015626,-0.32747459411621094,-0.3811601996421814,0.2146315574645996
1773049371277895700,9.057895751953126,-0.7330751419067383,-0.19911694526672363,-1.1021084785461426
1773049371287913000,9.067912841796876,-0.6791954040527344,-0.6893933415412903,0.21190392971038818
1773049371297892900,9.077892822265625,-0.1050567626953125,-0.7146470546722412,-0.16224145889282227
1773049371307867100,9.0878671875,-0.8595371246337891,-0.42553049325942993,-0.6773219108581543
1773049371317846300,9.09784619140625,0.712315559387207,-0.7476861476898193,0.7613377571105957
1773049371327782400,9.107782470703125,0.8441600799560547,-0.6865032315254211,-0.6441665887832642
1773049371337757200,9.117757080078125,-0.2755889892578125,-0.46996045112609863,-1.0249080657958984
1773049371347697700,9.12769775390625,0.3833961486816406,-0.396522581577301,0.47222721576690674
1773049371357668900,9.1376689453125,0.45353031158447266,-0.4574139714241028,-0.8778668642044067
1773049371367549000,9.147548828125,-0.33081912994384766,-0.6841225624084473,0.1220707893371582
1773049371377429000,9.157428955078124,-1.432821273803711,-0.2713510990142822,-0.16269171237945557
1773049371387489000,9.167489013671876,0.5415534973144531,-0.3562934994697571,-0.3294999599456787
1773049371397456000,9.177455810546874,-0.20440387725830078,-0.2681019902229309,-0.41244280338287354
1773049371407443000,9.18744287109375,-1.4834423065185547,-0.4435041844844818,-0.9442668557167053
1773049371417411800,9.197411865234375,0.7923898696899414,-0.5315797328948975,0.5415103435516357
1773049371427358200,9.207358154296875,-0.3836097717285156,-0.4440895915031433,-0.5061004161834717
1773049371437324800,9.21732470703125,0.44771480560302734,-0.36167553067207336,-0.07599568367004395
1773049371447234800,9.22723486328125,0.4566764831542969,-0.3936769962310791,-0.49401044845581055
1773049371457195800,9.23719580078125,-0.22249984741210938,-0.5746824741363525,-0.4843616485595703
1773049371467111400,9.247111328125,-1.0759201049804688,-0.10458745807409286,-0.03924143314361572
1773049371477067800,9.25706787109375,-0.46219444274902344,-0.43509215116500854,-0.199843168258667
1773049371487065000,9.267065185546874,1.3622922897338867,-0.16084612905979156,-0.5033174753189087
1773049371497025500,9.277025634765625,-2.4015793800354004,0.15474344789981842,0.49823057651519775
1773049371506980400,9.28698046875,-0.09987735748291016,0.1804889738559723,-0.8459587097167969
1773049371516940300,9.296940185546875,0.6838016510009766,0.3001658022403717,-0.1803605556488037
1773049371526895400,9.306895263671874,-0.45283031463623047,0.4027195870876312,-0.08440351486206055
1773049371536854800,9.316854736328125,-0.035567283630371094,-0.00038935989141464233,0.17552316188812256
1773049371546772200,9.326772216796876,0.08968544006347656,0.28021979331970215,-0.6036944389343262
1773049371556727300,9.336727294921875,0.5099887847900391,0.6015694737434387,-0.5078198909759521
1773049371566726000,9.346725830078125,0.343017578125,-0.10773078352212906,-0.30386972427368164
1773049371576685300,9.356685302734375,-1.1697664260864258,-0.16159293055534363,-0.49571943283081055
1773049371586563800,9.366563720703125,-0.2207183837890625,0.19961947202682495,-0.5347499847412109
1773049371596515300,9.376515380859376,0.8880519866943359,0.3065187335014343,0.19682490825653076
1773049371606478800,9.386478759765625,-0.015155792236328125,-0.43053561449050903,0.9231235980987549
1773049371616431600,9.396431640625,-1.321516990661621,-0.49682289361953735,-1.851563811302185
1773049371626432500,9.4064326171875,-0.8067207336425781,0.1845117211341858,-0.855622410774231
1773049371636390100,9.41639013671875,2.475830078125,-0.6851827502250671,2.494333505630493
1773049371646570000,9.426570068359375,-0.12047958374023438,-0.2858729362487793,-0.9011093378067017
1773049371656750000,9.43675,-2.4913878440856934,-0.4818864166736603,-0.9215089082717896
1773049371666930000,9.446929931640625,1.9631233215332031,-0.8713583946228027,0.9504638910293579
1773049371677036500,9.45703662109375,0.9382781982421875,-0.5181571245193481,0.06326723098754883
1773049371686993700,9.46699365234375,-0.5526895523071289,-0.16886964440345764,-0.17887508869171143
1773049371696987000,9.47698681640625,-0.12543296813964844,-0.609453558921814,-0.45426642894744873
1773049371706947800,9.48694775390625,0.2865171432495117,-0.818863570690155,0.6032682657241821
1773049371716937700,9.496937744140626,0.2866992950439453,-0.5703766942024231,0.7599802017211914
1773049371726902000,9.506902099609375,1.026432991027832,-0.5182316303253174,0.031743645668029785
1773049371736889300,9.516889404296874,0.2176189422607422,-0.442158043384552,-1.1955764293670654
1773049371746856000,9.52685595703125,-0.7610158920288086,-0.29893362522125244,1.3482961654663086
1773049371756841200,9.53684130859375,1.3219432830810547,0.1963513195514679,0.6786625385284424
1773049371766810000,9.54681005859375,1.1707420349121094,-0.4790414571762085,-0.28847944736480713
1773049371776793900,9.5567939453125,-0.9325723648071289,-0.41630974411964417,0.7191683053970337
1773049371786764300,9.566764404296874,-0.20952796936035156,0.10353387892246246,0.01798081398010254
1773049371796746500,9.57674658203125,3.098115921020508,-0.02379778027534485,0.1182394027709961
1773049371806718200,9.58671826171875,0.5318641662597656,-0.1881292164325714,-0.1621227264404297
1773049371816699600,9.59669970703125,-1.2599563598632812,-0.09442181885242462,-0.05012059211730957
1773049371826672400,9.60667236328125,1.0812225341796875,-0.11205409467220306,0.8884162902832031
1773049371836652800,9.61665283203125,1.325850486755371,-0.24046234786510468,0.01718580722808838
1773049371846626600,9.62662646484375,-1.0124797821044922,0.19045647978782654,-0.6021697521209717
1773049371856606200,9.636606201171874,-0.4046812057495117,-0.048830002546310425,0.2417151927947998
1773049371866580500,9.64658056640625,1.3043022155761719,0.11778227984905243,0.1552278995513916
1773049371876559600,9.6565595703125,-0.06962871551513672,-0.09777335822582245,0.05848348140716553
1773049371886534700,9.66653466796875,-1.196711540222168,-0.18368501961231232,0.17305445671081543
1773049371896513300,9.67651318359375,0.30459117889404297,-0.0027576088905334473,-0.4649970531463623
1773049371906488600,9.686488525390626,0.9665679931640625,0.36303985118865967,-0.07127463817596436
1773049371916467000,9.696467041015625,0.23373031616210938,-0.13020819425582886,0.0321274995803833
1773049371926347000,9.706346923828125,-0.8553428649902344,-0.250724732875824,-0.8256765604019165
1773049371936207600,9.71620751953125,-0.40943336486816406,0.0009003579616546631,0.15754187107086182
1773049371946396700,9.726396728515626,1.7247505187988281,0.49531614780426025,0.12337207794189453
1773049371956378600,9.736378662109376,-0.938380241394043,0.11018767952919006,-0.596904993057251
1773049371966350600,9.7463505859375,-2.0147833824157715,0.07141571491956711,-0.7613916397094727
1773049371976331800,9.756331787109374,-1.0741987228393555,0.3040194511413574,-0.33613717555999756
1773049371986304800,9.7663046875,1.5009183883666992,0.14957652986049652,0.13814640045166016
1773049371996285000,9.776284912109375,-0.4737977981567383,-0.15592272579669952,-0.16193020343780518
1773049372006258700,9.7862587890625,-1.6132512092590332,0.06383533030748367,-0.4240531921386719
1773049372016238300,9.79623828125,1.426365852355957,0.23371157050132751,-0.17333030700683594
1773049372026212900,9.806212890625,1.1413240432739258,0.09779705107212067,-0.9961996674537659
1773049372036192000,9.81619189453125,-2.0306668281555176,-0.06025396287441254,-0.22706937789916992
1773049372046166800,9.826166748046875,-1.347172737121582,-0.14173047244548798,-0.007625102996826172
1773049372056145700,9.836145751953126,1.0713472366333008,0.300248384475708,-0.5485897064208984
1773049372066121000,9.846120849609376,0.2621612548828125,0.016486570239067078,-0.2451080083847046
1773049372076099300,9.856099365234375,-1.5564002990722656,0.01723797619342804,0.6727601289749146
1773049372086075000,9.866074951171875,-0.26367759704589844,0.20168694853782654,-0.9108660221099854
1773049372096053000,9.876052978515625,1.0876970291137695,0.2036619335412979,-0.039201974868774414
1773049372106029000,9.886029052734376,0.6320896148681641,-0.09286562353372574,0.897559404373169
1773049372116007000,9.8960068359375,-1.2784557342529297,-0.08903714269399643,-0.48825395107269287
1773049372125886700,9.90588671875,-0.20592880249023438,-0.04747655242681503,-0.31229448318481445
1773049372135747600,9.91574755859375,1.3127002716064453,0.14213159680366516,-0.22175359725952148
1773049372145937000,9.92593701171875,-1.0958795547485352,-0.05985063314437866,-0.4509044885635376
1773049372155918800,9.9359189453125,-1.3552436828613281,0.08292359113693237,0.11086905002593994
1773049372165890800,9.945890869140625,0.6103487014770508,-0.12447679787874222,-0.1621100902557373
1773049372175871700,9.955871826171874,1.0912513732910156,-0.0587586984038353,-0.16661369800567627
1773049372185845000,9.965844970703126,-1.359654426574707,0.260233610868454,-0.39639759063720703
1773049372195825200,9.9758251953125,-0.45844173431396484,-0.07608413696289062,0.20710527896881104
1773049372205799000,9.985798828125,1.5573205947875977,0.146487757563591,-0.39030373096466064
1773049372215778600,9.995778564453126,-0.32201480865478516,-0.05605173856019974,0.17070484161376953
1773049372225658400,10.005658447265626,-0.48311710357666016,-0.028296038508415222,-0.31936323642730713
1773049372235518700,10.015518798828126,-0.03290081024169922,-0.12589824199676514,0.5457357168197632
1773049372245513000,10.025512939453124,1.5279455184936523,0.3684383034706116,-0.792455792427063
1773049372255476200,10.035476318359375,-0.7045211791992188,0.24638554453849792,-0.23164522647857666
1773049372265661000,10.045660888671875,-0.02454376220703125,-0.4945080280303955,0.8151496648788452
1773049372275646500,10.055646484375,0.32921409606933594,0.12581589818000793,-0.6974976062774658
1773049372285615000,10.065614990234375,0.14155960083007812,0.30353984236717224,0.05187201499938965
1773049372295598800,10.075598876953125,1.4017696380615234,-0.3135775029659271,0.6412421464920044
1773049372305569000,10.085569091796875,-1.2409791946411133,-0.023558177053928375,-1.128474473953247
1773049372315551500,10.095551513671875,-0.0020580291748046875,0.21274903416633606,0.021978378295898438
1773049372325431600,10.105431640625,1.807469367980957,-0.0511835440993309,0.6034625768661499
1773049372335291100,10.115291015625,-0.7649316787719727,-0.3816847503185272,-0.4912590980529785
1773049372345283000,10.125282958984375,-1.0876293182373047,0.32074713706970215,-0.29035961627960205
1773049372355248000,10.135248046875,0.9389095306396484,0.2995922565460205,0.8108351230621338
1773049372365431000,10.14543115234375,1.5855627059936523,0.10260235518217087,-1.0081398487091064
1773049372375418000,10.155418212890625,-2.117119312286377,-0.16367550194263458,0.5894714593887329
1773049372385298200,10.165298095703125,-0.049774169921875,0.22377698123455048,0.09785807132720947
1773049372395157000,10.175156982421875,1.5590782165527344,0.12727513909339905,-0.01731252670288086
1773049372405339100,10.185339111328124,-0.5684728622436523,-0.03892240673303604,-0.16950786113739014
1773049372415326700,10.19532666015625,-1.358673095703125,0.1541784107685089,-0.8438080549240112
1773049372425293000,10.20529296875,0.10516357421875,0.14443637430667877,0.12391579151153564
1773049372435278600,10.215278564453126,1.5326166152954102,-0.14520291984081268,0.5413632392883301
1773049372445158700,10.22515869140625,-1.0054969787597656,0.18184059858322144,-0.5585968494415283
1773049372455017700,10.235017822265625,-0.7831583023071289,0.2456817924976349,0.18749713897705078
1773049372465201200,10.245201171875,1.5149602890014648,0.04693460464477539,0.4083622694015503
1773049372475187700,10.255187744140626,-0.3355894088745117,-0.06556926667690277,-1.1674869060516357
1773049372485155000,10.265155029296874,-1.146188735961914,0.18999344110488892,-0.06854665279388428
1773049372495139800,10.275139892578125,1.004983901977539,-0.06595832854509354,0.8445038795471191
1773049372505109200,10.285109130859375,0.8499221801757812,0.012138336896896362,-0.40082991123199463
1773049372515092500,10.295092529296875,-1.2809019088745117,0.061693012714385986,-0.6509710550308228
1773049372524972300,10.30497216796875,0.23555660247802734,0.1830359399318695,0.10485708713531494
1773049372534831900,10.314831787109375,0.6409435272216797,0.3559049665927887,0.18119239807128906
1773049372545017000,10.32501708984375,-0.23398590087890625,0.50010085105896,-0.35299789905548096
1773049372555002400,10.33500244140625,-0.8059015274047852,-0.19105488061904907,0.6621931791305542
1773049372564971300,10.34497119140625,0.2415637969970703,0.01164449006319046,-0.5736465454101562
1773049372574954800,10.354954833984374,-0.4033336639404297,0.3133314847946167,0.08446705341339111
1773049372584925200,10.36492529296875,0.9482889175415039,-0.09193835407495499,-0.4022691249847412
1773049372594907600,10.37490771484375,-0.6187953948974609,0.03944385051727295,-0.22424530982971191
1773049372604879400,10.38487939453125,-0.8273811340332031,0.2881193161010742,0.10098826885223389
1773049372614860500,10.394860595703125,1.7048654556274414,0.1265334039926529,-0.3990964889526367
1773049372624740600,10.40474072265625,-1.2298049926757812,0.08396780490875244,-0.34230709075927734
1773049372634600400,10.414600341796875,-0.6775693893432617,0.2043505311012268,-0.3025549650192261
1773049372644787200,10.424787109375,0.9902477264404297,0.22846238315105438,-0.09229004383087158
1773049372654771200,10.434771240234374,0.004886627197265625,-0.07162526249885559,0.18475675582885742
1773049372664741000,10.4447412109375,-0.5768718719482422,0.054363347589969635,-0.09253990650177002
1773049372674723800,10.454723876953125,0.24100971221923828,0.05471432954072952,0.06692194938659668
1773049372684695300,10.4646953125,1.4481334686279297,0.2701037526130676,-0.44566798210144043
1773049372694676700,10.4746767578125,-1.3710927963256836,0.060649432241916656,0.3795316219329834
1773049372704649500,10.4846494140625,0.24081707000732422,0.20008954405784607,-0.39431333541870117
1773049372714630000,10.4946298828125,0.5029315948486328,0.14308467507362366,0.03653717041015625
1773049372724603400,10.504603271484376,-0.03798484802246094,0.18648450076580048,-0.5227174758911133
1773049372734583300,10.514583251953125,-0.5150871276855469,-0.08965194225311279,0.3267524242401123
1773049372744463000,10.524463134765625,0.30643749237060547,0.2537885904312134,-1.4828968048095703
1773049372754323500,10.534323486328125,0.038204193115234375,-0.13289031386375427,0.7800567150115967
1773049372764511200,10.54451123046875,0.2194690704345703,0.22288668155670166,0.1579875946044922
1773049372774494200,10.554494140625,-1.9717535972595215,0.34690576791763306,-0.5813322067260742
1773049372784465400,10.56446533203125,1.9694747924804688,-0.14520873129367828,0.008976221084594727
1773049372794447000,10.574447021484374,-0.27346229553222656,0.02057717740535736,1.0974714756011963
1773049372804419300,10.58441943359375,-1.8386225700378418,0.1681838035583496,-0.7433960437774658
1773049372814400300,10.594400146484375,1.6973562240600586,0.35960423946380615,1.136573314666748
1773049372824280300,10.6042802734375,1.0017566680908203,-0.26003170013427734,0.22523164749145508
1773049372834140200,10.61414013671875,-1.4497032165527344,0.12334483116865158,-0.694074273109436
1773049372844133000,10.624133056640625,-0.9108133316040039,0.06272410601377487,-0.07752203941345215
1773049372854097400,10.634097412109375,1.3109493255615234,0.4020504355430603,-0.5952587127685547
1773049372864281000,10.644281005859375,0.1294422149658203,-0.1983882188796997,0.8605486154556274
1773049372874267400,10.654267333984375,-1.268712043762207,-0.0803808718919754,-0.13806402683258057
1773049372884235300,10.6642353515625,0.09002304077148438,0.2118241786956787,-1.131453514099121
1773049372894219800,10.6742197265625,1.9470138549804688,0.33738356828689575,0.6618024110794067
1773049372904189200,10.684189208984375,0.2576303482055664,0.009166419506072998,-0.12573730945587158
1773049372914172200,10.694172119140624,-1.3269386291503906,0.05442100763320923,-1.213545560836792
1773049372924052200,10.70405224609375,0.3990592956542969,0.2745790481567383,1.180645227432251
1773049372933911800,10.713911865234374,1.3153343200683594,-0.22606268525123596,0.18813872337341309
1773049372943903200,10.7239033203125,-0.5357494354248047,0.4379849433898926,-1.7882815599441528
1773049372953868500,10.73386865234375,-1.001418113708496,0.203897625207901,0.7999343872070312
1773049372964051200,10.74405126953125,1.5308828353881836,0.6633397340774536,0.14226126670837402
1773049372974038500,10.75403857421875,-1.9374337196350098,-0.18788370490074158,0.5375151634216309
1773049372984005000,10.764005126953125,0.05303955078125,-0.19112998247146606,-1.0478277206420898
1773049372993990400,10.773990478515625,0.5974311828613281,0.25384771823883057,-0.3908674716949463
1773049373003959300,10.783959228515625,1.063694953918457,0.15306054055690765,1.0923993587493896
1773049373013942800,10.79394287109375,-0.07918643951416016,0.13912731409072876,-0.48332738876342773
1773049373023913200,10.803913330078124,-0.575993537902832,-0.20070014894008636,-0.4618222713470459
1773049373033895700,10.813895751953124,-0.10638046264648438,0.2018856704235077,0.5945930480957031
1773049373043775500,10.823775390625,-0.5403385162353516,-0.07076537609100342,0.22328448295593262
1773049373053635300,10.83363525390625,1.0839920043945312,0.3307783305644989,-1.3439404964447021
1773049373063821000,10.843821044921874,-1.7681984901428223,0.5827300548553467,0.9996750354766846
1773049373073805800,10.853805908203125,1.2623414993286133,-0.6294193267822266,1.1030173301696777
1773049373083775200,10.863775146484375,-0.5589818954467773,0.6880879402160645,-1.7015913724899292
1773049373093758200,10.87375830078125,0.33107757568359375,0.11094260215759277,1.3104784488677979
1773049373103768000,10.88376806640625,2.319748878479004,0.1355697512626648,-0.1530853509902954
1773049373113753900,10.89375390625,-2.8245973587036133,-0.05520036816596985,-0.22242343425750732
1773049373123634000,10.903634033203126,1.0810546875,0.09583942592144012,0.44525861740112305
1773049373133450200,10.9134501953125,1.3462066650390625,0.37183889746665955,-0.5655136108398438
1773049373143637200,10.92363720703125,-0.872126579284668,0.18281283974647522,0.5377810001373291
1773049373153621000,10.93362109375,-0.8363065719604492,0.02967587113380432,-0.5105552673339844
1773049373163591200,10.943591064453125,-0.0705718994140625,-0.038094937801361084,-0.6785323619842529
1773049373173573600,10.95357373046875,0.7029552459716797,0.36263808608055115,-0.025248169898986816
1773049373183545000,10.963545166015624,-0.2773723602294922,0.1793997585773468,1.0705163478851318
1773049373193526500,10.973526611328126,0.5344715118408203,-0.00832928717136383,-1.1492934226989746
1773049373203499300,10.983499267578125,-0.9130516052246094,0.12948179244995117,-0.22490179538726807
1773049373213479700,10.993479736328124,-0.38074588775634766,0.1103251725435257,0.9180052280426025
1773049373223359700,11.00335986328125,0.42721080780029297,0.08564332127571106,0.18587422370910645
1773049373233219800,11.0132197265625,1.079880714416504,-0.2923738956451416,0.44151830673217773
1773049373243213000,11.023213134765625,-0.4354391098022461,0.3667277991771698,-0.5793509483337402
1773049373253176800,11.0331767578125,-0.08611488342285156,0.3021179139614105,0.9907481670379639
1773049373263361000,11.043361083984376,2.0720605850219727,0.018837541341781616,-0.2298949956893921
1773049373273347000,11.05334716796875,-1.0449914932250977,-0.06397594511508942,-1.0047706365585327
1773049373283315000,11.06331494140625,-1.600329875946045,-0.12120617926120758,1.940605878829956
1773049373293299200,11.07329931640625,0.9861612319946289,0.47380340099334717,-0.8417588472366333
1773049373303269000,11.08326904296875,1.1306829452514648,0.211825430393219,-1.312384843826294
1773049373313251800,11.093251953125,-1.3581066131591797,0.017489656805992126,1.3108036518096924
1773049373323223000,11.10322314453125,-1.5743813514709473,-0.021293431520462036,-0.8373399972915649
1773049373333204700,11.113204833984375,1.3303470611572266,-0.21932697296142578,1.4727082252502441
1773049373343177200,11.12317724609375,0.978973388671875,0.24426718056201935,-0.38244199752807617
1773049373353158000,11.133157958984375,-1.3781652450561523,1.0994551181793213,-1.2036871910095215
1773049373363131100,11.143131103515625,0.4052143096923828,-0.1218157634139061,2.346534252166748
1773049373373111000,11.153111083984374,-0.6834621429443359,-0.3638181984424591,-0.21629035472869873
1773049373383085000,11.1630849609375,-2.4341816902160645,0.4273815453052521,-2.477602958679199
1773049373393064400,11.173064453125,0.6589689254760742,0.4970848560333252,3.3522140979766846
1773049373403039200,11.183039306640625,2.5525808334350586,-0.28025752305984497,-0.4390714168548584
1773049373413018000,11.19301806640625,-2.7048001289367676,0.10339833796024323,-2.945760726928711
1773049373422898200,11.202898193359376,-0.6258153915405273,0.5179719924926758,1.239698886871338
1773049373432758500,11.212758544921876,2.4589366912841797,-0.31325697898864746,1.023486852645874
1773049373442753000,11.2227529296875,-0.7502927780151367,-0.1593140810728073,-0.7314695119857788
1773049373452715800,11.2327158203125,-2.1431918144226074,0.681510865688324,-1.6703413724899292
1773049373462900700,11.242900634765626,1.789163589477539,0.002014927566051483,0.4068063497543335
1773049373472886300,11.25288623046875,1.3552913665771484,-0.658133864402771,2.448031425476074
1773049373482855000,11.26285498046875,-1.8511900901794434,-0.006601929664611816,-1.426424503326416
1773049373492838700,11.272838623046875,-0.4989967346191406,1.0970849990844727,-0.9590244293212891
1773049373502808800,11.282808837890625,2.570572853088379,-0.4645743668079376,2.2865209579467773
1773049373512791300,11.292791259765625,-1.2102394104003906,-0.4409438967704773,-0.33042025566101074
1773049373522671000,11.302671142578125,-0.5909318923950195,-0.12719543278217316,-0.7697799205780029
1773049373532531000,11.312531005859375,2.2154626846313477,0.22280651330947876,0.4912208318710327
1773049373542717000,11.322717041015625,0.7450742721557617,0.01393119990825653,0.8744651079177856
1773049373552701400,11.332701416015626,-0.13510704040527344,-0.17210762202739716,-1.4803190231323242
1773049373562670800,11.3426708984375,-0.044875144958496094,0.21810080111026764,-0.717927098274231
1773049373572654000,11.352654052734374,0.3851041793823242,-0.18337348103523254,1.5049808025360107
1773049373582624800,11.362624755859375,0.45563316345214844,0.7040306329727173,-0.7812597751617432
1773049373592606700,11.372606689453125,0.2578573226928711,-0.07430051267147064,-0.6752907037734985
1773049373602579000,11.382578857421874,1.3267784118652344,-0.6556631326675415,0.21659815311431885
1773049373612560000,11.392559814453126,-1.0147590637207031,0.42000287771224976,1.6142899990081787
1773049373622532900,11.402532958984375,1.6925783157348633,0.5935336947441101,-1.425706148147583
1773049373632513000,11.412512939453125,0.8684501647949219,0.22793596982955933,0.24093031883239746
1773049373642487000,11.422487060546874,-2.510341167449951,-0.40074723958969116,-0.21897292137145996
1773049373652466400,11.432466552734375,-1.6001906394958496,0.14624330401420593,-0.6682775020599365
1773049373662441000,11.44244091796875,2.4984445571899414,-0.3660404682159424,1.7673712968826294
1773049373672419800,11.452419921875,1.8049211502075195,0.2521839737892151,-0.7949329614639282
1773049373682395000,11.462394775390624,-2.3232693672180176,0.2588244676589966,-0.9659663438796997
1773049373692373500,11.47237353515625,1.5422143936157227,0.15564733743667603,0.7631218433380127
1773049373702348800,11.482348876953125,-1.0003232955932617,-0.27895277738571167,0.17651081085205078
1773049373712327200,11.4923271484375,-3.5478763580322266,0.25025632977485657,-2.4394311904907227
1773049373722207200,11.502207275390624,-2.9459972381591797,0.7267511487007141,0.18949401378631592
1773049373732067600,11.512067626953124,-2.4481987953186035,-0.19406616687774658,0.5836063623428345
1773049373742257000,11.5222568359375,-0.8070135116577148,-0.4363236725330353,1.0952216386795044
1773049373752238800,11.53223876953125,1.0158090591430664,0.705368161201477,0.5479087829589844
1773049373762210800,11.5422109375,3.091794013977051,-0.05248686671257019,0.8581662178039551
1773049373772191700,11.552191650390625,0.5574264526367188,0.1011127457022667,2.269709348678589
1773049373782164700,11.562164794921875,-1.5362215042114258,-0.035063110291957855,0.43095505237579346
1773049373792145200,11.572145263671874,0.1600637435913086,-0.3705522418022156,-1.5981109142303467
1773049373802119000,11.582118896484374,-2.7190423011779785,0.2247481346130371,0.28554999828338623
1773049373812098300,11.592098388671875,-0.50286865234375,0.8851504325866699,0.7016737461090088
1773049373822072800,11.60207275390625,1.2688322067260742,-0.43472224473953247,-0.4091670513153076
1773049373832052000,11.612052001953124,-1.4930429458618164,0.2937299609184265,-2.1855125427246094
1773049373842026800,11.62202685546875,0.5388565063476562,0.17825578153133392,2.0901706218719482
1773049373852005600,11.632005615234375,4.179096221923828,0.3962739109992981,0.6429351568222046
1773049373861981000,11.64198095703125,0.9836912155151367,-0.27328383922576904,-1.3790539503097534
1773049373871959300,11.651959228515626,0.4169492721557617,0.04874560236930847,0.8059810400009155
1773049373881934800,11.661934814453126,0.4108591079711914,0.28241437673568726,-0.049637675285339355
1773049373891913000,11.671912841796875,1.0231828689575195,-0.41393327713012695,-1.6305450201034546
1773049373901888800,11.681888671875,-0.45478057861328125,-0.3641563057899475,-0.03849375247955322
1773049373911866600,11.69186669921875,-1.566533088684082,0.36092570424079895,-0.1723860502243042
1773049373921843000,11.701843017578126,1.023015022277832,0.07157734781503677,-0.3369201421737671
1773049373931820500,11.711820556640625,0.2898120880126953,-0.1049601137638092,-0.39414656162261963
1773049373941796900,11.721796875,0.5458545684814453,0.04764430224895477,-0.6115851402282715
1773049373951774500,11.7317744140625,0.6921558380126953,-0.08654026687145233,0.9873738288879395
1773049373961751000,11.7417509765625,1.6632614135742188,-0.2373516857624054,-0.5594437122344971
1773049373971728400,11.751728271484374,1.586634635925293,-0.4451301693916321,-0.6064591407775879
1773049373981705000,11.761705078125,-0.17446327209472656,0.1260593831539154,0.8532308340072632
1773049373991682300,11.771682373046875,0.2027263641357422,-0.3128729462623596,-0.3640940189361572
1773049374001659000,11.781658935546876,0.7121200561523438,-0.024996966123580933,-0.20437753200531006
1773049374011636200,11.79163623046875,-2.081754207611084,-0.051580771803855896,0.44379866123199463
1773049374021612800,11.80161279296875,-0.7497634887695312,-0.03501950204372406,-0.12503695487976074
1773049374031590100,11.811590087890625,0.0493316650390625,0.0007721185684204102,-0.4807772636413574
1773049374041567000,11.82156689453125,0.655543327331543,-0.009849533438682556,0.39588308334350586
1773049374051544000,11.8315439453125,-0.027887344360351562,0.04287261515855789,0.9184939861297607
1773049374061521000,11.84152099609375,1.2562036514282227,0.03603536635637283,-1.510686993598938
1773049374071498000,11.851498046875,1.5587959289550781,-0.05058770626783371,0.6565523147583008
1773049374081474800,11.861474853515626,-0.09097671508789062,0.08833330869674683,-0.5115506649017334
1773049374091452000,11.871451904296874,-0.12087059020996094,0.18419232964515686,-0.7129453420639038
1773049374101429000,11.881428955078125,0.3429746627807617,-0.7421133518218994,1.6997628211975098
1773049374111406000,11.891406005859375,-1.3659162521362305,0.48798197507858276,-1.686815619468689
1773049374121383000,11.9013828125,0.30158519744873047,1.4420325756072998,-1.3236632347106934
1773049374131360000,11.911360107421874,1.0069169998168945,0.03475232422351837,2.5721206665039062
1773049374141298200,11.921298095703126,-2.1829915046691895,-0.2532050907611847,-0.08803391456604004
1773049374151271200,11.931271240234375,-1.5339698791503906,0.7231415510177612,-2.5412473678588867
1773049374161291000,11.941291015625,2.4159841537475586,0.3994079530239105,2.267568588256836
1773049374171268900,11.951268798828124,1.641500473022461,-0.7742308378219604,0.501600980758667
1773049374181245000,11.961244873046875,-2.303994655609131,0.035396985709667206,-2.10469388961792
1773049374191222500,11.971222412109375,2.178760528564453,-0.21787619590759277,2.0781338214874268
1773049374201199000,11.98119921875,1.2136516571044922,-0.383584588766098,0.09340906143188477
1773049374211176400,11.991176513671874,-2.283576488494873,0.5977678894996643,-2.712740421295166
1773049374221153000,12.001153076171875,0.36403465270996094,0.8010029792785645,2.1358859539031982
1773049374231130400,12.01113037109375,0.42882633209228516,-0.46853604912757874,0.39812779426574707
1773049374241010400,12.021010498046875,-3.1765241622924805,-0.6885011792182922,0.2959250211715698
1773049374250871300,12.030871337890625,-1.7725129127502441,0.8764855861663818,0.08870673179626465
1773049374261060900,12.041060791015624,1.6086549758911133,0.3404305875301361,1.2472381591796875
1773049374271042600,12.05104248046875,1.677572250366211,-1.3203721046447754,2.543574094772339
1773049374281015000,12.06101513671875,-5.3438496589660645,-0.05506975203752518,-1.0101885795593262
1773049374290995500,12.070995361328125,1.8174819946289062,1.1352148056030273,-1.7355961799621582
1773049374300969000,12.080968994140624,5.974761009216309,-0.21728618443012238,0.8388415575027466
1773049374310948900,12.090948974609375,-3.5839672088623047,-0.6156994104385376,1.6755410432815552
1773049374320923100,12.100923095703125,-0.567622184753418,0.015785254538059235,-2.4065611362457275
1773049374330902300,12.11090234375,2.2492008209228516,0.5032014846801758,-2.4798407554626465
1773049374340782300,12.1207822265625,-2.0421271324157715,-0.5301326513290405,3.615553379058838
1773049374350642700,12.130642578125,-2.3351235389709473,0.3033915162086487,-0.9771568775177002
1773049374360831000,12.1408310546875,-1.0307044982910156,0.9382402896881104,-2.1655561923980713
1773049374370813700,12.150813720703125,2.3449649810791016,-0.2553322911262512,2.2845511436462402
1773049374380785000,12.160784912109374,-1.9000649452209473,0.05617208033800125,-0.05085575580596924
1773049374390766600,12.1707666015625,-2.7591805458068848,1.1719335317611694,-1.1627049446105957
1773049374400739000,12.180739013671875,4.123212814331055,0.15584877133369446,-0.25785887241363525
1773049374410719700,12.1907197265625,-0.9016990661621094,-0.42462074756622314,0.17390871047973633
1773049374420693000,12.20069287109375,-1.5987987518310547,0.6290163397789001,-0.998624324798584
1773049374430673200,12.210673095703125,1.2942190170288086,0.4953714907169342,-1.0208617448806763
1773049374440647200,12.220647216796875,-0.25644588470458984,-0.8296878337860107,-0.31206345558166504
1773049374450626600,12.23062646484375,-4.341312408447266,0.12981580197811127,-0.5344008207321167
1773049374460484900,12.24048486328125,0.940216064453125,0.4437434673309326,0.4652378559112549
1773049374470452000,12.250451904296876,2.5119457244873047,-0.6508204936981201,-0.3018897771835327
1773049374480555000,12.260554931640625,-3.6124343872070312,0.7471714019775391,-0.48900651931762695
1773049374490536200,12.2705361328125,0.4450569152832031,0.7951117753982544,1.061497449874878
1773049374500509200,12.28050927734375,2.685945510864258,-0.4269145131111145,-0.7485663294792175
1773049374510489300,12.2904892578125,-1.4624366760253906,0.0016586408019065857,0.29886555671691895
1773049374520369400,12.300369384765625,0.06441211700439453,0.6029163002967834,-0.000022411346435546875
1773049374530249500,12.31024951171875,1.2532005310058594,-0.6891372203826904,-0.2985628843307495
1773049374540417000,12.3204169921875,-0.2246103286743164,-0.13021820783615112,-1.3027925491333008
1773049374550403300,12.3304033203125,-1.0059776306152344,0.7275757193565369,0.5219298601150513
1773049374560371200,12.34037109375,1.741342544555664,-0.26521438360214233,0.5874776840209961
1773049374570355500,12.35035546875,-0.7447052001953125,0.379421204328537,-1.980867862701416
1773049374580325400,12.360325439453124,-0.9339761734008789,0.22335731983184814,0.9000753164291382
1773049374590308000,12.37030810546875,1.656050682067871,0.08485148847103119,2.318451166152954
1773049374600279300,12.380279296875,-0.6338214874267578,0.36010241508483887,-1.296187162399292
1773049374610261000,12.390260986328125,1.0836687088012695,0.07833759486675262,-0.2835456132888794
1773049374620233500,12.4002333984375,0.9531269073486328,-0.5026501417160034,1.8270717859268188
1773049374630214100,12.410214111328125,-0.10381126403808594,0.2455710470676422,-1.584094524383545
1773049374640187400,12.4201875,1.2135896682739258,-0.06563587486743927,1.5550155639648438
1773049374650167600,12.43016748046875,1.5211420059204102,0.0011976882815361023,-0.7562407851219177
1773049374660141600,12.4401416015625,-1.5473031997680664,0.3138516843318939,-0.8028276562690735
1773049374670121000,12.450120849609375,0.4615182876586914,0.2516838610172272,1.2930750846862793
1773049374680095500,12.460095458984375,0.8093099594116211,-0.6245139241218567,-0.426172137260437
1773049374690074600,12.47007470703125,-1.1790084838867188,0.5480674505233765,-0.6869639158248901
1773049374700049700,12.480049560546876,0.08425235748291016,0.13306578993797302,2.3326172828674316
1773049374710028300,12.4900283203125,1.8719158172607422,0.002736911177635193,-1.7618025541305542
1773049374720003800,12.50000390625,-1.3417682647705078,-0.16720016300678253,1.4437724351882935
1773049374729982000,12.50998193359375,1.0255670547485352,0.42991912364959717,0.5011947154998779
1773049374739957800,12.519957763671876,0.14096355438232422,0.1951446235179901,-0.21612417697906494
1773049374749935900,12.529935791015625,0.8048439025878906,-0.1375744640827179,0.10284888744354248
1773049374759912000,12.539911865234375,-1.2972631454467773,0.34892505407333374,0.16102361679077148
1773049374769889500,12.5498896484375,-0.48728179931640625,0.2939097285270691,-0.2571142911911011
1773049374779865900,12.559865966796876,0.7648935317993164,-0.3309483230113983,0.17143547534942627
1773049374789843500,12.569843505859374,-1.1558809280395508,0.05537402629852295,-1.4551018476486206
1773049374799820000,12.579820068359375,-1.4631471633911133,0.32378095388412476,0.218603253364563
1773049374809797400,12.58979736328125,1.5859394073486328,0.028612829744815826,0.888390064239502
1773049374819774000,12.59977392578125,-0.02191638946533203,-0.31703439354896545,0.14522850513458252
1773049374829751600,12.60975146484375,-1.597468376159668,0.9084552526473999,-0.6943320035934448
1773049374839728000,12.61972802734375,0.8740224838256836,0.10995805263519287,1.3580195903778076
1773049374849705500,12.62970556640625,2.433076858520508,-0.569238543510437,0.3222687244415283
1773049374859682300,12.639682373046876,-2.4940438270568848,1.0387029647827148,-0.5865371227264404
1773049374869659400,12.649659423828124,0.35692882537841797,0.059722304344177246,0.35760486125946045
