time,seconds_elapsed,z,y,x
1773049362518058500,0.29805859375,0.0011984215816482902,-0.021172115579247475,-0.0003994738799519837
1773049362528074200,0.30807421875,0.0011984215816482902,-0.0009321057004854083,-0.004660528618842363
1773049362538021000,0.318021240234375,-0.0009321057004854083,0.007590003311634064,-0.004660528618842363
1773049362547980800,0.327980712890625,-0.0009321057004854083,0.016112113371491432,-0.004660528618842363
1773049362557974800,0.337974853515625,0.00013315795513335615,-0.0009321057004854083,-0.001464737462811172
1773049362567948300,0.3479482421875,0.00013315795513335615,-0.010519478470087051,0.002796316985040903
1773049362577928700,0.3579287109375,0.00013315795513335615,-0.007323687430471182,-0.011052110232412815
1773049362587905000,0.367905029296875,0.0022636852227151394,0.018242640420794487,-0.0025300011038780212
1773049362597921300,0.37792138671875,0.0033289489801973104,-0.017976323142647743,0.003861580742523074
1773049362607913700,0.387913818359375,-0.0009321057004854083,-0.03502054139971733,-0.0025300011038780212
1773049362617875700,0.397875732421875,-0.0009321057004854083,0.026764748618006706,-0.004660528618842363
1773049362627856000,0.40785595703125,-0.0009321057004854083,0.026764748618006706,-0.006791055668145418
1773049362637753000,0.417753173828125,0.0022636852227151394,0.0033289489801973104,-0.0003994738799519837
1773049362647699700,0.42769970703125,0.0022636852227151394,-0.01904158666729927,-0.0025300011038780212
1773049362657706200,0.437706298828125,0.00013315795513335615,-0.02330264262855053,0.009187898598611355
1773049362667677400,0.447677490234375,-0.0019973693415522575,-0.021172115579247475,-0.007856319658458233
1773049362677583600,0.45758349609375,-0.003062632866203785,0.020373167470097542,-0.007856319658458233
1773049362687528400,0.467528564453125,-0.0009321057004854083,0.02569948509335518,0.0017310534603893757
1773049362697408500,0.477408447265625,-0.0009321057004854083,-0.021172115579247475,-0.006791055668145418
1773049362707288600,0.48728857421875,-0.0009321057004854083,0.00013315795513335615,0.0006657897611148655
1773049362717448400,0.497448486328125,-0.0019973693415522575,0.0033289489801973104,-0.009986846707761288
1773049362727484400,0.507484375,0.0011984215816482902,-0.003062632866203785,0.0006657897611148655
1773049362737290800,0.517290771484375,0.0022636852227151394,-0.017976323142647743,-0.006791055668145418
1773049362747233000,0.52723291015625,0.00013315795513335615,-0.010519478470087051,0.004926844500005245
1773049362757281000,0.537281005859375,-0.0019973693415522575,-0.0019973693415522575,-0.0035952648613601923
1773049362767266800,0.547266845703125,-0.0009321057004854083,0.02463422156870365,-0.014247900806367397
1773049362777159700,0.55715966796875,0.00013315795513335615,0.026764748618006706,-0.0025300011038780212
1773049362787107600,0.567107666015625,0.0011984215816482902,-0.024367906153202057,-0.0003994738799519837
1773049362797074400,0.577074462890625,0.0022636852227151394,-0.032890014350414276,0.004926844500005245
1773049362807030000,0.587030029296875,0.00013315795513335615,-0.0019973693415522575,-0.011052110232412815
1773049362816989700,0.59698974609375,-0.0019973693415522575,0.019307903945446014,-0.0003994738799519837
1773049362826945500,0.606945556640625,-0.0009321057004854083,-0.005193160381168127,-0.005725792143493891
1773049362836904700,0.61690478515625,0.00013315795513335615,0.009720530360937119,-0.0035952648613601923
1773049362846861000,0.626861083984375,0.00013315795513335615,0.0022636852227151394,0.004926844500005245
1773049362856820000,0.636820068359375,0.0011984215816482902,-0.012650005519390106,-0.011052110232412815
1773049362866776600,0.646776611328125,0.0022636852227151394,0.012916321866214275,-0.0025300011038780212
1773049362876735000,0.65673486328125,0.0011984215816482902,-0.010519478470087051,-0.0003994738799519837
1773049362886691800,0.66669189453125,-0.0009321057004854083,-0.028628960251808167,0.0006657897611148655
1773049362896573200,0.6765732421875,-0.0019973693415522575,0.0033289489801973104,-0.004660528618842363
1773049362906522400,0.6865224609375,-0.0019973693415522575,0.0342215932905674,-0.009986846707761288
1773049362916488400,0.696488525390625,-0.0009321057004854083,0.009720530360937119,-0.006791055668145418
1773049362926439200,0.706439208984375,0.0033289489801973104,-0.016911059617996216,0.0006657897611148655
1773049362936480300,0.716480224609375,0.0011984215816482902,-0.01904158666729927,0.002796316985040903
1773049362946440400,0.7264404296875,0.00013315795513335615,-0.014780532568693161,-0.0003994738799519837
1773049362956620300,0.736620361328125,0.0011984215816482902,0.0011984215816482902,-0.012117373757064342
1773049362966800400,0.74680029296875,0.00013315795513335615,0.03209106624126434,-0.001464737462811172
1773049362976980500,0.75698046875,0.0011984215816482902,-0.004127896390855312,-0.0025300011038780212
1773049362987046000,0.7670458984375,0.00013315795513335615,-0.014780532568693161,-0.001464737462811172
1773049362997003000,0.7770029296875,0.0022636852227151394,0.02143843099474907,-0.004660528618842363
1773049363006996000,0.786995849609375,0.0011984215816482902,-0.0009321057004854083,-0.006791055668145418
1773049363016957200,0.796957275390625,0.0022636852227151394,-0.01584579609334469,0.002796316985040903
1773049363026947000,0.806947021484375,0.0011984215816482902,-0.012650005519390106,-0.005725792143493891
1773049363036911400,0.816911376953125,-0.0019973693415522575,0.005459476262331009,0.004926844500005245
1773049363046898700,0.826898681640625,-0.0009321057004854083,0.007590003311634064,-0.0153131652623415
1773049363056904200,0.836904296875,0.0011984215816482902,0.031025802716612816,-0.004660528618842363
1773049363066893600,0.8468935546875,0.0022636852227151394,-0.003062632866203785,0.002796316985040903
1773049363076819500,0.8568193359375,0.0022636852227151394,-0.03821633383631706,0.0006657897611148655
1773049363086802400,0.866802490234375,0.00013315795513335615,-0.005193160381168127,-0.0003994738799519837
1773049363096773600,0.876773681640625,-0.0009321057004854083,0.011851058341562748,-0.00892158318310976
1773049363106755300,0.88675537109375,0.00013315795513335615,0.009720530360937119,0.004926844500005245
1773049363116727800,0.896727783203125,-0.0019973693415522575,-0.0062584239058196545,-0.00892158318310976
1773049363126708500,0.90670849609375,-0.0019973693415522575,0.009720530360937119,0.004926844500005245
1773049363136682000,0.916681884765625,-0.0009321057004854083,-0.007323687430471182,-0.001464737462811172
1773049363146662000,0.926661865234375,0.0022636852227151394,0.0022636852227151394,-0.012117373757064342
1773049363156542000,0.9365419921875,0.0022636852227151394,0.016112113371491432,0.0017310534603893757
1773049363166359600,0.946359619140625,0.0022636852227151394,-0.03608580678701401,-0.0025300011038780212
1773049363176539600,0.95653955078125,0.00013315795513335615,-0.022237379103899002,0.003861580742523074
1773049363186573800,0.96657373046875,-0.003062632866203785,0.022503694519400597,-0.0153131652623415
1773049363196544000,0.9765439453125,-0.0009321057004854083,0.03635212033987045,-0.0035952648613601923
1773049363206526700,0.986526611328125,0.0011984215816482902,-0.009454214945435524,-0.007856319658458233
1773049363216498200,0.996498291015625,0.0033289489801973104,-0.025433169677853584,-0.0003994738799519837
1773049363226479600,1.006479736328125,0.00013315795513335615,-0.028628960251808167,0.0006657897611148655
1773049363236452400,1.016452392578125,-0.0019973693415522575,-0.010519478470087051,-0.009986846707761288
1773049363246433000,1.02643310546875,0.00013315795513335615,0.03315633162856102,-0.006791055668145418
1773049363256406300,1.03640625,-0.0009321057004854083,0.009720530360937119,-0.004660528618842363
1773049363266386200,1.04638623046875,-0.0009321057004854083,-0.02330264262855053,0.0017310534603893757
1773049363276360400,1.0563603515625,0.0011984215816482902,0.0022636852227151394,-0.011052110232412815
1773049363286339800,1.06633984375,0.0011984215816482902,0.018242640420794487,-0.005725792143493891
1773049363296219600,1.0762197265625,0.0022636852227151394,-0.017976323142647743,-0.0025300011038780212
1773049363306037500,1.08603759765625,0.0011984215816482902,-0.021172115579247475,-0.0003994738799519837
1773049363316035800,1.096035888671875,-0.0019973693415522575,-0.004127896390855312,0.0017310534603893757
1773049363325995800,1.105995849609375,-0.0019973693415522575,0.01504684891551733,-0.004660528618842363
1773049363336175600,1.116175537109375,-0.0009321057004854083,0.01717737689614296,-0.009986846707761288
1773049363346209500,1.12620947265625,0.00013315795513335615,0.016112113371491432,0.0006657897611148655
1773049363356176400,1.13617626953125,0.0022636852227151394,-0.022237379103899002,0.005992108024656773
1773049363366161700,1.14616162109375,0.0022636852227151394,-0.03075948730111122,0.0017310534603893757
1773049363376130600,1.156130615234375,0.00013315795513335615,0.0011984215816482902,-0.007856319658458233
1773049363386114000,1.166114013671875,-0.0009321057004854083,0.018242640420794487,-0.001464737462811172
1773049363396084700,1.176084716796875,0.0011984215816482902,0.0043942127376794815,-0.0025300011038780212
1773049363406067000,1.18606689453125,0.00013315795513335615,-0.007323687430471182,-0.0025300011038780212
1773049363416039000,1.196038818359375,0.00013315795513335615,0.009720530360937119,-0.0003994738799519837
1773049363426020000,1.20602001953125,0.0011984215816482902,-0.004127896390855312,-0.009986846707761288
1773049363435992800,1.215992919921875,0.0022636852227151394,0.006524739786982536,-0.004660528618842363
1773049363445973200,1.22597314453125,-0.0009321057004854083,-0.011584741994738579,0.002796316985040903
1773049363455947000,1.235947021484375,-0.0009321057004854083,-0.028628960251808167,-0.005725792143493891
1773049363465926700,1.2459267578125,-0.0009321057004854083,0.035286858677864075,-0.006791055668145418
1773049363475901200,1.255901123046875,-0.0009321057004854083,0.026764748618006706,-0.011052110232412815
1773049363485880300,1.26588037109375,0.0011984215816482902,-0.004127896390855312,-0.0003994738799519837
1773049363495760400,1.275760498046875,0.0022636852227151394,-0.022237379103899002,-0.0025300011038780212
1773049363505578200,1.285578125,0.0022636852227151394,-0.007323687430471182,0.0006657897611148655
1773049363515576300,1.295576416015625,-0.0009321057004854083,-0.0009321057004854083,-0.006791055668145418
1773049363525536500,1.30553662109375,0.00013315795513335615,0.012916321866214275,-0.007856319658458233
1773049363535716400,1.31571630859375,-0.0009321057004854083,0.019307903945446014,-0.001464737462811172
1773049363545750000,1.32575,-0.0009321057004854083,-0.012650005519390106,-0.0003994738799519837
1773049363555717400,1.33571728515625,0.00013315795513335615,0.00013315795513335615,-0.004660528618842363
1773049363565702400,1.345702392578125,0.0011984215816482902,0.013981585390865803,-0.00892158318310976
1773049363575671300,1.35567138671875,0.0033289489801973104,-0.0062584239058196545,0.002796316985040903
1773049363585654800,1.36565478515625,0.0011984215816482902,-0.029694223776459694,-0.001464737462811172
1773049363595534800,1.375534912109375,-0.0019973693415522575,0.00013315795513335615,0.002796316985040903
1773049363605352000,1.38535205078125,-0.003062632866203785,0.022503694519400597,-0.005725792143493891
1773049363615531800,1.39553173828125,-0.0019973693415522575,0.01717737689614296,-0.007856319658458233
1773049363625565700,1.405565673828125,0.0011984215816482902,0.0033289489801973104,-0.0025300011038780212
1773049363635533600,1.415533447265625,-0.0009321057004854083,-0.011584741994738579,0.002796316985040903
1773049363645518000,1.42551806640625,0.00013315795513335615,-0.02649843320250511,0.002796316985040903
1773049363655487700,1.43548779296875,-0.0019973693415522575,-0.009454214945435524,-0.012117373757064342
1773049363665470700,1.445470703125,-0.0019973693415522575,0.022503694519400597,-0.001464737462811172
1773049363675442000,1.45544189453125,-0.0019973693415522575,-0.008388951420783997,-0.004660528618842363
1773049363685423600,1.465423583984375,0.00013315795513335615,-0.011584741994738579,-0.0035952648613601923
1773049363695303700,1.4753037109375,0.00013315795513335615,0.0033289489801973104,-0.0025300011038780212
1773049363705121000,1.48512109375,0.00013315795513335615,-0.008388951420783997,-0.006791055668145418
1773049363715301000,1.495301025390625,0.0022636852227151394,-0.012650005519390106,-0.006791055668145418
1773049363725335000,1.5053349609375,0.0011984215816482902,-0.008388951420783997,0.0006657897611148655
1773049363735304000,1.515303955078125,0.00013315795513335615,-0.029694223776459694,0.002796316985040903
1773049363745287700,1.52528759765625,-0.0019973693415522575,0.00013315795513335615,-0.00892158318310976
1773049363755258000,1.535258056640625,-0.0009321057004854083,0.039547912776470184,-0.007856319658458233
1773049363765240600,1.545240478515625,0.0011984215816482902,-0.005193160381168127,-0.001464737462811172
1773049363775212300,1.55521240234375,0.0022636852227151394,-0.028628960251808167,0.0006657897611148655
1773049363785193500,1.565193359375,0.0022636852227151394,-0.011584741994738579,-0.0003994738799519837
1773049363795166500,1.57516650390625,0.00013315795513335615,0.01078579481691122,-0.0025300011038780212
1773049363805147000,1.58514697265625,-0.0009321057004854083,0.006524739786982536,-0.007856319658458233
1773049363815120400,1.595120361328125,0.0011984215816482902,0.012916321866214275,-0.006791055668145418
1773049363825100300,1.605100341796875,0.0022636852227151394,0.013981585390865803,0.004926844500005245
1773049363835074600,1.615074462890625,0.0011984215816482902,-0.008388951420783997,-0.004660528618842363
1773049363845053700,1.6250537109375,0.0022636852227151394,0.011851058341562748,-0.012117373757064342
1773049363855028700,1.63502880859375,0.0011984215816482902,0.008655266836285591,-0.0025300011038780212
1773049363865007600,1.645007568359375,0.0011984215816482902,-0.01904158666729927,0.0017310534603893757
1773049363874983000,1.65498291015625,-0.0009321057004854083,-0.022237379103899002,-0.005725792143493891
1773049363884961300,1.664961181640625,-0.0009321057004854083,0.02996053919196129,-0.0035952648613601923
1773049363894936800,1.674936767578125,-0.0009321057004854083,0.020373167470097542,-0.00892158318310976
1773049363904915000,1.6849150390625,0.00013315795513335615,0.0022636852227151394,-0.004660528618842363
1773049363914795000,1.694794921875,0.0022636852227151394,-0.004127896390855312,-0.0003994738799519837
1773049363924613000,1.704613037109375,0.0011984215816482902,-0.017976323142647743,0.005992108024656773
1773049363934793200,1.714793212890625,-0.0009321057004854083,-0.012650005519390106,-0.004660528618842363
1773049363944828000,1.724827880859375,-0.003062632866203785,0.01717737689614296,-0.007856319658458233
1773049363954708000,1.7347080078125,-0.0009321057004854083,0.023568958044052124,0.0017310534603893757
1773049363964525000,1.744525146484375,-0.0019973693415522575,-0.01584579609334469,-0.0035952648613601923
1773049363974705200,1.754705078125,-0.003062632866203785,0.012916321866214275,0.0006657897611148655
1773049363984739000,1.764739013671875,-0.0019973693415522575,0.005459476262331009,-0.004660528618842363
1773049363994619000,1.774618896484375,0.00013315795513335615,-0.007323687430471182,-0.0035952648613601923
1773049364004435500,1.784435546875,-0.0009321057004854083,-0.0019973693415522575,-0.0003994738799519837
1773049364014428400,1.794428466796875,-0.003062632866203785,-0.01904158666729927,0.0017310534603893757
1773049364024392700,1.804392822265625,-0.0009321057004854083,0.0011984215816482902,-0.005725792143493891
1773049364034572500,1.814572509765625,0.00013315795513335615,0.02996053919196129,-0.01318263728171587
1773049364044605700,1.824605712890625,0.0022636852227151394,0.008655266836285591,-0.001464737462811172
1773049364054485800,1.83448583984375,0.0033289489801973104,-0.029694223776459694,-0.0003994738799519837
1773049364064301300,1.84430126953125,0.0022636852227151394,-0.022237379103899002,-0.001464737462811172
1773049364074481200,1.854481201171875,0.0011984215816482902,-0.008388951420783997,-0.005725792143493891
1773049364084514000,1.86451416015625,0.0022636852227151394,0.0022636852227151394,-0.007856319658458233
1773049364094477600,1.8744775390625,0.0011984215816482902,0.005459476262331009,-0.007856319658458233
1773049364104465700,1.884465576171875,0.0022636852227151394,0.00013315795513335615,-0.0025300011038780212
1773049364114345700,1.894345703125,0.0033289489801973104,-0.004127896390855312,-0.0003994738799519837
1773049364124161500,1.90416162109375,0.0022636852227151394,-0.007323687430471182,-0.00892158318310976
1773049364134153000,1.914153076171875,0.0033289489801973104,0.0043942127376794815,-0.005725792143493891
1773049364144118500,1.924118408203125,0.0011984215816482902,-0.010519478470087051,0.004926844500005245
1773049364154298400,1.93429833984375,0.0011984215816482902,-0.029694223776459694,-0.0025300011038780212
1773049364164331300,1.944331298828125,0.00013315795513335615,0.01717737689614296,-0.006791055668145418
1773049364174294000,1.9542939453125,-0.0009321057004854083,0.027830012142658234,-0.004660528618842363
1773049364184282600,1.96428271484375,0.00013315795513335615,-0.007323687430471182,-0.0035952648613601923
1773049364194162400,1.974162353515625,0.0011984215816482902,-0.0062584239058196545,0.0006657897611148655
1773049364203978500,1.983978515625,0.00013315795513335615,-0.016911059617996216,0.005992108024656773
1773049364213969200,1.99396923828125,-0.0019973693415522575,-0.022237379103899002,-0.0025300011038780212
1773049364223935200,2.003935302734375,-0.0009321057004854083,0.016112113371491432,-0.00892158318310976
1773049364233923300,2.01392333984375,-0.003062632866203785,0.018242640420794487,0.002796316985040903
1773049364243891500,2.023891357421875,-0.0019973693415522575,-0.013715269044041634,0.003861580742523074
1773049364253877200,2.033877197265625,-0.0019973693415522575,-0.0009321057004854083,-0.00892158318310976
1773049364263847200,2.04384716796875,-0.0019973693415522575,0.02143843099474907,-0.0035952648613601923
1773049364274027300,2.05402734375,0.00013315795513335615,-0.012650005519390106,0.002796316985040903
1773049364284059100,2.06405908203125,0.0011984215816482902,-0.020106852054595947,-0.005725792143493891
1773049364293939200,2.073939208984375,-0.0009321057004854083,-0.003062632866203785,-0.0003994738799519837
1773049364303753700,2.083753662109375,-0.0019973693415522575,0.008655266836285591,-0.0035952648613601923
1773049364313739500,2.093739501953125,-0.004127896390855312,0.02143843099474907,-0.006791055668145418
1773049364323709700,2.103709716796875,0.00013315795513335615,0.012916321866214275,-0.011052110232412815
1773049364333693400,2.113693359375,0.0011984215816482902,0.005459476262331009,0.003861580742523074
1773049364343665000,2.123664794921875,0.0022636852227151394,-0.03928159549832344,-0.0035952648613601923
1773049364353647600,2.133647705078125,0.0033289489801973104,0.0022636852227151394,-0.0035952648613601923
1773049364363620000,2.1436201171875,0.00013315795513335615,0.02143843099474907,-0.0003994738799519837
1773049364373800200,2.15380029296875,0.00013315795513335615,-0.012650005519390106,-0.005725792143493891
1773049364383831800,2.163831787109375,-0.0009321057004854083,0.006524739786982536,-0.0003994738799519837
1773049364393789000,2.173788818359375,0.00013315795513335615,0.008655266836285591,0.0006657897611148655
1773049364403782000,2.183781982421875,0.0011984215816482902,0.005459476262331009,-0.0025300011038780212
1773049364413743000,2.1937431640625,0.0022636852227151394,-0.0062584239058196545,0.0017310534603893757
1773049364423733000,2.20373291015625,0.0033289489801973104,-0.013715269044041634,0.008122635073959827
1773049364433697300,2.213697265625,0.0011984215816482902,-0.03608580678701401,0.0006657897611148655
1773049364443684600,2.2236845703125,0.0022636852227151394,0.00013315795513335615,-0.004660528618842363
1773049364453564400,2.233564453125,-0.0009321057004854083,0.05020054802298546,0.009187898598611355
1773049364463380700,2.243380615234375,0.00013315795513335615,0.0022636852227151394,0.0017310534603893757
1773049364473560800,2.253560791015625,-0.0009321057004854083,-0.02649843320250511,-0.0003994738799519837
1773049364483594200,2.26359423828125,-0.0009321057004854083,-0.012650005519390106,0.003861580742523074
1773049364493474000,2.27347412109375,0.0011984215816482902,0.01078579481691122,0.008122635073959827
1773049364503290000,2.2832900390625,0.00013315795513335615,-0.005193160381168127,-0.0003994738799519837
1773049364513280800,2.29328076171875,0.00013315795513335615,-0.013715269044041634,0.004926844500005245
1773049364523246800,2.303246826171875,-0.0019973693415522575,-0.009454214945435524,0.005992108024656773
1773049364533234700,2.313234619140625,-0.0019973693415522575,-0.012650005519390106,-0.006791055668145418
1773049364543202800,2.323202880859375,-0.0019973693415522575,0.039547912776470184,-0.001464737462811172
1773049364553383000,2.3333828125,-0.0009321057004854083,0.026764748618006706,0.0006657897611148655
1773049364563415300,2.343415283203125,0.00013315795513335615,-0.03821633383631706,0.0017310534603893757
1773049364573375700,2.353375732421875,0.00013315795513335615,-0.03502054139971733,-0.004660528618842363
1773049364583366100,2.3633662109375,-0.003062632866203785,-0.04034686088562012,0.004926844500005245
1773049364593330000,2.373329833984375,-0.0019973693415522575,-0.0009321057004854083,-0.001464737462811172
1773049364603317800,2.38331787109375,-0.004127896390855312,0.06511423736810684,-0.009986846707761288
1773049364613284000,2.3932841796875,-0.0009321057004854083,0.02463422156870365,-0.0035952648613601923
1773049364623269600,2.40326953125,0.00013315795513335615,-0.021172115579247475,0.003861580742523074
1773049364633149700,2.413149658203125,0.0022636852227151394,-0.041412122547626495,-0.004660528618842363
1773049364642966300,2.42296630859375,0.0022636852227151394,0.011851058341562748,0.003861580742523074
1773049364653146400,2.433146484375,0.00013315795513335615,0.022503694519400597,0.003861580742523074
1773049364663179800,2.4431796875,0.00013315795513335615,-0.017976323142647743,0.0006657897611148655
1773049364673185300,2.453185302734375,-0.003062632866203785,-0.0062584239058196545,0.009187898598611355
1773049364683174700,2.463174560546875,-0.004127896390855312,-0.017976323142647743,-0.005725792143493891
1773049364693054700,2.4730546875,-0.0009321057004854083,0.03635212033987045,0.005992108024656773
1773049364702934800,2.482934814453125,0.00013315795513335615,0.06085318699479103,-0.005725792143493891
1773049364712821800,2.49282177734375,0.006524739786982536,-0.003062632866203785,0.008122635073959827
1773049364722785300,2.502785400390625,0.0043942127376794815,-0.04460791498422623,0.018775271251797676
1773049364732775700,2.512775634765625,-0.0062584239058196545,-0.06271740049123764,0.004926844500005245
1773049364742742000,2.522741943359375,-0.0062584239058196545,-0.041412122547626495,-0.0003994738799519837
1773049364752921900,2.532921875,-0.005193160381168127,0.04167843982577324,0.014514217153191566
1773049364762954500,2.54295458984375,-0.005193160381168127,0.08428898453712463,0.003861580742523074
1773049364772916700,2.552916748046875,0.0022636852227151394,0.06617950648069382,-0.009986846707761288
1773049364782905900,2.56290576171875,0.00013315795513335615,0.01504684891551733,0.012383690103888512
1773049364792786000,2.572785888671875,-0.003062632866203785,-0.10958899557590485,-0.00892158318310976
1773049364802601700,2.582601806640625,0.0043942127376794815,-0.10426267981529236,-0.012117373757064342
1773049364812781600,2.592781494140625,-0.010519478470087051,0.0043942127376794815,0.03795001655817032
1773049364822814700,2.602814697265625,-0.009454214945435524,0.047004759311676025,0.003861580742523074
1773049364832694800,2.61269482421875,0.0011984215816482902,0.055526867508888245,-0.0270310640335083
1773049364842510600,2.622510498046875,-0.013715269044041634,0.039547912776470184,0.03262370079755783
1773049364852690700,2.632690673828125,-0.03608580678701401,-0.1255679577589035,-0.02277000993490219
1773049364862723600,2.6427236328125,-0.02330264262855053,-0.1255679577589035,-0.03129211813211441
1773049364872687400,2.652687255859375,-0.007323687430471182,0.027830012142658234,0.03688475489616394
1773049364882675000,2.662675048828125,-0.003062632866203785,0.07683213800191879,0.013448953628540039
1773049364892641300,2.672641357421875,0.0011984215816482902,0.0576573945581913,-0.009986846707761288
1773049364902627000,2.682626953125,-0.020106852054595947,0.11944268643856049,0.07416898012161255
1773049364912507100,2.692507080078125,-0.02649843320250511,-0.041412122547626495,-0.03129211813211441
1773049364922323700,2.70232373046875,-0.01904158666729927,-0.17976324260234833,-0.08029424399137497
1773049364932503600,2.712503662109375,-0.011584741994738579,-0.1573926955461502,0.0017310534603893757
1773049364942537200,2.722537109375,-0.03075948730111122,-0.1478053331375122,0.02197106182575226
1773049364952503800,2.73250390625,-0.029694223776459694,0.011851058341562748,0.06138581782579422
1773049364962489300,2.7424892578125,-0.03821633383631706,0.17377112805843353,0.1423458606004715
1773049364972457700,2.752457763671875,-0.03928159549832344,0.2547311782836914,-0.04194475710391998
1773049364982441700,2.762441650390625,-0.029694223776459694,0.2131858915090561,-0.11331742256879807
1773049364992412000,2.772411865234375,-0.02330264262855053,-0.0691089779138565,0.0070573715493083
1773049365002394400,2.782394287109375,-0.04354264959692955,-0.5195823311805725,0.034754227846860886
1773049365012274400,2.7922744140625,-0.12237215787172318,-0.48549389839172363,0.04540686309337616
1773049365022091800,2.802091796875,-0.11598058044910431,-0.32463908195495605,0.12636689841747284
1773049365032272000,2.81227197265625,-0.08189214020967484,-0.24048326909542084,-0.08242477476596832
1773049365042305800,2.822305908203125,-0.061652131378650665,-0.18828535079956055,-0.09094688296318054
1773049365052274200,2.832274169921875,-0.12450268864631653,-0.07337003201246262,0.02090579830110073
1773049365062258200,2.842258056640625,-0.195875346660614,0.09174583107233047,0.02090579830110073
1773049365072228400,2.852228271484375,-0.15006901323795319,0.11944268643856049,0.003861580742523074
1773049365082210800,2.8622109375,-0.13195952773094177,0.17696692049503326,0.13701952993869781
1773049365092182500,2.8721826171875,-0.10745847225189209,0.12263847887516022,-0.07709845900535583
1773049365102164000,2.8821640625,-0.10000162571668625,0.06617950648069382,-0.10905636847019196
1773049365112136700,2.89213671875,-0.09893636405467987,0.02569948509335518,0.018775271251797676
1773049365122117000,2.9021171875,-0.08189214020967484,-0.18402428925037384,-0.011052110232412815
1773049365131997200,2.9119970703125,-0.07123950868844986,-0.32996541261672974,0.035819489508867264
1773049365141814800,2.921814697265625,-0.07976161688566208,-0.3225085735321045,0.18389113247394562
1773049365151995000,2.931994873046875,-0.1117195263504982,-0.4311654567718506,-0.001464737462811172
1773049365162029300,2.942029296875,-0.15006901323795319,-0.4812328517436981,-0.06964161247015
1773049365171998700,2.951998779296875,-0.2384859025478363,-0.34381383657455444,0.07736477255821228
1773049365181981700,2.961981689453125,-0.30133646726608276,-0.4024033546447754,-0.03129211813211441
1773049365191861800,2.97186181640625,-0.15646059811115265,-0.5067991614341736,-0.040879491716623306
1773049365201678800,2.981678955078125,-0.18522271513938904,-0.37577176094055176,0.16258586943149567
1773049365211674000,2.991674072265625,-0.2203764170408249,-0.5962813496589661,0.023036325350403786
1773049365221636600,3.00163671875,-0.196940615773201,-0.7484808564186096,-0.040879491716623306
1773049365231628000,3.0116279296875,-0.3524691164493561,-0.6090644598007202,0.12104058265686035
1773049365241593300,3.02159326171875,-0.4258391261100769,-0.7846998572349548,0.04221107065677643
1773049365251773400,3.0317734375,-0.37697017192840576,-1.0297104120254517,0.01771000772714615
1773049365261806000,3.04180615234375,-0.2906838059425354,-1.0925610065460205,0.16258586943149567
1773049365271769000,3.05176904296875,-0.5057339072227478,-1.144758939743042,0.09653951972723007
1773049365281757400,3.06175732421875,-0.36738279461860657,-0.9221188426017761,-0.024900536984205246
1773049365291723300,3.07172314453125,0.16618113219738007,0.02569948509335518,0.05819002538919449
1773049365301709300,3.081709228515625,-0.06058686971664429,0.011851058341562748,0.02090579830110073
1773049365311677400,3.091677490234375,-0.07230477035045624,-0.2372874766588211,-0.05579318478703499
1773049365321661700,3.10166162109375,0.03635212033987045,-0.19680745899677277,0.05819002538919449
1773049365331631600,3.111631591796875,0.022503694519400597,-0.14141374826431274,0.059255290776491165
1773049365341614300,3.1216142578125,0.01078579481691122,-0.44181808829307556,-0.04620581120252609
1773049365351585500,3.13158544921875,-0.029694223776459694,-0.0552605502307415,0.051798444241285324
1773049365361567200,3.141567138671875,0.0011984215816482902,0.17164060473442078,0.015579480677843094
1773049365371578600,3.15157861328125,0.0043942127376794815,-0.061652131378650665,-0.03235738351941109
1773049365381563400,3.1615634765625,-0.02330264262855053,-0.14674006402492523,0.01664474420249462
1773049365391494000,3.171493896484375,0.007590003311634064,0.04061317816376686,0.04434159770607948
1773049365401473000,3.18147314453125,0.02569948509335518,-0.19361166656017303,-0.05898897349834442
1773049365411448000,3.191447998046875,-0.03395527973771095,-0.10319741815328598,0.01771000772714615
1773049365421426700,3.2014267578125,-0.0062584239058196545,0.12689952552318573,0.027297381311655045
1773049365431402000,3.211402099609375,-0.0009321057004854083,-0.03502054139971733,-0.01957421936094761
1773049365441380400,3.22138037109375,-0.014780532568693161,-0.1392832249403,0.011318426579236984
1773049365451356200,3.231356201171875,-0.008388951420783997,0.026764748618006706,0.04114580899477005
1773049365461334300,3.241334228515625,0.012916321866214275,-0.11385004967451096,-0.03448791056871414
1773049365471310000,3.25131005859375,-0.014780532568693161,-0.13608743250370026,-0.005725792143493891
1773049365481288200,3.2612880859375,-0.014780532568693161,0.14607428014278412,0.031558435410261154
1773049365491168300,3.271168212890625,-0.0009321057004854083,0.01717737689614296,-0.024900536984205246
1773049365501028900,3.28102880859375,-0.011584741994738579,-0.0978710949420929,0.0006657897611148655
1773049365511218200,3.29121826171875,-0.010519478470087051,0.02143843099474907,0.039015281945466995
1773049365521200000,3.3012001953125,0.008655266836285591,-0.009454214945435524,-0.01850895583629608
1773049365531172400,3.31117236328125,0.0011984215816482902,-0.16911059617996216,-0.025965800508856773
1773049365541153300,3.3211533203125,-0.020106852054595947,0.07470161467790604,0.030493171885609627
1773049365551126500,3.33112646484375,-0.005193160381168127,0.09174583107233047,-0.007856319658458233
1773049365561106400,3.3411064453125,0.00013315795513335615,-0.09361004084348679,-0.024900536984205246
1773049365571080400,3.35108056640625,-0.011584741994738579,-0.05206476151943207,0.04540686309337616
1773049365581060000,3.36106005859375,0.0011984215816482902,0.04913528636097908,0.009187898598611355
1773049365591034600,3.37103466796875,0.008655266836285591,-0.18189376592636108,-0.04727107286453247
1773049365601013800,3.381013671875,-0.01904158666729927,0.04061317816376686,0.027297381311655045
1773049365610988800,3.39098876953125,-0.007323687430471182,0.16844481229782104,0.004926844500005245
1773049365620967200,3.40096728515625,0.0022636852227151394,-0.11917637288570404,-0.03981423005461693
1773049365630847200,3.41084716796875,-0.011584741994738579,-0.11811110377311707,0.04540686309337616
1773049365640707800,3.420707763671875,-0.005193160381168127,0.07470161467790604,0.04540686309337616
1773049365650896600,3.430896728515625,0.01504684891551733,-0.20213377475738525,-0.06751108169555664
1773049365660879000,3.440879150390625,-0.020106852054595947,-0.02756369672715664,0.010253162123262882
1773049365670850800,3.450850830078125,-0.012650005519390106,0.2408827394247055,0.03368896245956421
1773049365680832000,3.46083203125,-0.005193160381168127,-0.10958899557590485,-0.04194475710391998
1773049365690805000,3.470804931640625,-0.005193160381168127,-0.23622220754623413,0.030493171885609627
1773049365700785400,3.480785400390625,-0.011584741994738579,-0.01584579609334469,0.07843003422021866
1773049365710759000,3.490759033203125,0.012916321866214275,-0.2330264151096344,-0.061119500547647476
1773049365720738800,3.50073876953125,-0.01584579609334469,-0.07230477035045624,0.0006657897611148655
1773049365730713000,3.510713134765625,-0.014780532568693161,0.2728406488895416,0.039015281945466995
1773049365740692200,3.520692138671875,-0.003062632866203785,-0.1392832249403,-0.04194475710391998
1773049365750667300,3.530667236328125,-0.007323687430471182,-0.3363569974899292,0.030493171885609627
1773049365760646000,3.54064599609375,-0.013715269044041634,0.0672447681427002,0.054994236677885056
1773049365770621200,3.55062109375,0.0022636852227151394,-0.08615319430828094,-0.09733846783638
1773049365780599600,3.560599609375,-0.01584579609334469,-0.14567480981349945,-0.004660528618842363
1773049365790575400,3.570575439453125,-0.01904158666729927,0.25260064005851746,0.0858868807554245
1773049365800553500,3.580553466796875,-0.0019973693415522575,-0.1712411344051361,-0.02383527345955372
1773049365810529500,3.590529541015625,0.019307903945446014,-0.2372874766588211,-0.006791055668145418
1773049365820507400,3.60050732421875,-0.041412122547626495,0.5550023317337036,-0.012117373757064342
1773049365830483500,3.6104833984375,0.026764748618006706,-0.10426267981529236,-0.08029424399137497
1773049365840461300,3.62046142578125,-0.02649843320250511,-0.2181127369403839,0.054994236677885056
1773049365850437600,3.630437744140625,-0.03075948730111122,0.4367581009864807,0.07203845679759979
1773049365860415200,3.640415283203125,-0.0062584239058196545,-0.0062584239058196545,-0.09201214462518692
1773049365870391800,3.650391845703125,0.019307903945446014,-0.23941799998283386,0.050733182579278946
1773049365880369200,3.660369140625,-0.022237379103899002,0.15779218077659607,0.005992108024656773
1773049365890345700,3.670345703125,0.0033289489801973104,-0.24580958485603333,-0.04620581120252609
1773049365900323000,3.680322998046875,-0.01584579609334469,0.0043942127376794815,0.07523424178361893
1773049365910300000,3.6902998046875,-0.01584579609334469,0.3761712312698364,-0.014247900806367397
1773049365920277200,3.70027734375,0.0043942127376794815,-0.23622220754623413,-0.06538055837154388
1773049365930253800,3.71025390625,-0.012650005519390106,0.05339634045958519,0.056059498339891434
1773049365940231200,3.720231201171875,-0.008388951420783997,0.5922865867614746,-0.06325002759695053
1773049365950208000,3.7302080078125,0.0033289489801973104,0.05446160212159157,-0.08135951310396194
1773049365960185000,3.74018505859375,-0.025433169677853584,0.2707101106643677,0.08269108831882477
1773049365970162000,3.750161865234375,-0.008388951420783997,-0.07017423957586288,0.018775271251797676
1773049365980139300,3.76013916015625,0.013981585390865803,-0.7122619152069092,0.012383690103888512
1773049365990116000,3.7701162109375,-0.0062584239058196545,-0.09147951751947403,0.052863709628582
1773049366000093200,3.78009326171875,-0.005193160381168127,0.24727432429790497,-0.07283740490674973
1773049366010070300,3.7900703125,-0.010519478470087051,-0.30652961134910583,-0.0153131652623415
1773049366020047400,3.80004736328125,-0.022237379103899002,0.17270587384700775,0.0858868807554245
1773049366030024200,3.810024169921875,-0.004127896390855312,0.09813741594552994,-0.020639482885599136
1773049366040001300,3.820001220703125,-0.0019973693415522575,-0.3683148920536041,0.005992108024656773
1773049366049978400,3.829978271484375,-0.022237379103899002,0.22064273059368134,-0.0003994738799519837
1773049366059955500,3.83995556640625,-0.004127896390855312,-0.13409006595611572,-0.01957421936094761
1773049366069932300,3.849932373046875,-0.009454214945435524,-0.06058686971664429,0.04221107065677643
1773049366079909400,3.859909423828125,-0.02330264262855053,0.2930806577205658,-0.012117373757064342
1773049366089886500,3.869886474609375,-0.011584741994738579,-0.3693801760673523,-0.01318263728171587
1773049366099863300,3.87986328125,-0.014780532568693161,0.1237037405371666,0.02197106182575226
1773049366109840400,3.88984033203125,-0.013715269044041634,0.15566164255142212,-0.014247900806367397
1773049366119817500,3.8998173828125,-0.007323687430471182,-0.23409168422222137,0.04008054360747337
1773049366129794600,3.909794677734375,-0.013715269044041634,0.21212062239646912,0.028362644836306572
1773049366139771600,3.919771728515625,-0.010519478470087051,-0.19467693567276,-0.007856319658458233
1773049366149748500,3.92974853515625,-0.011584741994738579,0.06937529146671295,0.013448953628540039
1773049366159725600,3.9397255859375,-0.013715269044041634,0.0576573945581913,-0.011052110232412815
1773049366169702700,3.94970263671875,-0.011584741994738579,-0.1435442715883255,0.02197106182575226
1773049366179679700,3.9596796875,-0.016911059617996216,0.18761955201625824,0.009187898598611355
1773049366189656600,3.969656494140625,-0.0019973693415522575,-0.14034847915172577,-0.012117373757064342
1773049366199633700,3.979633544921875,-0.005193160381168127,-0.037151068449020386,-0.0003994738799519837
1773049366209610800,3.98961083984375,-0.014780532568693161,0.12903006374835968,0.004926844500005245
1773049366219587800,3.999587890625,-0.008388951420783997,-0.0786963477730751,0.010253162123262882
1773049366229564700,4.009564697265625,-0.005193160381168127,0.05233107507228851,-0.006791055668145418
1773049366239541800,4.019541748046875,-0.0062584239058196545,-0.048868969082832336,-0.0025300011038780212
1773049366249518800,4.029518798828125,-0.007323687430471182,0.007590003311634064,0.011318426579236984
1773049366259496000,4.039495849609375,-0.005193160381168127,0.10879004746675491,-0.004660528618842363
1773049366269473000,4.04947314453125,-0.0062584239058196545,-0.07123950868844986,-0.004660528618842363
1773049366279449900,4.059449951171875,-0.003062632866203785,-0.003062632866203785,-0.006791055668145418
1773049366289427000,4.069427001953125,-0.004127896390855312,0.026764748618006706,-0.004660528618842363
1773049366299404000,4.079404052734375,-0.004127896390855312,-0.008388951420783997,0.003861580742523074
1773049366309380900,4.089380859375,-0.008388951420783997,0.06937529146671295,-0.009986846707761288
1773049366319358000,4.09935791015625,-0.009454214945435524,-0.05206476151943207,-0.009986846707761288
1773049366329335000,4.1093349609375,-0.0062584239058196545,0.005459476262331009,-0.004660528618842363
1773049366339312000,4.11931201171875,-0.005193160381168127,0.04061317816376686,-0.0025300011038780212
1773049366349289200,4.129289306640625,-0.008388951420783997,0.0043942127376794815,0.0017310534603893757
1773049366359266000,4.13926611328125,-0.012650005519390106,0.026764748618006706,-0.021704746410250664
1773049366369243100,4.1492431640625,-0.008388951420783997,-0.04247738793492317,-0.005725792143493891
1773049366379220200,4.15922021484375,-0.008388951420783997,0.027830012142658234,-0.0035952648613601923
1773049366389197000,4.169197021484375,-0.013715269044041634,0.08428898453712463,-0.006791055668145418
1773049366399174100,4.179174072265625,-0.008388951420783997,-0.061652131378650665,0.0017310534603893757
1773049366409151200,4.189151123046875,-0.008388951420783997,0.03315633162856102,-0.017443692311644554
1773049366419128300,4.19912841796875,-0.008388951420783997,-0.0019973693415522575,-0.007856319658458233
1773049366429105200,4.209105224609375,-0.010519478470087051,0.043808966875076294,-0.005725792143493891
1773049366439082200,4.219082275390625,-0.009454214945435524,0.012916321866214275,-0.0035952648613601923
1773049366449059300,4.229059326171875,-0.011584741994738579,0.03635212033987045,-0.012117373757064342
1773049366459036400,4.239036376953125,-0.005193160381168127,-0.053130023181438446,-0.009986846707761288
1773049366469013200,4.24901318359375,-0.0062584239058196545,0.035286858677864075,-0.0035952648613601923
1773049366478990300,4.258990234375,-0.008388951420783997,0.07896266877651215,-0.005725792143493891
1773049366488967400,4.268967529296875,-0.007323687430471182,-0.06058686971664429,-0.020639482885599136
1773049366498944500,4.278944580078125,-0.007323687430471182,0.008655266836285591,-0.009986846707761288
1773049366508921300,4.28892138671875,-0.003062632866203785,0.043808966875076294,-0.0003994738799519837
1773049366518898400,4.2988984375,-0.004127896390855312,0.01504684891551733,-0.011052110232412815
1773049366528875500,4.30887548828125,-0.008388951420783997,-0.037151068449020386,-0.017443692311644554
1773049366538852600,4.3188525390625,-0.004127896390855312,-0.01904158666729927,-0.006791055668145418
1773049366548829400,4.328829345703125,-0.004127896390855312,0.0906805694103241,-0.009986846707761288
1773049366558806500,4.338806640625,-0.008388951420783997,-0.04780370742082596,-0.00892158318310976
1773049366568783600,4.34878369140625,-0.007323687430471182,-0.04247738793492317,-0.00892158318310976
1773049366578760400,4.358760498046875,-0.003062632866203785,0.06085318699479103,-0.01318263728171587
1773049366588737500,4.368737548828125,-0.003062632866203785,-0.017976323142647743,-0.006791055668145418
1773049366598714600,4.378714599609375,-0.008388951420783997,-0.01584579609334469,-0.011052110232412815
1773049366608691700,4.388691650390625,-0.010519478470087051,-0.014780532568693161,-0.006791055668145418
1773049366618668500,4.39866845703125,-0.005193160381168127,0.027830012142658234,-0.005725792143493891
1773049366628645600,4.408645751953125,-0.007323687430471182,-0.016911059617996216,-0.005725792143493891
1773049366638622700,4.418622802734375,-0.007323687430471182,-0.02756369672715664,-0.006791055668145418
1773049366648599800,4.428599853515625,-0.0062584239058196545,-0.020106852054595947,-0.011052110232412815
1773049366658576600,4.43857666015625,-0.010519478470087051,0.059787921607494354,0.0006657897611148655
1773049366668553700,4.4485537109375,-0.004127896390855312,-0.05206476151943207,-0.0035952648613601923
1773049366678530800,4.45853076171875,-0.007323687430471182,-0.014780532568693161,-0.012117373757064342
1773049366688508000,4.4685078125,-0.007323687430471182,0.007590003311634064,-0.001464737462811172
1773049366698484700,4.478484619140625,-0.005193160381168127,0.012916321866214275,-0.007856319658458233
1773049366708461800,4.4884619140625,-0.005193160381168127,-0.014780532568693161,-0.007856319658458233
1773049366718439000,4.49843896484375,-0.007323687430471182,-0.06058686971664429,-0.0025300011038780212
1773049366728416000,4.508416015625,-0.009454214945435524,0.07257108390331268,-0.0035952648613601923
1773049366738392800,4.518392822265625,-0.004127896390855312,0.01504684891551733,-0.0003994738799519837
1773049366748370000,4.528369873046875,-0.003062632866203785,-0.04247738793492317,-0.01318263728171587
1773049366758347000,4.538346923828125,-0.005193160381168127,-0.0318247526884079,-0.007856319658458233
1773049366768323800,4.54832373046875,-0.004127896390855312,0.04167843982577324,-0.007856319658458233
1773049366778301000,4.558301025390625,-0.008388951420783997,0.06191844865679741,-0.0035952648613601923
1773049366788278000,4.568278076171875,-0.003062632866203785,-0.13302479684352875,-0.017443692311644554
1773049366798255000,4.578255126953125,-0.005193160381168127,0.05339634045958519,-0.005725792143493891
1773049366808232000,4.58823193359375,-0.005193160381168127,0.05339634045958519,-0.0003994738799519837
1773049366818170000,4.598170166015625,-0.003062632866203785,-0.009454214945435524,-0.0153131652623415
1773049366828143400,4.608143310546875,-0.003062632866203785,-0.09254477918148041,-0.017443692311644554
1773049366838163000,4.618162841796875,-0.007323687430471182,0.07789740711450577,-0.004660528618842363
1773049366848140800,4.628140869140625,-0.007323687430471182,0.07044056057929993,-0.001464737462811172
1773049366858078200,4.638078125,0.00013315795513335615,-0.1478053331375122,-0.02383527345955372
1773049366868052000,4.648052001953125,-0.004127896390855312,0.02889527566730976,-0.012117373757064342
1773049366878032100,4.6580322265625,-0.0062584239058196545,0.04913528636097908,-0.004660528618842363
1773049366888006700,4.668006591796875,-0.010519478470087051,-0.003062632866203785,-0.016378428786993027
1773049366897986300,4.677986328125,-0.005193160381168127,-0.10532794147729874,-0.017443692311644554
1773049366907961000,4.687961181640625,-0.0062584239058196545,0.08535424619913101,-0.014247900806367397
1773049366917940200,4.697940185546875,-0.009454214945435524,0.03635212033987045,0.0006657897611148655
1773049366927915500,4.70791552734375,-0.0062584239058196545,-0.10639320313930511,-0.020639482885599136
1773049366937894100,4.71789404296875,-0.008388951420783997,0.058722659945487976,-0.01318263728171587
1773049366947870000,4.727869873046875,-0.011584741994738579,0.009720530360937119,0.0017310534603893757
1773049366957887200,4.73788720703125,-0.008388951420783997,0.03209106624126434,-0.007856319658458233
1773049366967867100,4.7478671875,-0.007323687430471182,-0.0648479238152504,-0.01318263728171587
1773049366977802500,4.757802490234375,-0.009454214945435524,0.08748477697372437,-0.0003994738799519837
1773049366987777800,4.76777783203125,-0.011584741994738579,-0.022237379103899002,-0.00892158318310976
1773049366997717500,4.777717529296875,-0.009454214945435524,-0.024367906153202057,-0.007856319658458233
1773049367007689500,4.787689453125,-0.009454214945435524,0.059787921607494354,0.0017310534603893757
1773049367017632800,4.7976328125,-0.008388951420783997,-0.0318247526884079,-0.0035952648613601923
1773049367027601700,4.8076015625,-0.009454214945435524,-0.02649843320250511,-0.005725792143493891
1773049367037509000,4.817509033203125,-0.010519478470087051,0.016112113371491432,-0.004660528618842363
1773049367047472000,4.82747216796875,-0.010519478470087051,0.026764748618006706,0.0017310534603893757
1773049367057463000,4.837463134765625,-0.010519478470087051,-0.04247738793492317,-0.007856319658458233
1773049367067428600,4.8474287109375,-0.0062584239058196545,-0.029694223776459694,-0.007856319658458233
1773049367077378300,4.85737841796875,-0.008388951420783997,0.05446160212159157,-0.0003994738799519837
1773049367087342300,4.86734228515625,-0.007323687430471182,-0.04034686088562012,-0.006791055668145418
1773049367097293300,4.877293212890625,-0.007323687430471182,-0.024367906153202057,-0.006791055668145418
1773049367107256000,4.887256103515625,-0.004127896390855312,0.03209106624126434,-0.0025300011038780212
1773049367117208600,4.89720849609375,-0.004127896390855312,0.008655266836285591,-0.005725792143493891
1773049367127170300,4.90717041015625,-0.005193160381168127,-0.01904158666729927,-0.005725792143493891
1773049367137162500,4.91716259765625,-0.008388951420783997,0.05020054802298546,-0.006791055668145418
1773049367147127300,4.927127197265625,-0.008388951420783997,0.0022636852227151394,-0.0003994738799519837
1773049367157000200,4.937000244140625,-0.004127896390855312,0.0011984215816482902,-0.005725792143493891
1773049367166956000,4.9469560546875,-0.010519478470087051,0.018242640420794487,-0.005725792143493891
1773049367176915500,4.95691552734375,-0.012650005519390106,0.03315633162856102,-0.0035952648613601923
1773049367186871300,4.966871337890625,-0.005193160381168127,-0.04673844203352928,-0.006791055668145418
1773049367196830500,4.97683056640625,-0.010519478470087051,0.01504684891551733,-0.011052110232412815
1773049367206786800,4.986786865234375,-0.009454214945435524,0.035286858677864075,-0.007856319658458233
1773049367216745700,4.996745849609375,-0.004127896390855312,-0.05952160432934761,-0.02383527345955372
1773049367226702300,5.006702392578125,-0.0062584239058196545,-0.02330264262855053,-0.012117373757064342
1773049367236660700,5.01666064453125,-0.009454214945435524,0.04913528636097908,-0.016378428786993027
1773049367246617600,5.02661767578125,-0.0062584239058196545,-0.05206476151943207,-0.017443692311644554
1773049367256537300,5.036537353515625,-0.004127896390855312,-0.03821633383631706,-0.017443692311644554
1773049367266490400,5.046490478515625,-0.008388951420783997,0.07044056057929993,-0.020639482885599136
1773049367276452400,5.056452392578125,-0.008388951420783997,-0.04034686088562012,-0.016378428786993027
1773049367286406400,5.066406494140625,-0.005193160381168127,-0.021172115579247475,-0.02383527345955372
1773049367296586200,5.076586181640625,-0.008388951420783997,0.08322372287511826,-0.014247900806367397
1773049367306766300,5.086766357421875,-0.007323687430471182,0.00013315795513335615,-0.016378428786993027
1773049367316946400,5.096946533203125,-0.0062584239058196545,-0.02330264262855053,-0.020639482885599136
1773049367327053300,5.10705322265625,-0.004127896390855312,0.0033289489801973104,-0.007856319658458233
1773049367337013200,5.11701318359375,-0.009454214945435524,0.10879004746675491,-0.009986846707761288
1773049367347004000,5.12700390625,-0.005193160381168127,-0.0691089779138565,-0.006791055668145418
1773049367356967200,5.13696728515625,0.00013315795513335615,-0.02330264262855053,-0.011052110232412815
1773049367366955300,5.146955322265625,-0.009454214945435524,0.12157320976257324,0.003861580742523074
1773049367376921300,5.15692138671875,-0.0062584239058196545,-0.0786963477730751,0.002796316985040903
1773049367386907100,5.1669072265625,-0.003062632866203785,0.012916321866214275,-0.0025300011038780212
1773049367396875300,5.176875244140625,-0.004127896390855312,0.035286858677864075,0.0070573715493083
1773049367406859500,5.186859619140625,-0.0062584239058196545,-0.03075948730111122,0.011318426579236984
1773049367416829400,5.196829345703125,-0.008388951420783997,0.012916321866214275,0.009187898598611355
1773049367426812200,5.206812255859375,-0.010519478470087051,0.011851058341562748,0.015579480677843094
1773049367436783400,5.216783447265625,-0.0062584239058196545,-0.020106852054595947,0.015579480677843094
1773049367446765000,5.22676513671875,-0.009454214945435524,0.02569948509335518,0.014514217153191566
1773049367456737500,5.236737548828125,-0.008388951420783997,-0.009454214945435524,0.01664474420249462
1773049367466718200,5.24671826171875,-0.009454214945435524,-0.016911059617996216,0.02090579830110073
1773049367476691500,5.25669140625,-0.008388951420783997,0.011851058341562748,0.01771000772714615
1773049367486671400,5.26667138671875,-0.008388951420783997,0.05446160212159157,0.014514217153191566
1773049367496645600,5.276645751953125,-0.004127896390855312,-0.10958899557590485,0.014514217153191566
1773049367506624800,5.286624755859375,-0.008388951420783997,0.10559425503015518,0.019840534776449203
1773049367516504800,5.2965048828125,-0.010519478470087051,0.05020054802298546,0.011318426579236984
1773049367526365200,5.306365234375,-0.0019973693415522575,-0.10958899557590485,0.005992108024656773
1773049367536553500,5.316553466796875,-0.004127896390855312,0.043808966875076294,0.012383690103888512
1773049367546536200,5.3265361328125,-0.008388951420783997,0.13009531795978546,0.018775271251797676
1773049367556507600,5.336507568359375,-0.005193160381168127,-0.1255679577589035,-0.0025300011038780212
1773049367566489000,5.346489013671875,-0.004127896390855312,0.01717737689614296,0.002796316985040903
1773049367576461600,5.356461669921875,-0.005193160381168127,0.06404897570610046,0.005992108024656773
1773049367586442200,5.366442138671875,-0.0062584239058196545,-0.04354264959692955,-0.0003994738799519837
1773049367596415500,5.37641552734375,-0.004127896390855312,0.0342215932905674,-0.0035952648613601923
1773049367606395600,5.386395751953125,-0.005193160381168127,0.02569948509335518,-0.0035952648613601923
1773049367616369700,5.39636962890625,-0.005193160381168127,-0.03502054139971733,0.002796316985040903
1773049367626349000,5.40634912109375,-0.009454214945435524,0.05233107507228851,-0.007856319658458233
1773049367636323600,5.416323486328125,-0.007323687430471182,-0.03075948730111122,0.008122635073959827
1773049367646302500,5.426302490234375,-0.003062632866203785,-0.0552605502307415,-0.007856319658458233
1773049367656277800,5.43627783203125,-0.009454214945435524,0.10879004746675491,-0.0003994738799519837
1773049367666256100,5.446256103515625,-0.007323687430471182,-0.07550056278705597,-0.0025300011038780212
1773049367676231700,5.456231689453125,-0.007323687430471182,-0.02649843320250511,-0.007856319658458233
1773049367686209800,5.466209716796875,-0.012650005519390106,0.06404897570610046,-0.0035952648613601923
1773049367696089900,5.47608984375,-0.009454214945435524,-0.020106852054595947,-0.005725792143493891
1773049367705950500,5.485950439453125,-0.007323687430471182,-0.025433169677853584,-0.005725792143493891
1773049367715945500,5.495945556640625,-0.009454214945435524,0.01717737689614296,-0.011052110232412815
1773049367725908000,5.505907958984375,-0.013715269044041634,0.007590003311634064,-0.0025300011038780212
1773049367736093400,5.516093505859375,-0.0062584239058196545,-0.0456731803715229,-0.007856319658458233
1773049367746078500,5.526078369140625,-0.008388951420783997,0.03741738572716713,-0.00892158318310976
1773049367756047600,5.536047607421875,-0.009454214945435524,-0.03928159549832344,0.0006657897611148655
1773049367766030800,5.54603076171875,-0.007323687430471182,0.02143843099474907,-0.005725792143493891
1773049367776001500,5.55600146484375,-0.008388951420783997,0.012916321866214275,-0.0035952648613601923
1773049367785983700,5.565983642578125,-0.003062632866203785,-0.022237379103899002,-0.005725792143493891
1773049367795863600,5.575863525390625,-0.008388951420783997,0.039547912776470184,-0.0035952648613601923
1773049367805723400,5.585723388671875,-0.009454214945435524,-0.01584579609334469,-0.0025300011038780212
1773049367815909400,5.595909423828125,-0.008388951420783997,-0.028628960251808167,0.004926844500005245
1773049367825894000,5.605893798828125,-0.011584741994738579,0.0715058222413063,0.0006657897611148655
1773049367835863600,5.615863525390625,-0.008388951420783997,-0.07337003201246262,0.003861580742523074
1773049367845846500,5.625846435546875,-0.009454214945435524,-0.0318247526884079,-0.001464737462811172
1773049367855726600,5.6357265625,-0.010519478470087051,0.07257108390331268,0.013448953628540039
1773049367865586200,5.645586181640625,-0.003062632866203785,-0.09467530250549316,0.002796316985040903
1773049367875771400,5.655771484375,-0.0019973693415522575,-0.012650005519390106,-0.0025300011038780212
1773049367885756700,5.665756591796875,-0.007323687430471182,0.048070020973682404,0.004926844500005245
1773049367895725600,5.6757255859375,-0.004127896390855312,-0.05952160432934761,0.002796316985040903
1773049367905709000,5.685708984375,0.0011984215816482902,0.01078579481691122,-0.006791055668145418
1773049367915679500,5.695679443359375,-0.005193160381168127,0.01504684891551733,-0.0035952648613601923
1773049367925661700,5.70566162109375,-0.0019973693415522575,-0.0691089779138565,0.002796316985040903
1773049367935633400,5.71563330078125,-0.005193160381168127,0.11837742477655411,-0.0035952648613601923
1773049367945614600,5.725614501953125,-0.0019973693415522575,-0.06804371625185013,-0.0035952648613601923
1773049367955587600,5.735587646484375,-0.0009321057004854083,-0.06058686971664429,-0.00892158318310976
1773049367965567700,5.745567626953125,-0.003062632866203785,0.09174583107233047,-0.004660528618842363
1773049367975541500,5.75554150390625,-0.0009321057004854083,-0.03608580678701401,-0.007856319658458233
1773049367985521200,5.765521240234375,-0.0019973693415522575,-0.029694223776459694,-0.007856319658458233
1773049367995401200,5.775401123046875,-0.0009321057004854083,0.0576573945581913,-0.01318263728171587
1773049368005261600,5.785261474609375,-0.004127896390855312,-0.057391077280044556,0.0006657897611148655
1773049368015449300,5.795449462890625,-0.005193160381168127,0.055526867508888245,-0.005725792143493891
1773049368025432300,5.805432373046875,-0.007323687430471182,-0.029694223776459694,-0.001464737462811172
1773049368035403500,5.815403564453125,-0.008388951420783997,-0.028628960251808167,0.003861580742523074
1773049368045385200,5.82538525390625,-0.008388951420783997,0.055526867508888245,-0.006791055668145418
1773049368055265300,5.835265380859375,-0.014780532568693161,-0.10958899557590485,0.005992108024656773
1773049368065125000,5.845125,-0.011584741994738579,0.11518163233995438,0.011318426579236984
1773049368075311400,5.855311279296875,-0.0062584239058196545,-0.04354264959692955,-0.006791055668145418
1773049368085295600,5.865295654296875,-0.012650005519390106,-0.09893636405467987,0.003861580742523074
1773049368095265300,5.875265380859375,-0.016911059617996216,0.12476900219917297,0.0017310534603893757
1773049368105248300,5.885248291015625,-0.007323687430471182,-0.057391077280044556,-0.0003994738799519837
1773049368115128300,5.89512841796875,-0.007323687430471182,-0.07123950868844986,0.0017310534603893757
1773049368124988000,5.90498779296875,-0.012650005519390106,0.07683213800191879,0.005992108024656773
1773049368135173400,5.91517333984375,-0.0062584239058196545,-0.048868969082832336,0.003861580742523074
1773049368145158400,5.925158447265625,-0.004127896390855312,-0.013715269044041634,0.005992108024656773
1773049368155127300,5.935127197265625,-0.005193160381168127,0.051265813410282135,-0.005725792143493891
1773049368165110800,5.94511083984375,-0.005193160381168127,-0.11065425723791122,0.01664474420249462
1773049368175081500,5.95508154296875,-0.010519478470087051,0.10772478580474854,0.009187898598611355
1773049368185063400,5.9650634765625,0.00013315795513335615,-0.10426267981529236,-0.012117373757064342
1773049368194943500,5.974943603515625,-0.005193160381168127,-0.04673844203352928,0.005992108024656773
1773049368204803300,5.98480322265625,-0.012650005519390106,0.15992270410060883,0.0006657897611148655
1773049368214795300,5.994795166015625,0.0022636852227151394,-0.2671148478984833,-0.005725792143493891
1773049368224760000,6.004760009765625,-0.010519478470087051,0.1609879732131958,0.008122635073959827
1773049368234943200,6.014943115234375,-0.007323687430471182,-0.009454214945435524,-0.01318263728171587
1773049368244930000,6.024929931640625,-0.0019973693415522575,-0.1723063886165619,0.003861580742523074
1773049368254810000,6.03481005859375,-0.013715269044041634,0.17696692049503326,0.005992108024656773
1773049368264669000,6.0446689453125,-0.005193160381168127,-0.148870587348938,-0.0153131652623415
1773049368274851300,6.054851318359375,-0.007323687430471182,0.02569948509335518,-0.005725792143493891
1773049368284839000,6.0648388671875,-0.010519478470087051,0.03315633162856102,-0.0153131652623415
1773049368294718700,6.07471875,-0.009454214945435524,-0.06378266215324402,-0.005725792143493891
1773049368304577300,6.084577392578125,-0.0062584239058196545,0.10133320093154907,-0.020639482885599136
1773049368314565000,6.094565185546875,-0.0009321057004854083,-0.148870587348938,-0.025965800508856773
1773049368324533500,6.104533447265625,-0.017976323142647743,0.12476900219917297,0.005992108024656773
1773049368334519000,6.11451904296875,-0.0062584239058196545,0.02569948509335518,-0.024900536984205246
1773049368344489200,6.1244892578125,-0.003062632866203785,-0.16058848798274994,-0.01957421936094761
1773049368354473000,6.134472900390625,-0.013715269044041634,0.19188061356544495,0.004926844500005245
1773049368364444400,6.1444443359375,-0.0009321057004854083,-0.07763108611106873,-0.030226856470108032
1773049368374427000,6.154427001953125,-0.003062632866203785,-0.04993423447012901,-0.01318263728171587
1773049368384399400,6.1643994140625,-0.004127896390855312,0.1748363971710205,-0.02277000993490219
1773049368394380800,6.174380859375,-0.005193160381168127,-0.1627190262079239,-0.0270310640335083
1773049368404354300,6.184354248046875,-0.009454214945435524,0.2131858915090561,-0.0025300011038780212
1773049368414334700,6.194334716796875,0.00013315795513335615,-0.004127896390855312,-0.024900536984205246
1773049368424309000,6.20430908203125,-0.01584579609334469,0.02463422156870365,-0.001464737462811172
1773049368434288600,6.21428857421875,0.00013315795513335615,-0.009454214945435524,-0.012117373757064342
1773049368444263400,6.224263427734375,0.0033289489801973104,-0.029694223776459694,-0.021704746410250664
1773049368454242800,6.234242919921875,-0.013715269044041634,0.15992270410060883,-0.011052110232412815
1773049368464217900,6.2442177734375,0.011851058341562748,-0.20852535963058472,-0.03129211813211441
1773049368474196700,6.25419677734375,-0.017976323142647743,0.19720692932605743,-0.009986846707761288
1773049368484172300,6.26417236328125,-0.0009321057004854083,0.11198583990335464,-0.03129211813211441
1773049368494052000,6.274052001953125,0.012916321866214275,-0.18189376592636108,-0.005725792143493891
1773049368503913700,6.283913818359375,-0.020106852054595947,0.1705753356218338,0.011318426579236984
1773049368513910800,6.293910888671875,0.005459476262331009,-0.16165375709533691,-0.025965800508856773
1773049368523871500,6.30387158203125,0.0022636852227151394,0.03635212033987045,-0.01318263728171587
1773049368534058200,6.314058349609375,-0.011584741994738579,0.06511423736810684,-0.005725792143493891
1773049368544041700,6.324041748046875,-0.007323687430471182,-0.06271740049123764,0.012383690103888512
1773049368554012200,6.33401220703125,-0.0019973693415522575,0.06617950648069382,-0.01318263728171587
1773049368563994600,6.34399462890625,-0.007323687430471182,-0.05099949613213539,-0.005725792143493891
1773049368573966300,6.35396630859375,-0.01584579609334469,0.08322372287511826,0.002796316985040903
1773049368583947500,6.363947509765625,-0.003062632866203785,-0.10852373391389847,-0.009986846707761288
1773049368593920300,6.373920166015625,-0.009454214945435524,0.04487423226237297,0.0006657897611148655
1773049368603900700,6.383900634765625,-0.009454214945435524,0.011851058341562748,-0.009986846707761288
1773049368613874400,6.39387451171875,-0.011584741994738579,-0.13608743250370026,0.003861580742523074
1773049368623854000,6.40385400390625,-0.017976323142647743,0.13648690283298492,0.0070573715493083
1773049368633828400,6.413828369140625,-0.003062632866203785,-0.1478053331375122,-0.016378428786993027
1773049368643807500,6.423807373046875,-0.01584579609334469,-0.0062584239058196545,0.0006657897611148655
1773049368653782500,6.433782470703125,-0.014780532568693161,-0.01584579609334469,0.004926844500005245
1773049368663761200,6.44376123046875,-0.004127896390855312,-0.06378266215324402,-0.011052110232412815
1773049368673736400,6.453736328125,-0.009454214945435524,0.0011984215816482902,0.002796316985040903
1773049368683714800,6.46371484375,-0.008388951420783997,-0.05419528856873512,-0.001464737462811172
1773049368693690400,6.4736904296875,-0.007323687430471182,0.02463422156870365,-0.0025300011038780212
1773049368703668500,6.48366845703125,-0.004127896390855312,-0.06591318547725677,-0.0025300011038780212
1773049368713644500,6.49364453125,-0.009454214945435524,0.039547912776470184,-0.0025300011038780212
1773049368723622400,6.503622314453125,-0.005193160381168127,-0.06697845458984375,-0.001464737462811172
1773049368733598500,6.513598388671875,-0.007323687430471182,0.016112113371491432,-0.0003994738799519837
1773049368743576000,6.523576171875,-0.005193160381168127,-0.048868969082832336,0.0017310534603893757
1773049368753552600,6.533552734375,-0.004127896390855312,0.0022636852227151394,0.0070573715493083
1773049368763530000,6.543530029296875,-0.005193160381168127,-0.029694223776459694,-0.001464737462811172
1773049368773506600,6.553506591796875,-0.007323687430471182,-0.05632581561803818,0.0070573715493083
1773049368783484000,6.56348388671875,-0.0062584239058196545,0.013981585390865803,-0.0025300011038780212
1773049368793460500,6.57346044921875,-0.004127896390855312,-0.03502054139971733,0.0070573715493083
1773049368803437800,6.583437744140625,-0.0062584239058196545,0.022503694519400597,0.0070573715493083
1773049368813414700,6.59341455078125,-0.005193160381168127,-0.06591318547725677,-0.005725792143493891
1773049368823391700,6.603391845703125,-0.017976323142647743,0.05659212917089462,-0.001464737462811172
1773049368833368600,6.61336865234375,0.0043942127376794815,-0.12237215787172318,0.0070573715493083
1773049368843346000,6.623345947265625,-0.005193160381168127,0.08428898453712463,-0.00892158318310976
1773049368853322500,6.633322509765625,-0.020106852054595947,0.01078579481691122,-0.029161592945456505
1773049368863299800,6.6432998046875,0.00013315795513335615,-0.18935060501098633,0.019840534776449203
1773049368873276700,6.653276611328125,-0.007323687430471182,0.17164060473442078,0.002796316985040903
1773049368883253800,6.663253662109375,-0.013715269044041634,-0.05419528856873512,-0.005725792143493891
1773049368893230600,6.673230712890625,-0.008388951420783997,-0.0456731803715229,0.0006657897611148655
1773049368903207700,6.683207763671875,-0.004127896390855312,0.042743705213069916,-0.0153131652623415
1773049368913184800,6.693184814453125,-0.01584579609334469,0.019307903945446014,-0.005725792143493891
1773049368923161900,6.703161865234375,-0.014780532568693161,-0.057391077280044556,-0.01318263728171587
1773049368933138700,6.713138671875,-0.009454214945435524,0.007590003311634064,-0.006791055668145418
1773049368943115800,6.72311572265625,-0.010519478470087051,0.008655266836285591,-0.012117373757064342
1773049368953092600,6.733092529296875,-0.012650005519390106,0.007590003311634064,-0.00892158318310976
1773049368963069700,6.743069580078125,-0.007323687430471182,-0.07976161688566208,-0.016378428786993027
1773049368973046800,6.753046875,-0.0062584239058196545,0.05446160212159157,-0.004660528618842363
1773049368983023600,6.763023681640625,-0.008388951420783997,0.05233107507228851,-0.0153131652623415
1773049368993000700,6.773000732421875,-0.005193160381168127,-0.12343742698431015,-0.0035952648613601923
1773049369002977800,6.782977783203125,-0.003062632866203785,0.10346373170614243,-0.012117373757064342
1773049369012954600,6.79295458984375,0.0011984215816482902,-0.04247738793492317,-0.014247900806367397
1773049369022931700,6.802931640625,-0.0019973693415522575,0.02143843099474907,-0.011052110232412815
1773049369032908800,6.81290869140625,0.0022636852227151394,-0.016911059617996216,-0.01850895583629608
1773049369042886000,6.822885986328125,0.0011984215816482902,0.027830012142658234,-0.011052110232412815
1773049369052862700,6.83286279296875,-0.0019973693415522575,0.01504684891551733,-0.017443692311644554
1773049369062839800,6.84283984375,0.0043942127376794815,-0.04460791498422623,-0.0025300011038780212
1773049369072817000,6.85281689453125,-0.0019973693415522575,0.07470161467790604,-0.001464737462811172
1773049369082793700,6.862793701171875,-0.007323687430471182,0.05659212917089462,-0.005725792143493891
1773049369092770800,6.872770751953125,0.0043942127376794815,-0.13409006595611572,0.002796316985040903
1773049369102748000,6.882747802734375,-0.005193160381168127,0.17696692049503326,0.003861580742523074
1773049369112725000,6.89272509765625,-0.008388951420783997,0.09281109273433685,-0.01850895583629608
1773049369122701800,6.902701904296875,0.0011984215816482902,-0.23835274577140808,-0.006791055668145418
1773049369132679000,6.912678955078125,-0.005193160381168127,0.22809958457946777,0.010253162123262882
1773049369142656000,6.922656005859375,-0.008388951420783997,-0.0019973693415522575,-0.0003994738799519837
1773049369152632800,6.9326328125,0.00013315795513335615,-0.04780370742082596,-0.012117373757064342
1773049369162610000,6.94260986328125,-0.004127896390855312,0.019307903945446014,-0.017443692311644554
1773049369172587000,6.9525869140625,-0.003062632866203785,0.05446160212159157,-0.00892158318310976
1773049369182564000,6.962564208984375,-0.004127896390855312,-0.037151068449020386,-0.01957421936094761
1773049369192541000,6.972541015625,-0.003062632866203785,-0.0648479238152504,-0.02277000993490219
1773049369202518000,6.98251806640625,-0.007323687430471182,0.0949416235089302,-0.017443692311644554
1773049369212398000,6.992398193359375,-0.005193160381168127,-0.024367906153202057,-0.020639482885599136
1773049369222259200,7.00225927734375,-0.012650005519390106,-0.032890014350414276,-0.017443692311644554
1773049369232448800,7.01244873046875,-0.011584741994738579,0.035286858677864075,-0.025965800508856773
1773049369242430000,7.022429931640625,-0.011584741994738579,-0.03075948730111122,-0.025965800508856773
1773049369252403000,7.03240283203125,-0.013715269044041634,0.0022636852227151394,-0.025965800508856773
1773049369262383400,7.04238330078125,-0.021172115579247475,-0.01904158666729927,-0.01957421936094761
1773049369272356900,7.05235693359375,-0.010519478470087051,-0.02756369672715664,-0.01957421936094761
1773049369282336800,7.062336669921875,-0.021172115579247475,-0.004127896390855312,-0.028096329420804977
1773049369292311000,7.07231103515625,-0.014780532568693161,-0.04673844203352928,-0.012117373757064342
1773049369302290200,7.082290283203125,-0.013715269044041634,-0.03502054139971733,-0.02277000993490219
1773049369312265200,7.09226513671875,-0.012650005519390106,-0.016911059617996216,-0.020639482885599136
1773049369322243800,7.102243896484375,-0.009454214945435524,-0.041412122547626495,-0.01850895583629608
1773049369332219100,7.11221923828125,-0.011584741994738579,-0.028628960251808167,-0.012117373757064342
1773049369342197500,7.122197509765625,-0.009454214945435524,-0.022237379103899002,-0.017443692311644554
1773049369352173000,7.132173095703125,-0.009454214945435524,-0.04780370742082596,-0.01850895583629608
1773049369362151200,7.142151123046875,-0.004127896390855312,-0.057391077280044556,-0.01318263728171587
1773049369372127200,7.152127197265625,-0.005193160381168127,0.020373167470097542,-0.025965800508856773
1773049369382105000,7.16210498046875,-0.005193160381168127,-0.009454214945435524,-0.03235738351941109
1773049369392003800,7.17200390625,0.00013315795513335615,-0.05952160432934761,-0.0366184376180172
1773049369401973800,7.181973876953125,0.0022636852227151394,0.043808966875076294,-0.05153212696313858
1773049369412035300,7.192035400390625,-0.003062632866203785,-0.021172115579247475,-0.04620581120252609
1773049369422014500,7.202014404296875,-0.003062632866203785,0.0342215932905674,-0.05259739235043526
1773049369431989200,7.2119892578125,0.0022636852227151394,0.009720530360937119,-0.0504668653011322
1773049369441968000,7.221968017578125,0.0022636852227151394,-0.01584579609334469,-0.05153212696313858
1773049369451943400,7.231943359375,0.0011984215816482902,0.02889527566730976,-0.0504668653011322
1773049369461921800,7.241921875,0.007590003311634064,-0.007323687430471182,-0.04727107286453247
1773049369471897300,7.2518974609375,0.009720530360937119,0.03315633162856102,-0.053662657737731934
1773049369481875500,7.26187548828125,0.0033289489801973104,0.009720530360937119,-0.05579318478703499
1773049369491851500,7.2718515625,0.0043942127376794815,-0.01584579609334469,-0.04727107286453247
1773049369501829400,7.281829345703125,0.01078579481691122,0.07683213800191879,-0.0600542388856411
1773049369511709400,7.29170947265625,0.0022636852227151394,-0.03928159549832344,-0.0504668653011322
1773049369521570600,7.301570556640625,0.00013315795513335615,0.02569948509335518,-0.04301001876592636
1773049369531759400,7.31175927734375,0.0033289489801973104,0.007590003311634064,-0.05792371183633804
1773049369541741300,7.3217412109375,-0.0009321057004854083,-0.01584579609334469,-0.03555317223072052
1773049369551713500,7.331713623046875,0.00013315795513335615,-0.010519478470087051,-0.0366184376180172
1773049369561694500,7.341694580078125,-0.005193160381168127,0.039547912776470184,-0.03555317223072052
1773049369571667700,7.351667724609375,-0.0009321057004854083,-0.028628960251808167,-0.03448791056871414
1773049369581647600,7.361647705078125,-0.004127896390855312,0.009720530360937119,-0.03235738351941109
1773049369591621600,7.37162158203125,-0.003062632866203785,0.02996053919196129,-0.021704746410250664
1773049369601601300,7.381601318359375,-0.0009321057004854083,0.05446160212159157,-0.029161592945456505
1773049369611575800,7.391575927734375,-0.0009321057004854083,-0.057391077280044556,-0.0270310640335083
1773049369621555000,7.401554931640625,-0.0019973693415522575,0.008655266836285591,-0.01957421936094761
1773049369631530000,7.411530029296875,-0.004127896390855312,0.05339634045958519,-0.012117373757064342
1773049369641508600,7.421508544921875,-0.008388951420783997,0.020373167470097542,-0.00892158318310976
1773049369651484000,7.43148388671875,-0.009454214945435524,-0.07017423957586288,-0.00892158318310976
1773049369661462300,7.441462158203125,-0.010519478470087051,0.020373167470097542,-0.006791055668145418
1773049369671438000,7.45143798828125,-0.010519478470087051,-0.021172115579247475,0.0017310534603893757
1773049369681416200,7.461416259765625,-0.012650005519390106,0.018242640420794487,-0.0003994738799519837
1773049369691392000,7.47139208984375,-0.009454214945435524,-0.03608580678701401,-0.0003994738799519837
1773049369701369900,7.481369873046875,-0.009454214945435524,-0.005193160381168127,-0.001464737462811172
1773049369711346200,7.49134619140625,-0.007323687430471182,0.023568958044052124,0.0006657897611148655
1773049369721323800,7.50132373046875,-0.008388951420783997,-0.032890014350414276,0.004926844500005245
1773049369731300400,7.51130029296875,-0.011584741994738579,0.0342215932905674,0.0070573715493083
1773049369741277700,7.521277587890625,-0.010519478470087051,-0.028628960251808167,-0.0025300011038780212
1773049369751254300,7.531254150390625,-0.007323687430471182,-0.04460791498422623,0.009187898598611355
1773049369761232000,7.54123193359375,-0.011584741994738579,0.043808966875076294,0.014514217153191566
1773049369771208400,7.55120849609375,-0.009454214945435524,-0.02330264262855053,0.010253162123262882
1773049369781185800,7.561185791015625,-0.012650005519390106,-0.04034686088562012,0.0070573715493083
1773049369791162400,7.571162353515625,-0.011584741994738579,0.019307903945446014,0.004926844500005245
1773049369801139700,7.5811396484375,-0.012650005519390106,-0.007323687430471182,0.014514217153191566
1773049369811019800,7.591019775390625,-0.011584741994738579,0.02889527566730976,0.003861580742523074
1773049369820881200,7.600881103515625,-0.012650005519390106,-0.024367906153202057,0.015579480677843094
1773049369831070500,7.611070556640625,-0.0062584239058196545,0.0033289489801973104,0.018775271251797676
1773049369841052000,7.621052001953125,-0.014780532568693161,0.08215846121311188,0.002796316985040903
1773049369851024600,7.631024658203125,-0.009454214945435524,-0.12876373529434204,0.009187898598611355
1773049369861005000,7.641005126953125,-0.008388951420783997,0.048070020973682404,0.019840534776449203
1773049369870978600,7.650978515625,-0.013715269044041634,0.07789740711450577,0.008122635073959827
1773049369880958500,7.66095849609375,-0.009454214945435524,-0.07123950868844986,0.01771000772714615
1773049369890894000,7.67089404296875,-0.012650005519390106,0.04593949392437935,0.004926844500005245
1773049369900869400,7.680869384765625,-0.012650005519390106,-0.014780532568693161,0.014514217153191566
1773049369910887000,7.690886962890625,-0.010519478470087051,0.03315633162856102,0.003861580742523074
1773049369920866600,7.700866455078125,-0.016911059617996216,-0.009454214945435524,-0.011052110232412815
1773049369930840800,7.7108408203125,-0.017976323142647743,-0.06271740049123764,0.02197106182575226
1773049369940820000,7.720820068359375,-0.004127896390855312,0.12583427131175995,0.0017310534603893757
1773049369950795000,7.730794921875,-0.009454214945435524,-0.08508793264627457,-0.014247900806367397
1773049369960773600,7.740773681640625,-0.007323687430471182,-0.10532794147729874,0.005992108024656773
1773049369970749200,7.750749267578125,-0.01904158666729927,0.14607428014278412,0.002796316985040903
1773049369980727600,7.7607275390625,-0.011584741994738579,-0.03395527973771095,0.005992108024656773
1773049369990703000,7.770703125,-0.0062584239058196545,-0.05952160432934761,0.004926844500005245
1773049370000681200,7.78068115234375,-0.01584579609334469,0.06511423736810684,0.02090579830110073
1773049370010657300,7.7906572265625,-0.010519478470087051,0.10665952414274216,0.014514217153191566
1773049370020635100,7.80063525390625,-0.010519478470087051,-0.1213068962097168,0.002796316985040903
1773049370030611500,7.810611572265625,-0.008388951420783997,0.022503694519400597,0.028362644836306572
1773049370040589000,7.820589111328125,-0.0062584239058196545,0.1045289933681488,0.02516685426235199
1773049370050565400,7.8305654296875,-0.005193160381168127,-0.013715269044041634,0.011318426579236984
1773049370060543000,7.84054296875,-0.0062584239058196545,-0.07017423957586288,0.0070573715493083
1773049370070519600,7.85051953125,-0.010519478470087051,0.031025802716612816,0.018775271251797676
1773049370080497000,7.860496826171875,-0.008388951420783997,0.13542163372039795,0.0070573715493083
1773049370090473700,7.8704736328125,-0.0009321057004854083,-0.130894273519516,-0.0153131652623415
1773049370100451000,7.880451171875,-0.0009321057004854083,-0.004127896390855312,0.039015281945466995
1773049370110427600,7.890427734375,-0.010519478470087051,0.16311849653720856,0.010253162123262882
1773049370120405000,7.900405029296875,-0.0062584239058196545,-0.16911059617996216,-0.01957421936094761
1773049370130381800,7.9103818359375,-0.0062584239058196545,-0.0019973693415522575,0.0294279083609581
1773049370140359200,7.920359130859375,-0.011584741994738579,0.06404897570610046,0.011318426579236984
1773049370150336000,7.9303359375,-0.009454214945435524,-0.02330264262855053,0.002796316985040903
1773049370160313000,7.94031298828125,-0.011584741994738579,-0.0552605502307415,-0.009986846707761288
1773049370170290000,7.9502900390625,-0.014780532568693161,0.031025802716612816,0.0017310534603893757
1773049370180267300,7.960267333984375,-0.013715269044041634,0.04487423226237297,-0.001464737462811172
1773049370190244000,7.970244140625,-0.008388951420783997,-0.08721846342086792,-0.007856319658458233
1773049370200221200,7.98022119140625,-0.017976323142647743,0.042743705213069916,0.0017310534603893757
1773049370210198300,7.9901982421875,-0.01584579609334469,0.012916321866214275,-0.01318263728171587
1773049370220175400,8.00017529296875,-0.009454214945435524,-0.08934898674488068,-0.0003994738799519837
1773049370230152200,8.010152099609375,-0.017976323142647743,0.05659212917089462,0.005992108024656773
1773049370240129300,8.02012939453125,-0.013715269044041634,0.01504684891551733,-0.004660528618842363
1773049370250106400,8.0301064453125,-0.017976323142647743,-0.05099949613213539,-0.004660528618842363
1773049370260083500,8.04008349609375,-0.013715269044041634,-0.0318247526884079,0.011318426579236984
1773049370270060500,8.050060546875,-0.016911059617996216,0.06937529146671295,0.0006657897611148655
1773049370280037600,8.06003759765625,-0.021172115579247475,-0.021172115579247475,-0.001464737462811172
1773049370290014500,8.070014404296876,-0.009454214945435524,-0.0882837250828743,-0.0003994738799519837
1773049370299991600,8.079991455078124,-0.012650005519390106,0.058722659945487976,-0.004660528618842363
1773049370309968600,8.08996875,-0.011584741994738579,-0.04354264959692955,0.012383690103888512
1773049370319945700,8.09994580078125,-0.010519478470087051,0.059787921607494354,-0.0025300011038780212
1773049370329922800,8.1099228515625,-0.007323687430471182,-0.074435293674469,0.0006657897611148655
1773049370339899600,8.119899658203124,-0.007323687430471182,0.019307903945446014,0.011318426579236984
1773049370349876700,8.129876708984375,-0.0062584239058196545,0.011851058341562748,-0.00892158318310976
1773049370359853800,8.139853759765625,-0.005193160381168127,-0.0318247526884079,0.012383690103888512
1773049370369831000,8.149830810546876,-0.003062632866203785,-0.020106852054595947,0.003861580742523074
1773049370379808000,8.15980810546875,-0.005193160381168127,-0.005193160381168127,0.004926844500005245
1773049370389784800,8.169784912109375,-0.007323687430471182,-0.013715269044041634,0.0017310534603893757
1773049370399762000,8.179761962890625,-0.005193160381168127,-0.0456731803715229,0.010253162123262882
1773049370409739000,8.189739013671876,-0.009454214945435524,0.07789740711450577,-0.001464737462811172
1773049370419716000,8.199716064453124,-0.005193160381168127,-0.074435293674469,0.0017310534603893757
1773049370429693200,8.209693115234375,-0.003062632866203785,-0.048868969082832336,0.0070573715493083
1773049370439670300,8.219670166015625,-0.005193160381168127,0.058722659945487976,0.004926844500005245
1773049370449647000,8.229647216796875,-0.008388951420783997,0.0022636852227151394,0.012383690103888512
1773049370459624200,8.239624267578124,-0.005193160381168127,-0.0318247526884079,-0.00892158318310976
1773049370469601300,8.249601318359375,-0.007323687430471182,-0.07550056278705597,0.019840534776449203
1773049370479578400,8.259578369140625,-0.009454214945435524,0.14820480346679688,0.023036325350403786
1773049370489555500,8.269555419921875,-0.004127896390855312,-0.11917637288570404,0.002796316985040903
1773049370499532300,8.2795322265625,-0.005193160381168127,-0.04460791498422623,0.015579480677843094
1773049370509509400,8.28950927734375,-0.007323687430471182,0.08002793043851852,-0.0003994738799519837
1773049370519486500,8.299486572265625,-0.011584741994738579,0.03635212033987045,0.0006657897611148655
1773049370529463600,8.309463623046875,-0.003062632866203785,-0.04673844203352928,-0.0025300011038780212
1773049370539440600,8.319440673828124,-0.0019973693415522575,0.0043942127376794815,0.0006657897611148655
1773049370549417700,8.329417724609375,-0.003062632866203785,0.09707214683294296,-0.0025300011038780212
1773049370559394600,8.33939453125,0.0011984215816482902,-0.05845634266734123,0.004926844500005245
1773049370569294000,8.349294189453126,-0.005193160381168127,0.01504684891551733,0.009187898598611355
1773049370579263500,8.359263427734374,-0.0062584239058196545,0.05020054802298546,-0.01318263728171587
1773049370589325800,8.369325927734375,0.0022636852227151394,-0.07337003201246262,0.002796316985040903
1773049370599304400,8.379304443359375,0.00013315795513335615,0.043808966875076294,0.002796316985040903
1773049370609279700,8.38927978515625,-0.005193160381168127,0.0342215932905674,-0.00892158318310976
1773049370619258000,8.399258056640624,0.0011984215816482902,-0.05206476151943207,-0.017443692311644554
1773049370629234000,8.40923388671875,0.00013315795513335615,0.00013315795513335615,-0.0153131652623415
1773049370639212000,8.4192119140625,-0.0062584239058196545,0.039547912776470184,-0.007856319658458233
1773049370649188000,8.42918798828125,-0.003062632866203785,0.06511423736810684,-0.016378428786993027
1773049370659166000,8.439166015625,0.0022636852227151394,-0.15206637978553772,-0.030226856470108032
1773049370669142000,8.44914208984375,-0.0019973693415522575,0.07683213800191879,-0.0025300011038780212
1773049370679120000,8.459119873046875,-0.0019973693415522575,0.007590003311634064,-0.012117373757064342
1773049370689096200,8.46909619140625,-0.004127896390855312,-0.03502054139971733,-0.0003994738799519837
1773049370699073800,8.47907373046875,-0.0009321057004854083,0.019307903945446014,-0.007856319658458233
1773049370709050400,8.48905029296875,-0.010519478470087051,0.013981585390865803,-0.0153131652623415
1773049370719027700,8.49902783203125,-0.005193160381168127,-0.025433169677853584,0.004926844500005245
1773049370729004300,8.50900439453125,0.005459476262331009,0.0576573945581913,-0.00892158318310976
1773049370738981600,8.518981689453126,-0.004127896390855312,0.05020054802298546,-0.00892158318310976
1773049370748958500,8.52895849609375,-0.008388951420783997,-0.01584579609334469,0.008122635073959827
1773049370758935800,8.538935791015625,-0.0019973693415522575,0.03741738572716713,0.003861580742523074
1773049370768757800,8.5487578125,0.0011984215816482902,-0.01904158666729927,-0.0035952648613601923
1773049370778719500,8.558719482421875,-0.003062632866203785,0.0342215932905674,0.0070573715493083
1773049370788866300,8.5688662109375,0.0022636852227151394,0.013981585390865803,0.008122635073959827
1773049370798847000,8.578846923828126,-0.0009321057004854083,0.03209106624126434,0.0017310534603893757
1773049370808820500,8.588820556640625,0.0011984215816482902,-0.032890014350414276,0.0070573715493083
1773049370818800400,8.59880029296875,-0.004127896390855312,0.1045289933681488,0.002796316985040903
1773049370828774700,8.608774658203124,0.0022636852227151394,0.0022636852227151394,-0.007856319658458233
1773049370838753800,8.61875390625,0.0033289489801973104,-0.03075948730111122,0.012383690103888512
1773049370848728800,8.628728759765625,-0.004127896390855312,0.09281109273433685,0.009187898598611355
1773049370858707700,8.638707763671874,-0.004127896390855312,-0.007323687430471182,-0.006791055668145418
1773049370868644000,8.64864404296875,-0.0062584239058196545,0.0043942127376794815,0.003861580742523074
1773049370878618600,8.65861865234375,0.00013315795513335615,-0.021172115579247475,-0.001464737462811172
1773049370888637000,8.668636962890625,-0.0062584239058196545,0.0810931921005249,-0.005725792143493891
1773049370898615800,8.67861572265625,-0.003062632866203785,-0.057391077280044556,0.0006657897611148655
1773049370908591000,8.688591064453124,-0.003062632866203785,-0.0062584239058196545,-0.0035952648613601923
1773049370928739300,8.7087392578125,-0.008388951420783997,-0.013715269044041634,-0.0035952648613601923
1773049370938737200,8.718737060546875,-0.0019973693415522575,-0.037151068449020386,-0.0035952648613601923
1773049370948693500,8.728693603515625,-0.003062632866203785,-0.0062584239058196545,-0.014247900806367397
1773049370958687500,8.7386875,-0.008388951420783997,-0.0882837250828743,-0.004660528618842363
1773049370968647700,8.748647705078126,-0.016911059617996216,0.0043942127376794815,0.014514217153191566
1773049370978638000,8.75863818359375,0.0022636852227151394,-0.04247738793492317,0.0017310534603893757
1773049370988601900,8.768601806640625,-0.0062584239058196545,-0.04034686088562012,-0.01318263728171587
1773049370998589700,8.778589599609376,-0.009454214945435524,-0.14460954070091248,-0.016378428786993027
1773049371008556000,8.78855615234375,0.00013315795513335615,-0.04993423447012901,-0.0035952648613601923
1773049371018541600,8.79854150390625,-0.0019973693415522575,0.047004759311676025,0.013448953628540039
1773049371028510200,8.80851025390625,-0.004127896390855312,-0.11385004967451096,0.002796316985040903
1773049371038494000,8.818493896484375,-0.004127896390855312,-0.1573926955461502,0.002796316985040903
1773049371048464100,8.828464111328126,0.0033289489801973104,0.03848264738917351,0.024101590737700462
1773049371058446800,8.83844677734375,0.00013315795513335615,-0.04034686088562012,0.011318426579236984
1773049371068418300,8.848418212890625,-0.005193160381168127,-0.10319741815328598,0.01664474420249462
1773049371078399700,8.858399658203124,0.0033289489801973104,-0.048868969082832336,0.014514217153191566
1773049371088372500,8.86837255859375,0.0011984215816482902,-0.012650005519390106,0.002796316985040903
1773049371098353200,8.878353271484375,-0.004127896390855312,0.006524739786982536,0.012383690103888512
1773049371108326700,8.88832666015625,0.007590003311634064,-0.08189214020967484,0.002796316985040903
1773049371118306300,8.898306396484376,0.009720530360937119,-0.03928159549832344,0.0017310534603893757
1773049371128280600,8.908280517578126,0.0033289489801973104,0.0043942127376794815,0.010253162123262882
1773049371138260000,8.918260009765625,0.0022636852227151394,-0.010519478470087051,0.01664474420249462
1773049371148234800,8.92823486328125,0.0033289489801973104,-0.01584579609334469,0.014514217153191566
1773049371158213600,8.938213623046876,0.0033289489801973104,-0.008388951420783997,0.012383690103888512
1773049371168188700,8.948188720703126,0.0043942127376794815,0.011851058341562748,0.014514217153191566
1773049371178167300,8.958167236328125,0.006524739786982536,0.0022636852227151394,0.011318426579236984
1773049371188104000,8.96810400390625,0.006524739786982536,0.03209106624126434,0.002796316985040903
1773049371198078200,8.978078125,0.0043942127376794815,-0.011584741994738579,0.002796316985040903
1773049371208097000,8.988096923828126,0.006524739786982536,0.01717737689614296,0.002796316985040903
1773049371218075600,8.99807568359375,0.007590003311634064,0.06617950648069382,0.0006657897611148655
1773049371228012300,9.00801220703125,0.016112113371491432,-0.06058686971664429,0.002796316985040903
1773049371237986600,9.017986572265626,0.011851058341562748,0.06191844865679741,-0.005725792143493891
1773049371247966200,9.02796630859375,0.013981585390865803,0.02143843099474907,-0.01318263728171587
1773049371257941200,9.037941162109375,0.018242640420794487,-0.021172115579247475,0.008122635073959827
1773049371267920100,9.047920166015626,0.013981585390865803,0.03635212033987045,-0.0025300011038780212
1773049371277895700,9.057895751953126,0.011851058341562748,0.02143843099474907,0.003861580742523074
1773049371287913000,9.067912841796876,0.02143843099474907,0.02569948509335518,-0.011052110232412815
1773049371297892900,9.077892822265625,0.01504684891551733,0.03848264738917351,-0.017443692311644554
1773049371307867100,9.0878671875,0.019307903945446014,0.0033289489801973104,-0.006791055668145418
1773049371317846300,9.09784619140625,0.020373167470097542,0.09174583107233047,-0.0153131652623415
1773049371327782400,9.107782470703125,0.016112113371491432,0.006524739786982536,-0.020639482885599136
1773049371337757200,9.117757080078125,0.022503694519400597,-0.003062632866203785,0.002796316985040903
1773049371347697700,9.12769775390625,0.023568958044052124,0.04487423226237297,-0.004660528618842363
1773049371357668900,9.1376689453125,0.023568958044052124,0.02889527566730976,-0.0003994738799519837
1773049371367549000,9.147548828125,0.02889527566730976,-0.0062584239058196545,-0.012117373757064342
1773049371377429000,9.157428955078124,0.027830012142658234,-0.028628960251808167,-0.0003994738799519837
1773049371387489000,9.167489013671876,0.02569948509335518,0.09813741594552994,-0.001464737462811172
1773049371397456000,9.177455810546874,0.02889527566730976,-0.02756369672715664,-0.011052110232412815
1773049371407443000,9.18744287109375,0.031025802716612816,-0.028628960251808167,-0.0035952648613601923
1773049371417411800,9.197411865234375,0.031025802716612816,0.07789740711450577,-0.01318263728171587
1773049371427358200,9.207358154296875,0.027830012142658234,-0.053130023181438446,0.0006657897611148655
1773049371437324800,9.21732470703125,0.02889527566730976,0.03848264738917351,0.0017310534603893757
1773049371447234800,9.22723486328125,0.02463422156870365,-0.028628960251808167,-0.0035952648613601923
1773049371457195800,9.23719580078125,0.02996053919196129,-0.012650005519390106,0.008122635073959827
1773049371467111400,9.247111328125,0.03209106624126434,-0.05419528856873512,-0.0025300011038780212
1773049371477067800,9.25706787109375,0.02463422156870365,0.01717737689614296,0.014514217153191566
1773049371487065000,9.267065185546874,0.022503694519400597,0.0672447681427002,-0.007856319658458233
1773049371497025500,9.277025634765625,0.02569948509335518,-0.17976324260234833,0.002796316985040903
1773049371506980400,9.28698046875,0.012916321866214275,0.09174583107233047,0.026232117787003517
1773049371516940300,9.296940185546875,0.018242640420794487,-0.005193160381168127,-0.006791055668145418
1773049371526895400,9.306895263671874,0.01504684891551733,-0.10106688737869263,0.018775271251797676
1773049371536854800,9.316854736328125,0.008655266836285591,-0.0318247526884079,0.008122635073959827
1773049371546772200,9.326772216796876,0.007590003311634064,-0.053130023181438446,0.011318426579236984
1773049371556727300,9.336727294921875,0.006524739786982536,-0.012650005519390106,0.027297381311655045
1773049371566726000,9.346725830078125,0.008655266836285591,-0.0786963477730751,0.008122635073959827
1773049371576685300,9.356685302734375,0.008655266836285591,-0.11704584211111069,0.015579480677843094
1773049371586563800,9.366563720703125,0.007590003311634064,-0.022237379103899002,0.02197106182575226
1773049371596515300,9.376515380859376,0.005459476262331009,-0.0062584239058196545,0.024101590737700462
1773049371606478800,9.386478759765625,0.0011984215816482902,-0.09254477918148041,0.004926844500005245
1773049371616431600,9.396431640625,0.0022636852227151394,-0.12237215787172318,0.002796316985040903
1773049371626432500,9.4064326171875,0.007590003311634064,-0.02330264262855053,0.0294279083609581
1773049371636390100,9.41639013671875,0.016112113371491432,0.04487423226237297,-0.0003994738799519837
1773049371646570000,9.426570068359375,0.0022636852227151394,-0.17550218105316162,-0.014247900806367397
1773049371656750000,9.43675,0.008655266836285591,-0.1351553201675415,0.008122635073959827
1773049371666930000,9.446929931640625,0.009720530360937119,0.16844481229782104,-0.011052110232412815
1773049371677036500,9.45703662109375,0.016112113371491432,-0.1117195263504982,-0.02383527345955372
1773049371686993700,9.46699365234375,0.018242640420794487,-0.08402267098426819,0.008122635073959827
1773049371696987000,9.47698681640625,0.02996053919196129,-0.03821633383631706,-0.030226856470108032
1773049371706947800,9.48694775390625,0.035286858677864075,-0.04247738793492317,-0.03768370300531387
1773049371716937700,9.496937744140626,0.03741738572716713,-0.04460791498422623,-0.024900536984205246
1773049371726902000,9.506902099609375,0.03315633162856102,-0.004127896390855312,-0.0270310640335083
1773049371736889300,9.516889404296874,0.04167843982577324,-0.04780370742082596,-0.0270310640335083
1773049371746856000,9.52685595703125,0.055526867508888245,-0.053130023181438446,-0.029161592945456505
1773049371756841200,9.53684130859375,0.043808966875076294,0.07470161467790604,-0.020639482885599136
1773049371766810000,9.54681005859375,0.042743705213069916,-0.007323687430471182,-0.029161592945456505
1773049371776793900,9.5567939453125,0.05020054802298546,-0.06058686971664429,-0.0366184376180172
1773049371786764300,9.566764404296874,0.042743705213069916,0.027830012142658234,-0.024900536984205246
1773049371796746500,9.57674658203125,0.04061317816376686,0.14927007257938385,-0.014247900806367397
1773049371806718200,9.58671826171875,0.04487423226237297,-0.08295740932226181,-0.02277000993490219
1773049371816699600,9.59669970703125,0.04487423226237297,-0.032890014350414276,-0.01957421936094761
1773049371826672400,9.60667236328125,0.03848264738917351,0.12263847887516022,-0.007856319658458233
1773049371836652800,9.61665283203125,0.031025802716612816,0.05233107507228851,0.0006657897611148655
1773049371846626600,9.62662646484375,0.0342215932905674,-0.03395527973771095,-0.0003994738799519837
1773049371856606200,9.636606201171874,0.03315633162856102,0.0672447681427002,0.003861580742523074
1773049371866580500,9.64658056640625,0.02889527566730976,0.1002679392695427,0.010253162123262882
1773049371876559600,9.6565595703125,0.026764748618006706,-0.009454214945435524,0.005992108024656773
1773049371886534700,9.66653466796875,0.023568958044052124,0.00013315795513335615,0.003861580742523074
1773049371896513300,9.67651318359375,0.02143843099474907,0.07470161467790604,0.012383690103888512
1773049371906488600,9.686488525390626,0.019307903945446014,0.058722659945487976,0.02197106182575226
1773049371916467000,9.696467041015625,0.019307903945446014,-0.020106852054595947,0.004926844500005245
1773049371926347000,9.706346923828125,0.02143843099474907,-0.029694223776459694,0.01664474420249462
1773049371936207600,9.71620751953125,0.020373167470097542,0.020373167470097542,0.024101590737700462
1773049371946396700,9.726396728515626,0.01504684891551733,0.09387636184692383,0.024101590737700462
1773049371956378600,9.736378662109376,0.01504684891551733,-0.08721846342086792,0.018775271251797676
1773049371966350600,9.7463505859375,0.023568958044052124,-0.03821633383631706,0.004926844500005245
1773049371976331800,9.756331787109374,0.020373167470097542,0.031025802716612816,0.014514217153191566
1773049371986304800,9.7663046875,0.016112113371491432,0.10559425503015518,0.009187898598611355
1773049371996285000,9.776284912109375,0.020373167470097542,-0.0882837250828743,-0.004660528618842363
1773049372006258700,9.7862587890625,0.020373167470097542,-0.048868969082832336,0.004926844500005245
1773049372016238300,9.79623828125,0.012916321866214275,0.11305110156536102,0.019840534776449203
1773049372026212900,9.806212890625,0.019307903945446014,-0.01904158666729927,0.01771000772714615
1773049372036192000,9.81619189453125,0.02889527566730976,-0.1255679577589035,0.004926844500005245
1773049372046166800,9.826166748046875,0.02143843099474907,-0.009454214945435524,0.005992108024656773
1773049372056145700,9.836145751953126,0.020373167470097542,0.08641951531171799,0.028362644836306572
1773049372066121000,9.846120849609376,0.023568958044052124,-0.03821633383631706,0.014514217153191566
1773049372076099300,9.856099365234375,0.026764748618006706,-0.09893636405467987,-0.005725792143493891
1773049372086075000,9.866074951171875,0.019307903945446014,0.039547912776470184,0.019840534776449203
1773049372096053000,9.876052978515625,0.02463422156870365,0.05020054802298546,0.026232117787003517
1773049372106029000,9.886029052734376,0.023568958044052124,-0.0456731803715229,0.0006657897611148655
1773049372116007000,9.8960068359375,0.019307903945446014,-0.08402267098426819,0.013448953628540039
1773049372125886700,9.90588671875,0.020373167470097542,0.02889527566730976,0.018775271251797676
1773049372135747600,9.91574755859375,0.019307903945446014,0.039547912776470184,0.01771000772714615
1773049372145937000,9.92593701171875,0.023568958044052124,-0.10319741815328598,0.012383690103888512
1773049372155918800,9.9359189453125,0.02463422156870365,-0.0318247526884079,0.009187898598611355
1773049372165890800,9.945890869140625,0.018242640420794487,0.04487423226237297,0.019840534776449203
1773049372175871700,9.955871826171874,0.020373167470097542,-0.0019973693415522575,0.01664474420249462
1773049372185845000,9.965844970703126,0.02463422156870365,-0.11065425723791122,0.014514217153191566
1773049372195825200,9.9758251953125,0.022503694519400597,0.006524739786982536,0.015579480677843094
1773049372205799000,9.985798828125,0.018242640420794487,0.051265813410282135,0.023036325350403786
1773049372215778600,9.995778564453126,0.020373167470097542,-0.0882837250828743,0.01771000772714615
1773049372225658400,10.005658447265626,0.020373167470097542,-0.02649843320250511,0.012383690103888512
1773049372235518700,10.015518798828126,0.020373167470097542,-0.003062632866203785,0.024101590737700462
1773049372245513000,10.025512939453124,0.012916321866214275,0.055526867508888245,0.028362644836306572
1773049372255476200,10.035476318359375,0.022503694519400597,-0.10106688737869263,0.019840534776449203
1773049372265661000,10.045660888671875,0.02569948509335518,0.0011984215816482902,0.0017310534603893757
1773049372275646500,10.055646484375,0.016112113371491432,-0.013715269044041634,0.019840534776449203
1773049372285615000,10.065614990234375,0.02143843099474907,0.02569948509335518,0.03795001655817032
1773049372295598800,10.075598876953125,0.022503694519400597,0.020373167470097542,0.003861580742523074
1773049372305569000,10.085569091796875,0.022503694519400597,-0.10958899557590485,0.024101590737700462
1773049372315551500,10.095551513671875,0.02569948509335518,0.06298371404409409,0.0294279083609581
1773049372325431600,10.105431640625,0.027830012142658234,0.03741738572716713,0.010253162123262882
1773049372335291100,10.115291015625,0.02996053919196129,-0.09574057161808014,0.014514217153191566
1773049372345283000,10.125282958984375,0.035286858677864075,-0.010519478470087051,0.011318426579236984
1773049372355248000,10.135248046875,0.031025802716612816,0.06937529146671295,0.01664474420249462
1773049372365431000,10.14543115234375,0.027830012142658234,0.02889527566730976,0.0070573715493083
1773049372375418000,10.155418212890625,0.039547912776470184,-0.1531316488981247,-0.009986846707761288
1773049372385298200,10.165298095703125,0.02996053919196129,0.06937529146671295,0.0017310534603893757
1773049372395157000,10.175156982421875,0.026764748618006706,0.047004759311676025,0.0070573715493083
1773049372405339100,10.185339111328124,0.02996053919196129,-0.09254477918148041,-0.009986846707761288
1773049372415326700,10.19532666015625,0.03315633162856102,-0.06378266215324402,-0.016378428786993027
1773049372425293000,10.20529296875,0.03209106624126434,0.0576573945581913,0.0017310534603893757
1773049372435278600,10.215278564453126,0.02996053919196129,0.022503694519400597,-0.01850895583629608
1773049372445158700,10.22515869140625,0.031025802716612816,-0.102132149040699,-0.016378428786993027
1773049372455017700,10.235017822265625,0.03209106624126434,-0.005193160381168127,-0.01957421936094761
1773049372465201200,10.245201171875,0.026764748618006706,0.06511423736810684,-0.02277000993490219
1773049372475187700,10.255187744140626,0.027830012142658234,-0.08615319430828094,-0.020639482885599136
1773049372485155000,10.265155029296874,0.03315633162856102,-0.02756369672715664,-0.01957421936094761
1773049372495139800,10.275139892578125,0.027830012142658234,0.055526867508888245,-0.02277000993490219
1773049372505109200,10.285109130859375,0.02143843099474907,-0.014780532568693161,-0.014247900806367397
1773049372515092500,10.295092529296875,0.026764748618006706,-0.07976161688566208,-0.016378428786993027
1773049372524972300,10.30497216796875,0.031025802716612816,0.04487423226237297,-0.01850895583629608
1773049372534831900,10.314831787109375,0.02569948509335518,0.0011984215816482902,-0.012117373757064342
1773049372545017000,10.32501708984375,0.023568958044052124,-0.037151068449020386,-0.016378428786993027
1773049372555002400,10.33500244140625,0.02889527566730976,-0.032890014350414276,-0.024900536984205246
1773049372564971300,10.34497119140625,0.02143843099474907,0.02996053919196129,-0.0153131652623415
1773049372574954800,10.354954833984374,0.02143843099474907,-0.02649843320250511,-0.006791055668145418
1773049372584925200,10.36492529296875,0.02143843099474907,0.05659212917089462,-0.014247900806367397
1773049372594907600,10.37490771484375,0.02996053919196129,-0.0978710949420929,-0.01957421936094761
1773049372604879400,10.38487939453125,0.026764748618006706,-0.0019973693415522575,-0.001464737462811172
1773049372614860500,10.394860595703125,0.022503694519400597,0.0672447681427002,-0.014247900806367397
1773049372624740600,10.40474072265625,0.02889527566730976,-0.11811110377311707,-0.004660528618842363
1773049372634600400,10.414600341796875,0.031025802716612816,0.006524739786982536,-0.00892158318310976
1773049372644787200,10.424787109375,0.027830012142658234,0.04167843982577324,-0.004660528618842363
1773049372654771200,10.434771240234374,0.031025802716612816,-0.053130023181438446,-0.011052110232412815
1773049372664741000,10.4447412109375,0.03209106624126434,-0.048868969082832336,-0.01318263728171587
1773049372674723800,10.454723876953125,0.031025802716612816,0.016112113371491432,-0.001464737462811172
1773049372684695300,10.4646953125,0.031025802716612816,0.035286858677864075,-0.0025300011038780212
1773049372694676700,10.4746767578125,0.035286858677864075,-0.12450268864631653,-0.009986846707761288
1773049372704649500,10.4846494140625,0.02996053919196129,0.058722659945487976,-0.007856319658458233
1773049372714630000,10.4946298828125,0.03209106624126434,-0.0009321057004854083,-0.004660528618842363
1773049372724603400,10.504603271484376,0.02996053919196129,-0.004127896390855312,-0.004660528618842363
1773049372734583300,10.514583251953125,0.0342215932905674,-0.022237379103899002,-0.009986846707761288
1773049372744463000,10.524463134765625,0.027830012142658234,0.06511423736810684,0.010253162123262882
1773049372754323500,10.534323486328125,0.039547912776470184,-0.0009321057004854083,-0.0035952648613601923
1773049372764511200,10.54451123046875,0.03315633162856102,0.007590003311634064,-0.016378428786993027
1773049372774494200,10.554494140625,0.03635212033987045,-0.08615319430828094,0.0006657897611148655
1773049372784465400,10.56446533203125,0.027830012142658234,0.21425114572048187,-0.004660528618842363
1773049372794447000,10.574447021484374,0.03635212033987045,-0.10639320313930511,-0.0270310640335083
1773049372804419300,10.58441943359375,0.026764748618006706,-0.04247738793492317,0.0070573715493083
1773049372814400300,10.594400146484375,0.02569948509335518,0.15992270410060883,-0.005725792143493891
1773049372824280300,10.6042802734375,0.02143843099474907,-0.061652131378650665,-0.021704746410250664
1773049372834140200,10.61414013671875,0.022503694519400597,-0.0691089779138565,-0.004660528618842363
1773049372844133000,10.624133056640625,0.02463422156870365,-0.014780532568693161,-0.016378428786993027
1773049372854097400,10.634097412109375,0.02463422156870365,0.07789740711450577,-0.001464737462811172
1773049372864281000,10.644281005859375,0.027830012142658234,-0.07550056278705597,-0.021704746410250664
1773049372874267400,10.654267333984375,0.023568958044052124,-0.08189214020967484,-0.028096329420804977
1773049372884235300,10.6642353515625,0.023568958044052124,0.047004759311676025,-0.004660528618842363
1773049372894219800,10.6742197265625,0.02569948509335518,0.04167843982577324,-0.017443692311644554
1773049372904189200,10.684189208984375,0.020373167470097542,-0.07763108611106873,-0.021704746410250664
1773049372914172200,10.694172119140624,0.02463422156870365,-0.09147951751947403,-0.021704746410250664
1773049372924052200,10.70405224609375,0.02569948509335518,0.0810931921005249,-0.0035952648613601923
1773049372933911800,10.713911865234374,0.01504684891551733,-0.009454214945435524,-0.016378428786993027
1773049372943903200,10.7239033203125,0.01504684891551733,-0.03502054139971733,0.004926844500005245
1773049372953868500,10.73386865234375,0.02889527566730976,-0.05419528856873512,-0.007856319658458233
1773049372964051200,10.74405126953125,0.01504684891551733,0.08428898453712463,-0.014247900806367397
1773049372974038500,10.75403857421875,0.018242640420794487,-0.15952323377132416,-0.005725792143493891
1773049372984005000,10.764005126953125,0.013981585390865803,0.06831002980470657,-0.011052110232412815
1773049372993990400,10.773990478515625,0.016112113371491432,-0.0009321057004854083,-0.0025300011038780212
1773049373003959300,10.783959228515625,0.019307903945446014,0.016112113371491432,-0.0003994738799519837
1773049373013942800,10.79394287109375,0.01504684891551733,-0.06697845458984375,-0.007856319658458233
1773049373023913200,10.803913330078124,0.019307903945446014,0.011851058341562748,0.004926844500005245
1773049373033895700,10.813895751953124,0.019307903945446014,-0.004127896390855312,-0.007856319658458233
1773049373043775500,10.823775390625,0.01717737689614296,-0.022237379103899002,-0.0003994738799519837
1773049373053635300,10.83363525390625,0.013981585390865803,0.05020054802298546,-0.001464737462811172
1773049373063821000,10.843821044921874,0.02889527566730976,-0.10106688737869263,0.0070573715493083
1773049373073805800,10.853805908203125,0.01078579481691122,0.10772478580474854,-0.0270310640335083
1773049373083775200,10.863775146484375,0.01078579481691122,-0.08082687854766846,-0.025965800508856773
1773049373093758200,10.87375830078125,0.02569948509335518,-0.014780532568693161,0.026232117787003517
1773049373103768000,10.88376806640625,0.011851058341562748,0.11305110156536102,-0.011052110232412815
1773049373113753900,10.89375390625,0.022503694519400597,-0.280963271856308,-0.004660528618842363
1773049373123634000,10.903634033203126,0.009720530360937119,0.18548902869224548,0.019840534776449203
1773049373133450200,10.9134501953125,0.011851058341562748,-0.020106852054595947,0.008122635073959827
1773049373143637200,10.92363720703125,0.013981585390865803,-0.0648479238152504,0.018775271251797676
1773049373153621000,10.93362109375,0.009720530360937119,-0.010519478470087051,-0.0025300011038780212
1773049373163591200,10.943591064453125,0.01078579481691122,0.027830012142658234,0.008122635073959827
1773049373173573600,10.95357373046875,0.012916321866214275,0.020373167470097542,0.005992108024656773
1773049373183545000,10.963545166015624,0.01078579481691122,-0.03075948730111122,0.008122635073959827
1773049373193526500,10.973526611328126,0.0022636852227151394,0.04061317816376686,0.008122635073959827
1773049373203499300,10.983499267578125,0.01078579481691122,-0.05419528856873512,0.0070573715493083
1773049373213479700,10.993479736328124,0.01504684891551733,0.007590003311634064,-0.0025300011038780212
1773049373223359700,11.00335986328125,0.005459476262331009,0.009720530360937119,0.003861580742523074
1773049373233219800,11.0132197265625,0.0033289489801973104,0.031025802716612816,0.002796316985040903
1773049373243213000,11.023213134765625,0.0033289489801973104,-0.07550056278705597,0.005992108024656773
1773049373253176800,11.0331767578125,0.007590003311634064,0.020373167470097542,0.015579480677843094
1773049373263361000,11.043361083984376,-0.003062632866203785,0.047004759311676025,0.003861580742523074
1773049373273347000,11.05334716796875,0.0043942127376794815,-0.11811110377311707,0.014514217153191566
1773049373283315000,11.06331494140625,0.012916321866214275,-0.04460791498422623,0.0006657897611148655
1773049373293299200,11.07329931640625,-0.004127896390855312,0.07470161467790604,0.02090579830110073
1773049373303269000,11.08326904296875,0.00013315795513335615,0.051265813410282135,0.027297381311655045
1773049373313251800,11.093251953125,0.02143843099474907,-0.1255679577589035,-0.01957421936094761
1773049373323223000,11.10322314453125,0.005459476262331009,-0.003062632866203785,0.003861580742523074
1773049373333204700,11.113204833984375,0.005459476262331009,0.15992270410060883,0.02197106182575226
1773049373343177200,11.12317724609375,0.0033289489801973104,-0.0318247526884079,0.0006657897611148655
1773049373353158000,11.133157958984375,0.006524739786982536,-0.007323687430471182,0.04008054360747337
1773049373363131100,11.143131103515625,0.020373167470097542,0.08215846121311188,0.0070573715493083
1773049373373111000,11.153111083984374,0.00013315795513335615,-0.06697845458984375,-0.016378428786993027
1773049373383085000,11.1630849609375,-0.011584741994738579,-0.02756369672715664,0.02197106182575226
1773049373393064400,11.173064453125,0.023568958044052124,0.16205322742462158,0.011318426579236984
1773049373403039200,11.183039306640625,-0.007323687430471182,0.05020054802298546,-0.030226856470108032
1773049373413018000,11.19301806640625,-0.022237379103899002,-0.15206637978553772,-0.016378428786993027
1773049373422898200,11.202898193359376,0.031025802716612816,0.03635212033987045,0.011318426579236984
1773049373432758500,11.212758544921876,0.009720530360937119,0.12050794810056686,-0.01318263728171587
1773049373442753000,11.2227529296875,-0.003062632866203785,-0.09467530250549316,-0.006791055668145418
1773049373452715800,11.2327158203125,0.005459476262331009,0.0022636852227151394,0.0006657897611148655
1773049373462900700,11.242900634765626,0.013981585390865803,0.19614167511463165,-0.004660528618842363
1773049373472886300,11.25288623046875,0.012916321866214275,-0.022237379103899002,-0.03981423005461693
1773049373482855000,11.26285498046875,-0.004127896390855312,-0.09467530250549316,-0.006791055668145418
1773049373492838700,11.272838623046875,-0.008388951420783997,0.20572903752326965,0.04221107065677643
1773049373502808800,11.282808837890625,0.0342215932905674,0.14927007257938385,-0.0270310640335083
1773049373512791300,11.292791259765625,0.0022636852227151394,-0.18508955836296082,-0.08775109052658081
1773049373522671000,11.302671142578125,0.0022636852227151394,-0.008388951420783997,0.02516685426235199
1773049373532531000,11.312531005859375,0.008655266836285591,0.18229323625564575,0.039015281945466995
1773049373542717000,11.322717041015625,0.01078579481691122,-0.074435293674469,-0.01957421936094761
1773049373552701400,11.332701416015626,0.00013315795513335615,-0.02756369672715664,-0.005725792143493891
1773049373562670800,11.3426708984375,0.008655266836285591,0.04167843982577324,0.018775271251797676
1773049373572654000,11.352654052734374,0.02143843099474907,0.00013315795513335615,-0.001464737462811172
1773049373582624800,11.362624755859375,-0.0009321057004854083,0.006524739786982536,0.012383690103888512
1773049373592606700,11.372606689453125,0.0043942127376794815,0.03848264738917351,0.027297381311655045
1773049373602579000,11.382578857421874,0.009720530360937119,0.018242640420794487,-0.01318263728171587
1773049373612560000,11.392559814453126,0.013981585390865803,-0.11385004967451096,0.0070573715493083
1773049373622532900,11.402532958984375,-0.014780532568693161,0.16951008141040802,0.06671213358640671
1773049373632513000,11.412512939453125,0.0022636852227151394,0.15885743498802185,0.009187898598611355
1773049373642487000,11.422487060546874,0.008655266836285591,-0.25859275460243225,-0.025965800508856773
1773049373652466400,11.432466552734375,-0.0009321057004854083,-0.05952160432934761,0.031558435410261154
1773049373662441000,11.44244091796875,0.00013315795513335615,0.17909744381904602,0.005992108024656773
1773049373672419800,11.452419921875,-0.0019973693415522575,-0.02649843320250511,-0.0153131652623415
1773049373682395000,11.462394775390624,0.0043942127376794815,-0.16165375709533691,0.02197106182575226
1773049373692373500,11.47237353515625,-0.003062632866203785,0.22490379214286804,0.019840534776449203
1773049373702348800,11.482348876953125,0.008655266836285591,-0.1213068962097168,-0.005725792143493891
1773049373712327200,11.4923271484375,0.0043942127376794815,-0.029694223776459694,0.015579480677843094
1773049373722207200,11.502207275390624,0.016112113371491432,0.2078595608472824,0.005992108024656773
1773049373732067600,11.512067626953124,0.02463422156870365,0.0810931921005249,-0.028096329420804977
1773049373742257000,11.5222568359375,0.008655266836285591,0.16737954318523407,-0.05898897349834442
1773049373752238800,11.53223876953125,0.009720530360937119,0.1993374526500702,-0.040879491716623306
1773049373762210800,11.5422109375,0.018242640420794487,0.21212062239646912,-0.03448791056871414
1773049373772191700,11.552191650390625,0.018242640420794487,-0.0019973693415522575,-0.05579318478703499
1773049373782164700,11.562164794921875,0.0043942127376794815,0.01078579481691122,-0.029161592945456505
1773049373792145200,11.572145263671874,0.006524739786982536,0.1705753356218338,-0.03874896466732025
1773049373802119000,11.582118896484374,0.03209106624126434,-0.074435293674469,-0.06857634335756302
1773049373812098300,11.592098388671875,0.01717737689614296,0.11305110156536102,-0.01850895583629608
1773049373822072800,11.60207275390625,0.013981585390865803,0.08961530029773712,-0.05685844644904137
1773049373832052000,11.612052001953124,0.019307903945446014,-0.10639320313930511,-0.06325002759695053
1773049373842026800,11.62202685546875,0.0342215932905674,0.1002679392695427,-0.045140545815229416
1773049373852005600,11.632005615234375,0.01078579481691122,0.15459638833999634,-0.03768370300531387
1773049373861981000,11.64198095703125,0.0033289489801973104,-0.04993423447012901,-0.0035952648613601923
1773049373871959300,11.651959228515626,0.018242640420794487,0.03635212033987045,-0.01318263728171587
1773049373881934800,11.661934814453126,0.0043942127376794815,0.013981585390865803,0.0006657897611148655
1773049373891913000,11.671912841796875,-0.004127896390855312,0.14927007257938385,0.028362644836306572
1773049373901888800,11.681888671875,0.016112113371491432,-0.02756369672715664,-0.009986846707761288
1773049373911866600,11.69186669921875,0.006524739786982536,-0.003062632866203785,0.01771000772714615
1773049373921843000,11.701843017578126,0.00013315795513335615,0.17270587384700775,0.01664474420249462
1773049373931820500,11.711820556640625,0.01078579481691122,-0.008388951420783997,-0.004660528618842363
1773049373941796900,11.721796875,0.007590003311634064,0.06298371404409409,0.003861580742523074
1773049373951774500,11.7317744140625,0.011851058341562748,0.02143843099474907,0.002796316985040903
1773049373961751000,11.7417509765625,-0.004127896390855312,0.08322372287511826,0.027297381311655045
1773049373971728400,11.751728271484374,0.00013315795513335615,0.042743705213069916,0.028362644836306572
1773049373981705000,11.761705078125,0.005459476262331009,-0.03608580678701401,0.030493171885609627
1773049373991682300,11.771682373046875,-0.003062632866203785,0.02889527566730976,0.03795001655817032
1773049374001659000,11.781658935546876,-0.003062632866203785,0.06191844865679741,0.04114580899477005
1773049374011636200,11.79163623046875,0.0011984215816482902,-0.12024163454771042,0.026232117787003517
1773049374021612800,11.80161279296875,-0.005193160381168127,0.05659212917089462,0.024101590737700462
1773049374031590100,11.811590087890625,-0.007323687430471182,0.022503694519400597,0.02197106182575226
1773049374041567000,11.82156689453125,-0.0009321057004854083,0.013981585390865803,0.008122635073959827
1773049374051544000,11.8315439453125,-0.0009321057004854083,-0.0691089779138565,-0.004660528618842363
1773049374061521000,11.84152099609375,-0.010519478470087051,0.04487423226237297,0.015579480677843094
1773049374071498000,11.851498046875,-0.0009321057004854083,-0.003062632866203785,0.002796316985040903
1773049374081474800,11.861474853515626,0.00013315795513335615,-0.11065425723791122,-0.005725792143493891
1773049374091452000,11.871451904296874,-0.0062584239058196545,0.07789740711450577,0.04008054360747337
1773049374101429000,11.881428955078125,0.005459476262331009,-0.012650005519390106,-0.009986846707761288
1773049374111406000,11.891406005859375,-0.010519478470087051,-0.10639320313930511,-0.012117373757064342
1773049374121383000,11.9013828125,-0.009454214945435524,0.1567269116640091,0.04540686309337616
1773049374131360000,11.911360107421874,0.023568958044052124,0.04593949392437935,-0.004660528618842363
1773049374141298200,11.921298095703126,-0.0019973693415522575,-0.17976324260234833,-0.03981423005461693
1773049374151271200,11.931271240234375,-0.037151068449020386,0.0672447681427002,0.026232117787003517
1773049374161291000,11.941291015625,0.009720530360937119,0.22064273059368134,0.018775271251797676
1773049374171268900,11.951268798828124,0.02996053919196129,-0.02756369672715664,-0.07177213579416275
1773049374181245000,11.961244873046875,-0.011584741994738579,-0.2191779911518097,-0.009986846707761288
1773049374191222500,11.971222412109375,0.006524739786982536,0.180162712931633,0.04860265180468559
1773049374201199000,11.98119921875,0.007590003311634064,-0.022237379103899002,-0.011052110232412815
1773049374211176400,11.991176513671874,-0.008388951420783997,-0.12237215787172318,0.03262370079755783
1773049374221153000,12.001153076171875,0.02889527566730976,0.23342590034008026,0.059255290776491165
1773049374231130400,12.01113037109375,0.027830012142658234,0.06404897570610046,0.02090579830110073
1773049374241010400,12.021010498046875,0.012916321866214275,-0.11065425723791122,0.014514217153191566
1773049374250871300,12.030871337890625,0.018242640420794487,0.1897500902414322,0.08695214241743088
1773049374261060900,12.041060791015624,0.018242640420794487,0.2728406488895416,0.08695214241743088
1773049374271042600,12.05104248046875,0.019307903945446014,0.20146799087524414,-0.02277000993490219
1773049374281015000,12.06101513671875,0.018242640420794487,-0.23409168422222137,-0.0600542388856411
1773049374290995500,12.070995361328125,0.02143843099474907,0.12903006374835968,0.09227846562862396
1773049374300969000,12.080968994140624,0.0043942127376794815,0.7510108947753906,0.026232117787003517
1773049374310948900,12.090948974609375,0.008655266836285591,0.02996053919196129,-0.024900536984205246
1773049374320923100,12.100923095703125,-0.007323687430471182,-0.18722008168697357,0.15086796879768372
