time,seconds_elapsed,z,y,x
1773049362498112500,0.278112548828125,9.78544807434082,-0.6430711150169373,0.4133601188659668
1773049362518058500,0.29805859375,9.885947227478027,-0.6957131624221802,0.6675975322723389
1773049362538021000,0.318021240234375,9.680164337158203,-0.5904290080070496,0.31764721870422363
1773049362547980800,0.327980712890625,9.6466646194458,-0.5856433510780334,0.3798605799674988
1773049362557974800,0.337974853515625,9.833304405212402,-0.7100701332092285,0.4372883439064026
1773049362567948300,0.3479482421875,9.905089378356934,-0.5808576941490173,0.494716078042984
1773049362577928700,0.3579287109375,9.382855415344238,-0.5665007829666138,0.13579268753528595
1773049362587905000,0.367905029296875,9.775876998901367,-0.6813562512397766,0.5670989751815796
1773049362597921300,0.37792138671875,9.938589096069336,-0.7674978375434875,0.9499505758285522
1773049362607913700,0.387913818359375,9.718449592590332,-0.6430711150169373,0.3846462368965149
1773049362617875700,0.397875732421875,9.747162818908691,-0.5330012440681458,0.5527420043945312
1773049362627856000,0.40785595703125,9.7998046875,-0.5521438121795654,0.22193430364131927
1773049362637753000,0.417753173828125,9.598209381103516,-0.5330012440681458,0.07357929646968842
1773049362647699700,0.42769970703125,9.602995872497559,-0.7483552694320679,0.50907301902771
1773049362657706200,0.437706298828125,10.0343017578125,-0.7339983582496643,0.9068797826766968
1773049362667677400,0.447677490234375,9.602995872497559,-0.6143572330474854,0.5042873620986938
1773049362677583600,0.45758349609375,9.531210899353027,-0.5042873620986938,0.3846462368965149
1773049362687528400,0.467528564453125,9.948160171508789,-0.6143572330474854,0.5958128571510315
1773049362697408500,0.477408447265625,9.69930648803711,-0.666999340057373,0.23629122972488403
1773049362707288600,0.48728857421875,9.680164337158203,-0.5617151260375977,0.3415754437446594
1773049362717448400,0.497448486328125,9.708877563476562,-0.6478567123413086,0.4660021960735321
1773049362727484400,0.507484375,9.761520385742188,-0.6095715761184692,0.42293140292167664
1773049362737290800,0.517290771484375,9.632308006286621,-0.7052844762802124,0.6484549641609192
1773049362747233000,0.52723291015625,9.914660453796387,-0.6765705943107605,0.9308080077171326
1773049362757281000,0.537281005859375,9.890732765197754,-0.600000262260437,0.4660021960735321
1773049362767266800,0.547266845703125,9.5264253616333,-0.48514479398727417,0.13100704550743103
1773049362777159700,0.55715966796875,9.713663101196289,-0.5856433510780334,0.2602194547653198
1773049362787107600,0.567107666015625,9.78544807434082,-0.753140926361084,0.6245267391204834
1773049362797074400,0.577074462890625,9.747162818908691,-0.6430711150169373,0.5431707501411438
1773049362807030000,0.587030029296875,9.718449592590332,-0.6382854580879211,0.6867401003837585
1773049362816989700,0.59698974609375,9.852447509765625,-0.5473581552505493,0.7345965504646301
1773049362826945500,0.606945556640625,9.68494987487793,-0.5665007829666138,0.1453639715909958
1773049362836904700,0.61690478515625,9.613164901733398,-0.5904290080070496,0.50907301902771
1773049362846861000,0.626861083984375,10.005587577819824,-0.6813562512397766,0.5479564070701599
1773049362856820000,0.636820068359375,9.421140670776367,-0.5521438121795654,0.18364913761615753
1773049362866776600,0.646776611328125,9.613164901733398,-0.5856433510780334,0.4085744619369507
1773049362876735000,0.65673486328125,9.866804122924805,-0.753140926361084,0.8446664214134216
1773049362886691800,0.66669189453125,9.68494987487793,-0.6574280261993408,0.7202396392822266
1773049362896573200,0.6765732421875,9.89551830291748,-0.5952146053314209,0.5288137793540955
1773049362906522400,0.6865224609375,9.6466646194458,-0.50907301902771,0.3032902777194977
1773049362916488400,0.696488525390625,9.602995872497559,-0.5521438121795654,0.15972091257572174
1773049362926439200,0.706439208984375,9.507282257080078,-0.6143572330474854,0.26500511169433594
1773049362936480300,0.716480224609375,9.90987491607666,-0.7920243144035339,0.8015955686569214
1773049362946440400,0.7264404296875,9.890732765197754,-0.6478567123413086,0.8398807644844055
1773049362956620300,0.736620361328125,9.406784057617188,-0.4995017349720001,0.26500511169433594
1773049362966800400,0.74680029296875,9.905089378356934,-0.6047859191894531,0.6149554252624512
1773049362976980500,0.75698046875,9.737591743469238,-0.6382854580879211,0.4995017349720001
1773049362987046000,0.7670458984375,9.732806205749512,-0.6287141442298889,0.15972091257572174
1773049362997003000,0.7770029296875,9.69930648803711,-0.6143572330474854,0.45164528489112854
1773049363006996000,0.786995849609375,9.718449592590332,-0.6622136831283569,0.4660021960735321
1773049363016957200,0.796957275390625,9.737591743469238,-0.6478567123413086,0.4660021960735321
1773049363026947000,0.806947021484375,9.814162254333496,-0.7387840151786804,0.7537391185760498
1773049363036911400,0.816911376953125,10.106086730957031,-0.600000262260437,0.7345965504646301
1773049363046898700,0.826898681640625,9.56471061706543,-0.4995017349720001,0.054436713457107544
1773049363056904200,0.836904296875,9.665806770324707,-0.5282155871391296,0.20757736265659332
1773049363066893600,0.8468935546875,9.838089942932129,-0.7148557901382446,0.5042873620986938
1773049363076819500,0.8568193359375,9.742377281188965,-0.7579265832901001,0.5431707501411438
1773049363086802400,0.866802490234375,9.761520385742188,-0.6526423692703247,0.576670229434967
1773049363096773600,0.876773681640625,9.728020668029785,-0.5808576941490173,0.6197410821914673
1773049363106755300,0.88675537109375,9.866804122924805,-0.5521438121795654,0.3798605799674988
1773049363116727800,0.896727783203125,9.57906723022461,-0.5952146053314209,0.24107688665390015
1773049363126708500,0.90670849609375,9.833304405212402,-0.6095715761184692,0.6149554252624512
1773049363136682000,0.916681884765625,9.766305923461914,-0.600000262260437,0.3032902777194977
1773049363146662000,0.926661865234375,9.34457015991211,-0.5186443328857422,0.01136590726673603
1773049363156542000,0.9365419921875,9.818947792053223,-0.6861419081687927,0.7728816866874695
1773049363166359600,0.946359619140625,9.728020668029785,-0.7052844762802124,0.9690931439399719
1773049363176539600,0.95653955078125,9.728020668029785,-0.5665007829666138,0.5431707501411438
1773049363186573800,0.96657373046875,9.627521514892578,-0.5042873620986938,0.4085744619369507
1773049363196544000,0.9765439453125,9.689735412597656,-0.4325026869773865,0.24586252868175507
1773049363206526700,0.986526611328125,9.632308006286621,-0.5569294691085815,0.1501496136188507
1773049363216498200,0.996498291015625,9.689735412597656,-0.633499801158905,0.6915257573127747
1773049363226479600,1.006479736328125,9.948160171508789,-0.6765705943107605,0.8111668825149536
1773049363236452400,1.016452392578125,9.574281692504883,-0.5952146053314209,0.45164528489112854
1773049363246433000,1.02643310546875,9.718449592590332,-0.5282155871391296,0.34636107087135315
1773049363256406300,1.03640625,9.991230964660645,-0.600000262260437,0.6580262184143066
1773049363266386200,1.04638623046875,9.704092025756836,-0.5808576941490173,0.15972091257572174
1773049363276360400,1.0563603515625,9.66102123260498,-0.5521438121795654,0.25064817070961
1773049363286339800,1.06633984375,9.732806205749512,-0.5712863802909851,0.5910272002220154
1773049363296219600,1.0762197265625,9.881160736083984,-0.7674978375434875,0.5527420043945312
1773049363306037500,1.08603759765625,9.622735977172852,-0.7052844762802124,0.8446664214134216
1773049363316035800,1.096035888671875,9.967302322387695,-0.666999340057373,0.729810893535614
1773049363325995800,1.105995849609375,9.900303840637207,-0.494716078042984,0.5138586759567261
1773049363336175600,1.116175537109375,9.502496719360352,-0.50907301902771,0.04486542567610741
1773049363346209500,1.12620947265625,9.718449592590332,-0.633499801158905,0.39900317788124084
1773049363356176400,1.13617626953125,9.852447509765625,-0.7627122402191162,0.6771687865257263
1773049363366161700,1.14616162109375,9.775876998901367,-0.6382854580879211,0.6101697683334351
1773049363376130600,1.156130615234375,9.535996437072754,-0.6095715761184692,0.672383189201355
1773049363386114000,1.166114013671875,9.780662536621094,-0.6239284873008728,0.4372883439064026
1773049363396084700,1.176084716796875,9.627521514892578,-0.633499801158905,0.4899304509162903
1773049363406067000,1.18606689453125,9.68494987487793,-0.6478567123413086,0.2602194547653198
1773049363416039000,1.196038818359375,9.833304405212402,-0.600000262260437,0.6293123364448547
1773049363426020000,1.20602001953125,9.459425926208496,-0.5904290080070496,0.22193430364131927
1773049363435992800,1.215992919921875,9.627521514892578,-0.6717849373817444,0.5479564070701599
1773049363445973200,1.22597314453125,9.976874351501465,-0.7824530005455017,1.1078768968582153
1773049363455947000,1.235947021484375,9.708877563476562,-0.6095715761184692,0.35114672780036926
1773049363465926700,1.2459267578125,9.675378799438477,-0.48035913705825806,0.4325026869773865
1773049363475901200,1.255901123046875,9.751948356628418,-0.5521438121795654,0.2315055876970291
1773049363485880300,1.26588037109375,9.641879081726074,-0.5617151260375977,0.19800607860088348
1773049363495760400,1.275760498046875,9.704092025756836,-0.7770691514015198,0.5479564070701599
1773049363505578200,1.285578125,9.80937671661377,-0.6909275650978088,0.8063812255859375
1773049363515576300,1.295576416015625,9.77109146118164,-0.6813562512397766,0.6197410821914673
1773049363525536500,1.30553662109375,9.613164901733398,-0.494716078042984,0.2602194547653198
1773049363535716400,1.31571630859375,9.838089942932129,-0.6095715761184692,0.6340979933738708
1773049363545750000,1.32575,9.89551830291748,-0.6478567123413086,0.4133601188659668
1773049363555717400,1.33571728515625,9.598209381103516,-0.50907301902771,0.1788634955883026
1773049363565702400,1.345702392578125,9.704092025756836,-0.5952146053314209,0.4325026869773865
1773049363575671300,1.35567138671875,9.80937671661377,-0.6813562512397766,0.5138586759567261
1773049363585654800,1.36565478515625,9.613164901733398,-0.7483552694320679,0.6005984544754028
1773049363595534800,1.375534912109375,9.766305923461914,-0.600000262260437,0.6340979933738708
1773049363605352000,1.38535205078125,9.881160736083984,-0.6287141442298889,0.32243284583091736
1773049363615531800,1.39553173828125,9.641879081726074,-0.5377869009971619,0.14057832956314087
1773049363625565700,1.405565673828125,9.550353050231934,-0.6143572330474854,0.049651071429252625
1773049363635533600,1.415533447265625,9.914660453796387,-0.7722834944725037,0.729810893535614
1773049363645518000,1.42551806640625,9.89551830291748,-0.6909275650978088,0.6293123364448547
1773049363655487700,1.43548779296875,9.613164901733398,-0.6574280261993408,0.45164528489112854
1773049363665470700,1.445470703125,9.7998046875,-0.5760720372200012,0.5814558863639832
1773049363675442000,1.45544189453125,9.814162254333496,-0.6526423692703247,0.3367897868156433
1773049363685423600,1.465423583984375,9.583852767944336,-0.6239284873008728,0.2841476798057556
1773049363695303700,1.4753037109375,9.804591178894043,-0.6430711150169373,0.4468596279621124
1773049363705121000,1.48512109375,9.694520950317383,-0.5856433510780334,0.4085744619369507
1773049363715301000,1.495301025390625,9.497711181640625,-0.6239284873008728,0.22193430364131927
1773049363725335000,1.5053349609375,9.905089378356934,-0.7339983582496643,1.007378339767456
1773049363735304000,1.515303955078125,9.905089378356934,-0.6239284873008728,0.7345965504646301
1773049363745287700,1.52528759765625,9.641879081726074,-0.4899304509162903,0.2554338276386261
1773049363755258000,1.535258056640625,9.617950439453125,-0.4085744619369507,0.4468596279621124
1773049363765240600,1.545240478515625,9.732806205749512,-0.5760720372200012,0.26979073882102966
1773049363775212300,1.55521240234375,9.425926208496094,-0.5856433510780334,0.5527420043945312
1773049363785193500,1.565193359375,9.627521514892578,-0.6813562512397766,0.7010970115661621
1773049363795166500,1.57516650390625,9.756733894348145,-0.5808576941490173,0.916451096534729
1773049363805147000,1.58514697265625,9.550353050231934,-0.5186443328857422,0.40378883481025696
1773049363815120400,1.595120361328125,9.535996437072754,-0.5282155871391296,0.4085744619369507
1773049363825100300,1.605100341796875,9.948160171508789,-0.6143572330474854,0.7345965504646301
1773049363835074600,1.615074462890625,9.847661972045898,-0.5952146053314209,0.34636107087135315
1773049363845053700,1.6250537109375,9.445069313049316,-0.50907301902771,0.39421752095222473
1773049363855028700,1.63502880859375,9.842875480651855,-0.7004988193511963,0.6340979933738708
1773049363865007600,1.645007568359375,9.881160736083984,-0.7052844762802124,0.9547362327575684
1773049363874983000,1.65498291015625,9.728020668029785,-0.6717849373817444,0.5335994362831116
1773049363884961300,1.664961181640625,9.90987491607666,-0.5521438121795654,0.6293123364448547
1773049363894936800,1.674936767578125,9.833304405212402,-0.5569294691085815,0.22193430364131927
1773049363904915000,1.6849150390625,9.632308006286621,-0.5234299302101135,0.020937198773026466
1773049363914795000,1.694794921875,9.77109146118164,-0.719641387462616,0.4707878530025482
1773049363924613000,1.704613037109375,10.110872268676758,-0.719641387462616,0.672383189201355
1773049363934793200,1.714793212890625,9.689735412597656,-0.5856433510780334,0.494716078042984
1773049363944828000,1.724827880859375,9.670592308044434,-0.5952146053314209,0.31764721870422363
1773049363954708000,1.7347080078125,9.900303840637207,-0.5904290080070496,0.605384111404419
1773049363964525000,1.744525146484375,9.6466646194458,-0.6574280261993408,0.08315058797597885
1773049363974705200,1.754705078125,9.704092025756836,-0.5569294691085815,0.3367897868156433
1773049363984739000,1.764739013671875,9.670592308044434,-0.6382854580879211,0.4133601188659668
1773049363994619000,1.774618896484375,9.44028377532959,-0.5712863802909851,0.14057832956314087
1773049364004435500,1.784435546875,9.68494987487793,-0.7387840151786804,0.7968099117279053
1773049364014428400,1.794428466796875,9.905089378356934,-0.6909275650978088,0.7824530005455017
1773049364024392700,1.804392822265625,9.632308006286621,-0.5377869009971619,0.23629122972488403
1773049364034572500,1.814572509765625,9.593423843383789,-0.494716078042984,0.19800607860088348
1773049364044605700,1.824605712890625,9.680164337158203,-0.5712863802909851,0.2027917206287384
1773049364054485800,1.83448583984375,9.675378799438477,-0.7387840151786804,0.39900317788124084
1773049364064301300,1.84430126953125,9.613164901733398,-0.6717849373817444,0.6293123364448547
1773049364074481200,1.854481201171875,9.78544807434082,-0.7244270443916321,0.7728816866874695
1773049364084514000,1.86451416015625,9.627521514892578,-0.5377869009971619,0.4612165689468384
1773049364094477600,1.8744775390625,9.622735977172852,-0.5808576941490173,0.4133601188659668
1773049364114345700,1.894345703125,9.866804122924805,-0.6239284873008728,0.45643091201782227
1773049364124161500,1.90416162109375,9.670592308044434,-0.5808576941490173,0.26500511169433594
1773049364134153000,1.914153076171875,9.559925079345703,-0.6191428303718567,0.48514479398727417
1773049364144118500,1.924118408203125,10.072587013244629,-0.7920243144035339,1.0408778190612793
1773049364154298400,1.93429833984375,9.723235130310059,-0.6287141442298889,0.6197410821914673
1773049364164331300,1.944331298828125,9.795019149780273,-0.5665007829666138,0.4612165689468384
1773049364174294000,1.9542939453125,9.881160736083984,-0.5186443328857422,0.5479564070701599
1773049364184282600,1.96428271484375,9.545567512512207,-0.5473581552505493,0.03529413416981697
1773049364194162400,1.974162353515625,9.641879081726074,-0.6239284873008728,0.6005984544754028
1773049364203978500,1.983978515625,9.952945709228516,-0.7339983582496643,0.9260223507881165
1773049364213969200,1.99396923828125,9.7998046875,-0.6095715761184692,0.6245267391204834
1773049364223935200,2.003935302734375,9.45464038848877,-0.4612165689468384,0.4707878530025482
1773049364233923300,2.01392333984375,9.93380355834961,-0.5712863802909851,0.6628118753433228
1773049364243891500,2.023891357421875,9.833304405212402,-0.6957131624221802,0.4707878530025482
1773049364253877200,2.033877197265625,9.512067794799805,-0.5856433510780334,0.11665010452270508
1773049364263847200,2.04384716796875,9.66102123260498,-0.5521438121795654,0.6101697683334351
1773049364274027300,2.05402734375,9.77109146118164,-0.5617151260375977,0.3080759048461914
1773049364284059100,2.06405908203125,9.602995872497559,-0.6813562512397766,0.6963114142417908
1773049364293939200,2.073939208984375,9.718449592590332,-0.7579265832901001,0.7872386574745178
1773049364303753700,2.083753662109375,9.814162254333496,-0.5760720372200012,0.4899304509162903
1773049364313739500,2.093739501953125,9.680164337158203,-0.3846462368965149,0.23629122972488403
1773049364323709700,2.103709716796875,9.588638305664062,-0.45643091201782227,-0.0364905446767807
1773049364333693400,2.113693359375,9.838089942932129,-0.7483552694320679,0.7968099117279053
1773049364343665000,2.123664794921875,9.694520950317383,-0.6287141442298889,0.3607180118560791
1773049364353647600,2.133647705078125,9.68494987487793,-0.45643091201782227,0.5527420043945312
1773049364363620000,2.1436201171875,10.063015937805176,-0.32721850275993347,0.7393822073936462
1773049364373800200,2.15380029296875,9.602995872497559,-0.3032902777194977,0.18843477964401245
1773049364383831800,2.163831787109375,9.708877563476562,-0.6430711150169373,0.6149554252624512
1773049364393789000,2.173788818359375,9.842875480651855,-0.5712863802909851,0.32243284583091736
1773049364403782000,2.183781982421875,9.55513858795166,-0.389431893825531,0.16450655460357666
1773049364413743000,2.1937431640625,9.718449592590332,-0.1788634955883026,0.12622138857841492
1773049364423733000,2.20373291015625,10.01037311553955,-0.4660021960735321,0.9116654396057129
1773049364433697300,2.213697265625,9.838089942932129,-0.6813562512397766,0.8877372145652771
1773049364443684600,2.2236845703125,9.282357215881348,-0.4085744619369507,0.2267199456691742
1773049364453564400,2.233564453125,10.024730682373047,-0.2841476798057556,0.5479564070701599
1773049364463380700,2.243380615234375,9.952945709228516,-0.054436713457107544,0.24586252868175507
1773049364473560800,2.253560791015625,9.445069313049316,-0.3798605799674988,0.3320041298866272
1773049364483594200,2.26359423828125,9.502496719360352,-0.6382854580879211,0.5670989751815796
1773049364493474000,2.27347412109375,9.828518867492676,-0.5569294691085815,0.5042873620986938
1773049364503290000,2.2832900390625,9.842875480651855,-0.18843477964401245,0.48514479398727417
1773049364513280800,2.29328076171875,9.68494987487793,0.0029910283628851175,0.42771705985069275
1773049364523246800,2.303246826171875,10.029516220092773,-0.494716078042984,1.0839486122131348
1773049364533234700,2.313234619140625,9.234500885009766,-0.5808576941490173,0.35114672780036926
1773049364543202800,2.323202880859375,9.502496719360352,-0.4372883439064026,0.030508488416671753
1773049364553383000,2.3333828125,10.029516220092773,-0.22193430364131927,0.5814558863639832
1773049364563415300,2.343415283203125,9.842875480651855,0.01734796352684498,0.020937198773026466
1773049364573375700,2.353375732421875,9.66102123260498,-0.2602194547653198,1.160519003868103
1773049364583366100,2.3633662109375,9.847661972045898,-0.4420739710330963,1.0791629552841187
1773049364593330000,2.373329833984375,9.756733894348145,-0.3846462368965149,0.19800607860088348
1773049364603317800,2.38331787109375,9.876375198364258,-0.10707881301641464,0.4707878530025482
1773049364613284000,2.3932841796875,9.952945709228516,0.022133609279990196,0.08793623000383377
1773049364623269600,2.40326953125,9.929018020629883,-0.34636107087135315,0.6963114142417908
1773049364633149700,2.413149658203125,9.464211463928223,-0.4420739710330963,0.389431893825531
1773049364642966300,2.42296630859375,9.728020668029785,-0.45643091201782227,0.5910272002220154
1773049364653146400,2.433146484375,10.14437198638916,-0.08793623000383377,0.7920243144035339
1773049364663179800,2.4431796875,9.804591178894043,0.4342973232269287,0.3320041298866272
1773049364673185300,2.453185302734375,9.967302322387695,0.14656038582324982,1.007378339767456
1773049364683174700,2.463174560546875,9.387641906738281,-0.21714866161346436,0.6819544434547424
1773049364693054700,2.4730546875,9.488140106201172,-0.5856433510780334,0.01136590726673603
1773049364702934800,2.482934814453125,9.996016502380371,-0.4325026869773865,0.19800607860088348
1773049364712821800,2.49282177734375,9.943374633789062,0.2955136001110077,-0.01734796352684498
1773049364722785300,2.502785400390625,10.326226234436035,0.24227328598499298,0.7920243144035339
1773049364732775700,2.512775634765625,9.890732765197754,-0.16450655460357666,1.160519003868103
1773049364742742000,2.522741943359375,8.899505615234375,-0.3415754437446594,0.849452018737793
1773049364752921900,2.532921875,9.435498237609863,-0.4325026869773865,0.7824530005455017
1773049364762954500,2.54295458984375,10.163514137268066,0.0029910283628851175,0.11665010452270508
1773049364772916700,2.552916748046875,9.512067794799805,0.8697910308837891,-0.2805584669113159
1773049364782905900,2.56290576171875,9.972088813781738,0.5108676552772522,0.4995017349720001
1773049364792786000,2.572785888671875,10.4219388961792,-0.42771705985069275,0.39421752095222473
1773049364802601700,2.582601806640625,8.444271087646484,-0.7292127013206482,0.6963114142417908
1773049364812781600,2.592781494140625,10.149157524108887,-0.8925228714942932,1.179661512374878
1773049364822814700,2.602814697265625,10.570294380187988,0.2231307178735733,0.11186445504426956
1773049364832694800,2.61269482421875,9.071788787841797,1.1521440744400024,0.11665010452270508
1773049364842510600,2.622510498046875,11.379666328430176,0.8697910308837891,0.9834501147270203
1773049364852690700,2.632690673828125,9.320642471313477,-0.22193430364131927,0.4085744619369507
1773049364862723600,2.6427236328125,6.99840784072876,-0.45164528489112854,-0.0029910283628851175
1773049364872687400,2.652687255859375,10.7766752243042,-1.428515076637268,1.3040883541107178
1773049364882675000,2.662675048828125,11.739188194274902,0.18963119387626648,0.05922235921025276
1773049364892641300,2.672641357421875,8.090133666992188,1.0325030088424683,-0.026919255033135414
1773049364902627000,2.682626953125,11.882757186889648,1.3250255584716797,0.6484549641609192
1773049364912507100,2.692507080078125,9.943374633789062,0.12263216078281403,0.6867401003837585
1773049364922323700,2.70232373046875,6.284748554229736,-0.48514479398727417,0.2027917206287384
1773049364932503600,2.712503662109375,11.240882873535156,-0.882951557636261,1.2562319040298462
1773049364942537200,2.722537109375,12.77348518371582,-1.3088740110397339,1.0648061037063599
1773049364952503800,2.73250390625,7.726424217224121,1.200000524520874,-0.07477571070194244
1773049364962489300,2.7424892578125,11.307881355285645,1.516451358795166,0.16929219663143158
1773049364972457700,2.752457763671875,8.947361946105957,1.0037890672683716,0.2841476798057556
1773049364982441700,2.762441650390625,6.299105644226074,0.21355941891670227,0.40378883481025696
1773049364992412000,2.772411865234375,12.926626205444336,-0.5569294691085815,0.5479564070701599
1773049365002394400,2.782394287109375,12.150753021240234,-0.5042873620986938,1.557727575302124
1773049365012274400,2.7922744140625,6.926623344421387,0.7980063557624817,0.0687936544418335
1773049365022091800,2.802091796875,12.988839149475098,1.516451358795166,0.15493527054786682
1773049365032272000,2.81227197265625,7.936992645263672,0.5060819983482361,0.3415754437446594
1773049365042305800,2.822305908203125,5.700900077819824,-0.1740778535604477,1.0121639966964722
1773049365052274200,2.832274169921875,12.792628288269043,-0.37507495284080505,1.7736797332763672
1773049365062258200,2.842258056640625,12.67717456817627,-0.16450655460357666,0.2267199456691742
1773049365072228400,2.852228271484375,6.251249313354492,0.49172505736351013,0.09272187948226929
1773049365082210800,2.8622109375,13.448261260986328,1.5355939865112305,0.3655036687850952
1773049365092182500,2.8721826171875,8.598010063171387,0.5730810165405273,0.5718846321105957
1773049365102164000,2.8821640625,4.015156269073486,-0.2027917206287384,0.3798605799674988
1773049365112136700,2.89213671875,14.085350036621094,-0.29371899366378784,0.849452018737793
1773049365122117000,2.9021171875,12.763914108276367,-0.2793620526790619,0.6436693072319031
1773049365131997200,2.9119970703125,6.6490559577941895,0.5587241053581238,0.15972091257572174
1773049365141814800,2.921814697265625,13.913066864013672,1.6456637382507324,0.8350951075553894
1773049365151995000,2.931994873046875,9.038289070129395,0.43908295035362244,0.973878800868988
1773049365162029300,2.942029296875,3.1148569583892822,-0.3607180118560791,0.9690931439399719
1773049365171998700,2.951998779296875,12.681960105895996,-0.31764721870422363,1.8454644680023193
1773049365181981700,2.961981689453125,13.16112232208252,-0.5760720372200012,-0.3523431420326233
1773049365191861800,2.97186181640625,6.385247230529785,-0.26979073882102966,0.6915257573127747
1773049365201678800,2.981678955078125,13.793426513671875,1.5738791227340698,1.155733346939087
1773049365211674000,2.991674072265625,9.814162254333496,0.9176474809646606,-0.09870393574237823
1773049365221636600,3.00163671875,3.6083765029907227,-0.11186445504426956,2.252244234085083
1773049365231628000,3.0116279296875,12.332608222961426,0.05563312768936157,1.8502501249313354
1773049365241593300,3.02159326171875,12.974482536315918,0.012562318705022335,0.6915257573127747
1773049365251773400,3.0317734375,6.821339130401611,0.10827522724866867,-0.5730810165405273
1773049365261806000,3.04180615234375,13.165908813476562,1.1425727605819702,3.813561201095581
1773049365271769000,3.05176904296875,10.781460762023926,0.9080761671066284,1.6348960399627686
1773049365281757400,3.06175732421875,1.9417755603790283,0.8793623447418213,-0.4145565330982208
1773049365291723300,3.07172314453125,9.651450157165527,-0.1788634955883026,4.129413604736328
1773049365301709300,3.081709228515625,14.44905948638916,-0.4995017349720001,0.8781659007072449
1773049365311677400,3.091677490234375,7.132406234741211,0.6975077986717224,-0.7357929348945618
1773049365321661700,3.10166162109375,10.905887603759766,1.9423737525939941,3.1334011554718018
1773049365331631600,3.111631591796875,13.663615226745605,1.602592945098877,0.638883650302887
1773049365341614300,3.1216142578125,3.981656789779663,0.10348957777023315,2.228316068649292
1773049365351585500,3.13158544921875,8.185846328735352,-0.31764721870422363,3.3535408973693848
1773049365361567200,3.141567138671875,12.845270156860352,-0.6239284873008728,1.0552347898483276
1773049365371578600,3.15157861328125,9.09093189239502,0.9702895879745483,0.5718846321105957
1773049365381563400,3.1615634765625,8.918647766113281,1.8849459886550903,3.0185458660125732
1773049365391494000,3.171493896484375,13.180265426635742,1.5020943880081177,0.5814558863639832
1773049365401473000,3.18147314453125,6.212964057922363,0.20877377688884735,1.490728497505188
1773049365411448000,3.191447998046875,7.7455668449401855,-0.3080759048461914,3.5497524738311768
1773049365421426700,3.2014267578125,12.059825897216797,-0.6957131624221802,1.423729419708252
1773049365431402000,3.211402099609375,9.890732765197754,0.8506484627723694,0.11665010452270508
1773049365441380400,3.22138037109375,8.880363464355469,1.6983058452606201,2.726621389389038
1773049365451356200,3.231356201171875,12.52881908416748,1.5930216312408447,1.4333007335662842
1773049365461334300,3.241334228515625,8.511270523071289,0.39601215720176697,0.9595218896865845
1773049365471310000,3.25131005859375,6.390032768249512,0.1944168359041214,3.583251953125
1773049365481288200,3.2612880859375,10.838888168334961,-0.5569294691085815,2.084746837615967
1773049365491168300,3.271168212890625,10.747961044311523,0.39601215720176697,0.13100704550743103
1773049365501028900,3.28102880859375,8.343772888183594,1.516451358795166,2.108675003051758
1773049365511218200,3.29121826171875,11.484950065612793,1.4398809671401978,1.6971094608306885
1773049365521200000,3.3012001953125,10.73838996887207,0.3577269911766052,0.4468596279621124
1773049365531172400,3.31117236328125,6.783053874969482,0.49172505736351013,3.6460635662078857
1773049365541153300,3.3211533203125,9.268000602722168,-0.04007977992296219,2.5154547691345215
1773049365551126500,3.33112646484375,11.753544807434082,-0.13100704550743103,0.6628118753433228
1773049365561106400,3.3411064453125,8.665008544921875,1.2574282884597778,1.6157535314559937
1773049365571080400,3.35108056640625,10.029516220092773,1.6600207090377808,2.142174482345581
1773049365581060000,3.36106005859375,11.743973731994629,0.33858439326286316,0.4995017349720001
1773049365591034600,3.37103466796875,6.706483840942383,0.4630111753940582,2.6452653408050537
1773049365601013800,3.381013671875,8.080561637878418,0.4295116662979126,2.946761131286621
1773049365610988800,3.39098876953125,12.768699645996094,-0.4612165689468384,1.1030912399291992
1773049365620967200,3.40096728515625,9.33021354675293,1.0755738019943237,0.8733802437782288
1773049365630847200,3.41084716796875,8.92821979522705,1.76051926612854,2.314457654953003
1773049365640707800,3.420707763671875,12.979268074035645,0.8219345808029175,1.2610175609588623
1773049365650896600,3.430896728515625,7.098906517028809,0.05563312768936157,2.3048863410949707
1773049365660879000,3.440879150390625,6.5389862060546875,0.5060819983482361,2.750549554824829
1773049365670850800,3.450850830078125,13.266407012939453,-0.5904290080070496,1.9938194751739502
1773049365680832000,3.46083203125,10.149157524108887,0.8697910308837891,0.5138586759567261
1773049365690805000,3.470804931640625,7.8077802658081055,1.4733805656433105,1.5385849475860596
1773049365700785400,3.480785400390625,13.49611759185791,1.6169499158859253,1.9316060543060303
1773049365710759000,3.490759033203125,7.223333358764648,0.10348957777023315,2.1278176307678223
1773049365720738800,3.50073876953125,6.098108291625977,0.2231307178735733,2.3958137035369873
1773049365730713000,3.510713134765625,13.908281326293945,-0.6287141442298889,2.5250260829925537
1773049365740692200,3.520692138671875,9.905089378356934,0.7501499056816101,0.6675975322723389
1773049365750667300,3.530667236328125,7.376473903656006,1.4829518795013428,1.9986051321029663
1773049365760646000,3.54064599609375,13.596616744995117,1.6552350521087646,2.132603168487549
1773049365770621200,3.55062109375,6.615556240081787,-0.01615155301988125,1.6205391883850098
1773049365780599600,3.560599609375,6.394818305969238,-0.07836493849754333,2.352742910385132
1773049365790575400,3.570575439453125,14.952150344848633,-0.4995017349720001,2.6500511169433594
1773049365800553500,3.580553466796875,8.722436904907227,0.6640082597732544,0.0687936544418335
1773049365810529500,3.590529541015625,6.783053874969482,1.3680963516235352,2.079961061477661
1773049365820507400,3.60050732421875,15.27757453918457,2.066800594329834,2.8558337688446045
1773049365830483500,3.6104833984375,5.202594757080078,0.24227328598499298,1.069591760635376
1773049365840461300,3.62046142578125,6.725626468658447,-0.19800607860088348,2.6739792823791504
1773049365850437600,3.630437744140625,15.464214324951172,-0.04007977992296219,2.693121910095215
1773049365860415200,3.640415283203125,7.180262565612793,0.6065805554389954,-0.012562318705022335
1773049365870391800,3.650391845703125,9.919445991516113,1.4111671447753906,1.2083754539489746
1773049365880369200,3.660369140625,13.137194633483887,1.6552350521087646,3.0281169414520264
1773049365890345700,3.670345703125,4.4751763343811035,0.39122650027275085,1.7641085386276245
1773049365900323000,3.680322998046875,9.368498802185059,-0.26500511169433594,2.8175487518310547
1773049365910300000,3.6902998046875,14.214563369750977,-0.14057832956314087,1.5194423198699951
1773049365920277200,3.70027734375,5.74397087097168,0.8602197170257568,0.8542376756668091
1773049365930253800,3.71025390625,11.791830062866211,2.076371908187866,2.803191661834717
1773049365940231200,3.720231201171875,11.260025024414062,0.47258245944976807,1.1365907192230225
1773049365950208000,3.7302080078125,2.9760732650756836,0.2667997181415558,1.7880367040634155
1773049365960185000,3.74018505859375,14.3389892578125,0.2470589429140091,3.0424740314483643
1773049365970162000,3.750161865234375,13.113265991210938,0.4007977843284607,0.8877372145652771
1773049365980139300,3.76013916015625,3.9625144004821777,0.9224331378936768,0.6771687865257263
1773049365990116000,3.7701162109375,11.83011531829834,1.6600207090377808,3.449253797531128
1773049366000093200,3.78009326171875,10.853245735168457,-0.11665010452270508,1.831107497215271
1773049366010070300,3.7900703125,5.403591632843018,0.46779683232307434,1.490728497505188
1773049366020047400,3.80004736328125,13.491332054138184,0.6640082597732544,2.5154547691345215
1773049366030024200,3.810024169921875,10.197013854980469,0.7022934556007385,1.3902299404144287
1773049366040001300,3.820001220703125,5.973681926727295,1.0660024881362915,0.8877372145652771
1773049366049978400,3.829978271484375,13.012767791748047,0.5682953596115112,2.6500511169433594
1773049366059955500,3.83995556640625,8.252845764160156,0.5300102233886719,1.1365907192230225
1773049366069932300,3.849932373046875,8.866005897521973,0.9702895879745483,2.582453727722168
1773049366079909400,3.859909423828125,12.950553894042969,0.6640082597732544,2.693121910095215
1773049366089886500,3.869886474609375,6.246463298797607,0.8602197170257568,0.4995017349720001
1773049366099863300,3.87986328125,10.441082000732422,0.2955136001110077,1.9268203973770142
1773049366109840400,3.88984033203125,11.451451301574707,0.46779683232307434,1.4093725681304932
1773049366119817500,3.8998173828125,7.836493968963623,1.3489537239074707,1.3710874319076538
1773049366129794600,3.909794677734375,11.293524742126465,1.3441680669784546,2.568096876144409
1773049366139771600,3.919771728515625,7.592426300048828,0.836291491985321,1.8789639472961426
1773049366149748500,3.92974853515625,9.828518867492676,0.09870393574237823,1.6636099815368652
1773049366159725600,3.9397255859375,11.135598182678223,0.6065805554389954,2.0751755237579346
1773049366169702700,3.94970263671875,7.6737823486328125,1.4877375364303589,1.6923238039016724
1773049366179679700,3.9596796875,11.422737121582031,1.1473584175109863,1.2562319040298462
1773049366189656600,3.969656494140625,8.947361946105957,0.39122650027275085,1.811964988708496
1773049366199633700,3.979633544921875,8.449056625366211,0.31465616822242737,2.3192434310913086
1773049366209610800,3.98961083984375,11.341381072998047,1.1425727605819702,1.984248161315918
1773049366219587800,3.999587890625,8.889934539794922,1.4685949087142944,1.6875381469726562
1773049366239541800,4.019541748046875,9.014361381530762,0.04127619042992592,2.448455810546875
1773049366249518800,4.029518798828125,8.612366676330566,0.7692924737930298,1.2562319040298462
1773049366259496000,4.039495849609375,11.293524742126465,1.176072359085083,2.190030813217163
1773049366269473000,4.04947314453125,9.358927726745605,1.1282159090042114,1.7832510471343994
1773049366279449900,4.059449951171875,9.071788787841797,0.5443671345710754,1.922034740447998
1773049366289427000,4.069427001953125,9.866804122924805,0.1704886108636856,2.1278176307678223
1773049366299404000,4.079404052734375,9.20578670501709,0.9942178130149841,2.300100803375244
1773049366309380900,4.089380859375,10.73838996887207,1.2382856607437134,2.1852452754974365
1773049366319358000,4.09935791015625,9.282357215881348,0.5970092415809631,1.1174482107162476
1773049366329335000,4.1093349609375,9.000003814697266,0.2667997181415558,1.6396816968917847
1773049366339312000,4.11931201171875,10.130014419555664,0.6544370055198669,2.4388844966888428
1773049366349289200,4.129289306640625,9.627521514892578,1.4685949087142944,2.2091734409332275
1773049366359266000,4.13926611328125,10.398011207580566,0.7501499056816101,2.0368902683258057
1773049366369243100,4.1492431640625,9.019146919250488,0.5443671345710754,1.1653046607971191
1773049366379220200,4.15922021484375,9.186644554138184,0.43908295035362244,2.486740827560425
1773049366389197000,4.169197021484375,11.32223892211914,1.0995019674301147,1.466800332069397
1773049366399174100,4.179174072265625,8.837292671203613,1.2765709161758423,1.5146567821502686
1773049366409151200,4.189151123046875,9.632308006286621,0.486939400434494,1.9507486820220947
1773049366419128300,4.19912841796875,9.411569595336914,-0.01615155301988125,1.9938194751739502
1773049366429105200,4.209105224609375,10.149157524108887,1.0947163105010986,1.7736797332763672
1773049366439082200,4.219082275390625,9.775876998901367,1.5643078088760376,2.108675003051758
1773049366449059300,4.229059326171875,10.29751205444336,0.6017948985099792,1.2370892763137817
1773049366459036400,4.239036376953125,8.808578491210938,0.30987054109573364,1.8789639472961426
1773049366469013200,4.24901318359375,9.20578670501709,0.9176474809646606,1.7976080179214478
1773049366478990300,4.258990234375,10.714461326599121,1.2287144660949707,2.079961061477661
1773049366488967400,4.268967529296875,9.296713829040527,0.3577269911766052,1.9938194751739502
1773049366498944500,4.278944580078125,9.34457015991211,0.4630111753940582,0.6149554252624512
1773049366508921300,4.28892138671875,9.962516784667969,0.8793623447418213,2.242672920227051
1773049366518898400,4.2988984375,10.235299110412598,1.0707881450653076,2.300100803375244
1773049366528875500,4.30887548828125,9.210572242736816,0.8697910308837891,1.4572290182113647
1773049366538852600,4.3188525390625,8.641080856323242,0.5204389095306396,1.2275179624557495
1773049366548829400,4.328829345703125,11.169097900390625,0.4821537733078003,2.6261229515075684
1773049366558806500,4.338806640625,9.862018585205078,0.9702895879745483,1.6636099815368652
1773049366568783600,4.34878369140625,8.47298526763916,1.1521440744400024,1.031306505203247
1773049366578760400,4.358760498046875,10.38365364074707,0.3290131092071533,1.5822539329528809
1773049366588737500,4.368737548828125,9.952945709228516,0.7262216806411743,2.4149563312530518
1773049366598714600,4.378714599609375,9.583852767944336,0.9990034699440002,2.1852452754974365
1773049366608691700,4.388691650390625,9.401998519897461,0.8697910308837891,1.1461620330810547
1773049366618668500,4.39866845703125,10.278369903564453,0.4103690981864929,1.9794625043869019
1773049366628645600,4.408645751953125,10.04865837097168,0.745364248752594,1.7018951177597046
1773049366638622700,4.418622802734375,9.253643035888672,1.022931694984436,1.5290136337280273
1773049366648599800,4.428599853515625,9.157930374145508,0.5060819983482361,2.669193744659424
1773049366658576600,4.43857666015625,10.819746017456055,0.41994038224220276,0.9355936646461487
1773049366668553700,4.4485537109375,9.445069313049316,0.8410771489143372,2.213959217071533
1773049366678530800,4.45853076171875,9.31585693359375,0.9128618240356445,1.9555343389511108
1773049366688508000,4.4685078125,9.583852767944336,0.7884350419044495,1.3519448041915894
1773049366698484700,4.478484619140625,10.187442779541016,0.2955136001110077,1.9268203973770142
1773049366708461800,4.4884619140625,10.000802040100098,0.5826523303985596,2.1852452754974365
1773049366718439000,4.49843896484375,8.252845764160156,0.41515472531318665,2.1613171100616455
1773049366728416000,4.508416015625,10.211370468139648,0.36729827523231506,1.3471591472625732
1773049366738392800,4.518392822265625,10.398011207580566,0.3768695592880249,1.6444673538208008
1773049366748370000,4.528369873046875,9.363713264465332,0.50129634141922,2.190030813217163
1773049366758347000,4.538346923828125,8.482556343078613,0.6400800347328186,1.677966833114624
1773049366768323800,4.54832373046875,9.814162254333496,0.1657029688358307,2.3575284481048584
1773049366778301000,4.558301025390625,11.10209846496582,0.3290131092071533,1.8454644680023193
1773049366788278000,4.568278076171875,8.032705307006836,0.2667997181415558,1.740180253982544
1773049366798255000,4.578255126953125,9.157930374145508,0.4055834412574768,1.8837496042251587
1773049366808232000,4.58823193359375,10.465009689331055,0.08434699475765228,1.8167506456375122
1773049366818170000,4.598170166015625,10.216156005859375,0.11306086927652359,2.0751755237579346
1773049366828143400,4.608143310546875,7.869993686676025,0.3720839321613312,2.2331018447875977
1773049366838163000,4.618162841796875,9.900303840637207,0.0029910283628851175,1.5146567821502686
1773049366848140800,4.628140869140625,11.403594970703125,0.16091732680797577,1.9076778888702393
1773049366858078200,4.638078125,8.315058708190918,0.18484555184841156,1.8023936748504639
1773049366868052000,4.648052001953125,8.976076126098633,0.2907279431819916,1.7928223609924316
1773049366878032100,4.6580322265625,10.345368385314941,-0.01615155301988125,2.582453727722168
1773049366888006700,4.668006591796875,10.431509971618652,0.13698910176753998,1.3663017749786377
1773049366897986300,4.677986328125,7.82692289352417,0.47258245944976807,1.1892328262329102
1773049366907961000,4.687961181640625,10.268798828125,0.12741780281066895,2.472383975982666
1773049366917940200,4.697940185546875,10.7766752243042,0.30987054109573364,1.25144624710083
1773049366927915500,4.70791552734375,8.401200294494629,0.18005990982055664,1.9459630250930786
1773049366937894100,4.71789404296875,9.818947792053223,0.28594231605529785,2.6117658615112305
1773049366947870000,4.727869873046875,9.742377281188965,0.13220344483852386,0.9308080077171326
1773049366957887200,4.73788720703125,9.914660453796387,0.41994038224220276,2.1852452754974365
1773049366967867100,4.7478671875,8.583653450012207,0.10348957777023315,1.898106575012207
1773049366977802500,4.757802490234375,10.149157524108887,0.251844584941864,1.6396816968917847
1773049366987777800,4.76777783203125,9.583852767944336,0.23748764395713806,2.362314224243164
1773049366997717500,4.777717529296875,8.947361946105957,0.3242274820804596,1.654038667678833
1773049367007689500,4.787689453125,10.302297592163086,0.2907279431819916,1.6875381469726562
1773049367017632800,4.7976328125,9.632308006286621,0.23270200192928314,2.1756739616394043
1773049367027601700,4.8076015625,8.95693302154541,0.18484555184841156,2.142174482345581
1773049367037509000,4.817509033203125,9.718449592590332,0.16091732680797577,1.831107497215271
1773049367047472000,4.82747216796875,10.364511489868164,0.24227328598499298,2.084746837615967
1773049367057463000,4.837463134765625,9.55513858795166,0.22791635990142822,1.3710874319076538
1773049367067428600,4.8474287109375,9.09093189239502,0.1657029688358307,2.314457654953003
1773049367077378300,4.85737841796875,10.455438613891602,0.12741780281066895,1.5098711252212524
1773049367087342300,4.86734228515625,9.732806205749512,0.3194418251514435,2.2235305309295654
1773049367097293300,4.877293212890625,9.224929809570312,0.20398813486099243,1.399801254272461
1773049367107256000,4.887256103515625,9.876375198364258,0.13698910176753998,1.6013965606689453
1773049367117208600,4.89720849609375,10.01037311553955,0.2955136001110077,2.0416758060455322
1773049367127170300,4.90717041015625,9.153144836425781,0.10348957777023315,2.237887382507324
1773049367137162500,4.91716259765625,10.14437198638916,0.046061836183071136,1.9555343389511108
1773049367147127300,4.927127197265625,9.780662536621094,0.11306086927652359,1.1030912399291992
1773049367157000200,4.937000244140625,9.363713264465332,0.16091732680797577,2.702693223953247
1773049367166956000,4.9469560546875,9.617950439453125,-0.1453639715909958,2.1756739616394043
1773049367176915500,4.95691552734375,10.340582847595215,-0.01136590726673603,0.8542376756668091
1773049367186871300,4.966871337890625,8.81814956665039,-0.04486542567610741,2.8797619342803955
1773049367196830500,4.97683056640625,9.512067794799805,0.01734796352684498,1.7066807746887207
1773049367206786800,4.986786865234375,10.398011207580566,-0.22193430364131927,1.0169496536254883
1773049367216745700,4.996745849609375,9.435498237609863,-0.0975075215101242,2.5776681900024414
1773049367226702300,5.006702392578125,8.976076126098633,0.03170489892363548,1.9938194751739502
1773049367236660700,5.01666064453125,10.599007606506348,-0.35114672780036926,1.4333007335662842
1773049367246617600,5.02661767578125,9.593423843383789,0.0364905446767807,1.6971094608306885
1773049367256537300,5.036537353515625,8.47298526763916,-0.06400800496339798,1.9507486820220947
1773049367266490400,5.046490478515625,10.642078399658203,-0.3415754437446594,1.9986051321029663
1773049367276452400,5.056452392578125,9.33021354675293,-0.10229317098855972,1.7114664316177368
1773049367286406400,5.066406494140625,8.645866394042969,-0.08793623000383377,1.5290136337280273
1773049367296586200,5.076586181640625,10.445867538452148,0.06520441919565201,2.2235305309295654
1773049367306766300,5.086766357421875,9.991230964660645,-0.2745763957500458,2.0751755237579346
1773049367316946400,5.096946533203125,9.181859016418457,-0.09272187948226929,1.3854442834854126
1773049367327053300,5.10705322265625,8.741579055786133,0.13698910176753998,2.2474586963653564
1773049367337013200,5.11701318359375,11.384451866149902,-0.21714866161346436,2.362314224243164
1773049367347004000,5.12700390625,9.114859580993652,-0.001794616924598813,0.9882357716560364
1773049367356967200,5.13696728515625,8.425128936767578,0.050847481936216354,2.4580271244049072
1773049367376921300,5.15692138671875,9.1052885055542,0.05563312768936157,1.3280165195465088
1773049367386907100,5.1669072265625,9.306285858154297,0.15134602785110474,1.922034740447998
1773049367396875300,5.176875244140625,10.316655158996582,0.11306086927652359,2.1373889446258545
1773049367406859500,5.186859619140625,9.349356651306152,0.12263216078281403,1.9172492027282715
1773049367416829400,5.196829345703125,9.675378799438477,0.022133609279990196,2.0368902683258057
1773049367426812200,5.206812255859375,10.029516220092773,0.23270200192928314,1.3423734903335571
1773049367436783400,5.216783447265625,9.373284339904785,0.09870393574237823,2.008176326751709
1773049367446765000,5.22676513671875,10.15872859954834,0.06999006122350693,1.9028922319412231
1773049367456737500,5.236737548828125,9.847661972045898,0.0029910283628851175,1.9316060543060303
1773049367466718200,5.24671826171875,9.19143009185791,0.4486542344093323,1.1892328262329102
1773049367476691500,5.25669140625,9.497711181640625,0.06041877344250679,2.0129621028900146
1773049367486671400,5.26667138671875,10.719246864318848,0.046061836183071136,1.6923238039016724
1773049367496645600,5.276645751953125,7.865208148956299,0.3768695592880249,1.721037745475769
1773049367506624800,5.286624755859375,9.881160736083984,0.41515472531318665,1.8454644680023193
1773049367516504800,5.2965048828125,11.030314445495605,-0.2745763957500458,1.6205391883850098
1773049367526365200,5.306365234375,7.884350776672363,0.13698910176753998,1.6923238039016724
1773049367536553500,5.316553466796875,8.789435386657715,0.38644084334373474,1.8502501249313354
1773049367546536200,5.3265361328125,11.58544921875,0.026919255033135414,2.276172637939453
1773049367556507600,5.336507568359375,8.631509780883789,0.06041877344250679,1.2897313833236694
1773049367566489000,5.346489013671875,8.612366676330566,0.2715853750705719,1.3184453248977661
1773049367576461600,5.356461669921875,10.211370468139648,0.06999006122350693,2.8797619342803955
1773049367586442200,5.366442138671875,9.100502967834473,0.10827522724866867,1.5146567821502686
1773049367596415500,5.37641552734375,9.550353050231934,0.046061836183071136,1.4189438819885254
1773049367606395600,5.386395751953125,10.321440696716309,0.12741780281066895,2.2857437133789062
1773049367616369700,5.39636962890625,9.023932456970215,0.022133609279990196,1.8023936748504639
1773049367626349000,5.40634912109375,10.676176071166992,-0.14057832956314087,1.9411773681640625
1773049367636323600,5.416323486328125,9.421140670776367,0.31465616822242737,1.649253010749817
1773049367646302500,5.426302490234375,8.530412673950195,0.1657029688358307,1.835893154144287
1773049367656277800,5.43627783203125,11.130812644958496,0.09870393574237823,1.7353945970535278
1773049367666256100,5.446256103515625,9.229715347290039,-0.006580262444913387,1.984248161315918
1773049367676231700,5.456231689453125,8.559126853942871,0.23748764395713806,1.9124635457992554
1773049367686209800,5.466209716796875,10.36929702758789,0.03170489892363548,1.7832510471343994
1773049367696089900,5.47608984375,10.086943626403809,0.022133609279990196,1.7736797332763672
1773049367705950500,5.485950439453125,9.215357780456543,0.18005990982055664,1.835893154144287
1773049367715945500,5.495945556640625,9.929018020629883,-0.1453639715909958,2.4053850173950195
1773049367725908000,5.505907958984375,10.292726516723633,0.09391828626394272,1.2945170402526855
1773049367736093400,5.516093505859375,9.134002685546875,0.08434699475765228,1.8167506456375122
1773049367746078500,5.526078369140625,10.29751205444336,0.13698910176753998,2.1756739616394043
1773049367756047600,5.536047607421875,9.114859580993652,0.14656038582324982,1.5337992906570435
1773049367766030800,5.54603076171875,9.617950439453125,0.16091732680797577,2.05603289604187
1773049367776001500,5.55600146484375,9.828518867492676,0.1657029688358307,1.5146567821502686
1773049367785983700,5.565983642578125,9.2919282913208,0.18005990982055664,2.15653133392334
1773049367795863600,5.575863525390625,10.302297592163086,-0.049651071429252625,2.2474586963653564
1773049367805723400,5.585723388671875,9.90987491607666,0.022133609279990196,1.5774682760238647
1773049367815909400,5.595909423828125,8.8707914352417,0.38644084334373474,2.1948165893554688
1773049367825894000,5.605893798828125,11.01595687866211,0.15134602785110474,1.8454644680023193
1773049367835863600,5.615863525390625,9.224929809570312,0.19920247793197632,1.721037745475769
1773049367845846500,5.625846435546875,8.861220359802246,0.13220344483852386,2.1517457962036133
1773049367855726600,5.6357265625,10.599007606506348,0.17527425289154053,1.2418749332427979
1773049367865586200,5.645586181640625,8.645866394042969,-0.01615155301988125,1.428515076637268
1773049367875771400,5.655771484375,8.688937187194824,0.2763710021972656,2.1278176307678223
1773049367885756700,5.665756591796875,10.278369903564453,0.06041877344250679,1.7258232831954956
1773049367895725600,5.6757255859375,9.057432174682617,0.30508488416671753,0.8638089895248413
1773049367905709000,5.685708984375,9.45464038848877,-0.01136590726673603,2.424527645111084
1773049367915679500,5.695679443359375,10.230513572692871,-0.020937198773026466,1.6923238039016724
1773049367925661700,5.70566162109375,8.271987915039062,0.20398813486099243,1.7736797332763672
1773049367935633400,5.71563330078125,11.245668411254883,0.10827522724866867,1.9076778888702393
1773049367945614600,5.725614501953125,9.627521514892578,-0.01136590726673603,1.8550357818603516
1773049367955587600,5.735587646484375,8.171489715576172,0.4295116662979126,1.6348960399627686
1773049367965567700,5.745567626953125,10.402796745300293,-0.05922235921025276,1.7114664316177368
1773049367975541500,5.75554150390625,9.742377281188965,0.26201409101486206,2.2091734409332275
1773049367985521200,5.765521240234375,8.880363464355469,0.3481557071208954,1.1318050622940063
1773049367995401200,5.775401123046875,10.522438049316406,0.10827522724866867,2.5250260829925537
1773049368005261600,5.785261474609375,9.148359298706055,0.1944168359041214,1.8885352611541748
1773049368015449300,5.795449462890625,10.388439178466797,0.2566302418708801,1.831107497215271
1773049368025432300,5.805432373046875,9.93380355834961,0.4773681163787842,2.3814568519592285
1773049368035403500,5.815403564453125,9.162715911865234,0.1657029688358307,1.069591760635376
1773049368045385200,5.82538525390625,10.795817375183105,0.06520441919565201,3.071187973022461
1773049368055265300,5.835265380859375,8.458627700805664,0.20398813486099243,1.3280165195465088
1773049368065125000,5.845125,10.527223587036133,0.2667997181415558,1.0121639966964722
1773049368075311400,5.855311279296875,10.311869621276855,0.23748764395713806,3.0424740314483643
1773049368085295600,5.865295654296875,7.8556365966796875,0.4821537733078003,1.835893154144287
1773049368095265300,5.875265380859375,11.169097900390625,0.4055834412574768,0.9547362327575684
1773049368105248300,5.885248291015625,10.163514137268066,0.022133609279990196,2.242672920227051
1773049368115128300,5.89512841796875,8.425128936767578,0.5060819983482361,2.0129621028900146
1773049368124988000,5.90498779296875,10.40758228302002,0.046061836183071136,1.3232308626174927
1773049368135173400,5.91517333984375,9.583852767944336,0.3433700501918793,2.046461582183838
1773049368145158400,5.925158447265625,9.057432174682617,0.36251261830329895,1.3710874319076538
1773049368155127300,5.935127197265625,10.968100547790527,0.06041877344250679,2.630908489227295
1773049368165110800,5.94511083984375,8.429914474487305,0.5874379873275757,1.591825246810913
1773049368175081500,5.95508154296875,10.608579635620117,0.12741780281066895,1.069591760635376
1773049368185063400,5.9650634765625,9.311071395874023,0.3768695592880249,2.572882652282715
1773049368194943500,5.974943603515625,8.7176513671875,0.0891326442360878,1.831107497215271
1773049368204803300,5.98480322265625,11.949756622314453,0.09870393574237823,1.2897313833236694
1773049368214795300,5.994795166015625,7.280761241912842,0.43908295035362244,2.2187447547912598
1773049368224760000,6.004760009765625,10.512866020202637,0.33379876613616943,1.6205391883850098
1773049368234943200,6.014943115234375,10.182656288146973,0.12741780281066895,1.831107497215271
1773049368244930000,6.024929931640625,7.984848976135254,0.5491527915000916,1.8646070957183838
1773049368254810000,6.03481005859375,10.786246299743652,0.15613168478012085,1.7928223609924316
1773049368264669000,6.0446689453125,8.655437469482422,0.2566302418708801,1.80717933177948
1773049368274851300,6.054851318359375,9.124430656433105,0.1944168359041214,1.9555343389511108
1773049368284839000,6.0648388671875,10.364511489868164,0.2566302418708801,2.4675984382629395
1773049368294718700,6.07471875,8.539983749389648,0.2715853750705719,0.9882357716560364
1773049368304577300,6.084577392578125,10.781460762023926,0.26201409101486206,1.9124635457992554
1773049368314565000,6.094565185546875,8.281558990478516,0.36729827523231506,3.080759048461914
1773049368324533500,6.104533447265625,10.01994514465332,0.251844584941864,0.8207381963729858
1773049368334519000,6.11451904296875,10.36929702758789,-0.15972091257572174,2.7314071655273438
1773049368344489200,6.1244892578125,7.731209754943848,1.109073281288147,1.6301103830337524
1773049368354473000,6.134472900390625,10.608579635620117,0.1417747437953949,2.108675003051758
1773049368364444400,6.1444443359375,9.229715347290039,0.4486542344093323,2.084746837615967
1773049368374427000,6.154427001953125,7.735995769500732,0.8123632669448853,1.031306505203247
1773049368384399400,6.1643994140625,11.178668975830078,-0.13100704550743103,3.5162527561187744
1773049368394380800,6.174380859375,7.731209754943848,0.24227328598499298,1.155733346939087
1773049368404354300,6.184354248046875,10.38365364074707,0.5730810165405273,1.7641085386276245
1773049368414334700,6.194334716796875,10.747961044311523,0.16091732680797577,3.885345697402954
1773049368424309000,6.20430908203125,10.120443344116211,0.2763710021972656,0.4899304509162903
1773049368434288600,6.21428857421875,8.391629219055176,0.5300102233886719,2.108675003051758
1773049368444263400,6.224263427734375,8.918647766113281,0.30987054109573364,1.9411773681640625
1773049368454242800,6.234242919921875,11.494522094726562,0.2907279431819916,1.0887342691421509
1773049368464217900,6.2442177734375,7.299903869628906,0.5443671345710754,3.4444682598114014
1773049368474196700,6.25419677734375,10.603793144226074,-0.0975075215101242,0.45164528489112854
1773049368484172300,6.26417236328125,10.704890251159668,0.33379876613616943,1.495514154434204
1773049368494052000,6.274052001953125,8.626724243164062,0.534795880317688,3.5497524738311768
1773049368503913700,6.283913818359375,12.021540641784668,-0.12622138857841492,0.5138586759567261
1773049368513910800,6.293910888671875,8.650651931762695,0.4342973232269287,1.1030912399291992
1773049368523871500,6.30387158203125,9.775876998901367,0.17527425289154053,3.0664021968841553
1773049368534058200,6.314058349609375,11.216954231262207,0.0364905446767807,1.5098711252212524
1773049368544041700,6.324041748046875,8.569295883178711,0.251844584941864,0.9643075466156006
1773049368554012200,6.33401220703125,10.130014419555664,0.21355941891670227,2.4388844966888428
1773049368563994600,6.34399462890625,9.339784622192383,0.03170489892363548,2.0273189544677734
1773049368573966300,6.35396630859375,10.757532119750977,0.0364905446767807,1.1892328262329102
1773049368583947500,6.363947509765625,8.904291152954102,0.44386860728263855,1.8406788110733032
1773049368593920300,6.373920166015625,9.885947227478027,-0.05922235921025276,1.4141582250595093
1773049368603900700,6.383900634765625,10.848459243774414,-0.03529413416981697,2.572882652282715
1773049368613874400,6.39387451171875,8.305487632751465,0.2715853750705719,1.1318050622940063
1773049368623854000,6.40385400390625,11.130812644958496,0.050847481936216354,0.7058826684951782
1773049368633828400,6.413828369140625,9.239286422729492,0.1657029688358307,2.7984061241149902
1773049368643807500,6.423807373046875,9.57906723022461,0.1704886108636856,0.9068797826766968
1773049368653782500,6.433782470703125,9.421140670776367,0.07477571070194244,0.9308080077171326
1773049368663761200,6.44376123046875,9.363713264465332,0.2231307178735733,2.0129621028900146
1773049368673736400,6.453736328125,9.795019149780273,0.2566302418708801,1.3758729696273804
1773049368683714800,6.46371484375,9.05264663696289,0.3002992272377014,1.6923238039016724
1773049368693690400,6.4736904296875,10.14437198638916,0.21355941891670227,1.4763715267181396
1773049368703668500,6.48366845703125,8.985647201538086,0.2667997181415558,2.314457654953003
1773049368713644500,6.49364453125,10.273584365844727,0.3433700501918793,1.591825246810913
1773049368723622400,6.503622314453125,9.114859580993652,0.18484555184841156,2.0368902683258057
1773049368733598500,6.513598388671875,9.90987491607666,0.3577269911766052,2.352742910385132
1773049368743576000,6.523576171875,9.535996437072754,0.3529413342475891,1.6061822175979614
1773049368753552600,6.533552734375,9.613164901733398,0.7597211599349976,2.0608184337615967
1773049368763530000,6.543530029296875,9.680164337158203,0.4582255482673645,2.3336002826690674
1773049368773506600,6.553506591796875,8.578866958618164,0.4534398913383484,1.8167506456375122
1773049368783484000,6.56348388671875,9.602995872497559,0.2231307178735733,1.8406788110733032
1773049368793460500,6.57346044921875,9.09093189239502,0.5443671345710754,1.835893154144287
1773049368803437800,6.583437744140625,9.962516784667969,1.0660024881362915,2.1708884239196777
1773049368813414700,6.59341455078125,9.172286987304688,0.16091732680797577,3.253042459487915
1773049368823391700,6.603391845703125,10.575079917907715,0.24227328598499298,0.07836493849754333
1773049368833368600,6.61336865234375,7.755138397216797,0.9511470198631287,2.2953150272369385
1773049368843346000,6.623345947265625,10.858031272888184,0.06999006122350693,3.568894863128662
1773049368853322500,6.633322509765625,10.810174942016602,0.16091732680797577,0.01136590726673603
1773049368863299800,6.6432998046875,6.969694137573242,1.0085747241973877,2.1517457962036133
1773049368873276700,6.653276611328125,11.073385238647461,0.24227328598499298,3.1094729900360107
1773049368883253800,6.663253662109375,10.153943061828613,0.3242274820804596,1.5002998113632202
1773049368893230600,6.673230712890625,8.26241683959961,0.7022934556007385,1.3806586265563965
1773049368903207700,6.683207763671875,9.948160171508789,0.4630111753940582,3.008974552154541
1773049368913184800,6.693184814453125,10.484152793884277,0.2470589429140091,2.2953150272369385
1773049368923161900,6.703161865234375,9.382855415344238,0.4486542344093323,1.3232308626174927
1773049368933138700,6.713138671875,9.311071395874023,0.6735795736312866,2.103889226913452
1773049368943115800,6.72311572265625,10.149157524108887,0.3577269911766052,1.7736797332763672
1773049368953092600,6.733092529296875,10.13479995727539,0.33858439326286316,2.0656042098999023
1773049368963069700,6.743069580078125,8.511270523071289,0.49651068449020386,1.2897313833236694
1773049368973046800,6.753046875,9.5264253616333,0.43908295035362244,2.0273189544677734
1773049368983023600,6.763023681640625,11.08774185180664,0.1417747437953949,2.0895323753356934
1773049368993000700,6.773000732421875,7.884350776672363,0.7214360237121582,1.5726827383041382
1773049369002977800,6.782977783203125,10.082158088684082,0.18005990982055664,1.2035897970199585
1773049369012954600,6.79295458984375,9.569496154785156,0.3768695592880249,2.803191661834717
1773049369022931700,6.802931640625,9.718449592590332,0.012562318705022335,1.563111424446106
1773049369032908800,6.81290869140625,9.665806770324707,0.865005373954773,1.2035897970199585
1773049369042886000,6.822885986328125,9.775876998901367,0.4821537733078003,2.7314071655273438
1773049369052862700,6.83286279296875,10.307083129882812,0.1178465187549591,1.0360921621322632
1773049369062839800,6.84283984375,8.367700576782227,0.9176474809646606,2.1708884239196777
1773049369072817000,6.85281689453125,9.818947792053223,0.16091732680797577,2.347957134246826
1773049369082793700,6.862793701171875,10.814960479736328,-0.01615155301988125,1.2275179624557495
1773049369092770800,6.872770751953125,6.730412006378174,0.9607182741165161,2.213959217071533
1773049369102748000,6.882747802734375,10.36929702758789,0.2470589429140091,2.544168710708618
1773049369112725000,6.89272509765625,11.72004508972168,0.11306086927652359,1.567897081375122
1773049369122701800,6.902701904296875,6.7447686195373535,0.711864709854126,1.5822539329528809
1773049369132679000,6.912678955078125,10.441082000732422,0.3529413342475891,2.3336002826690674
1773049369142656000,6.922656005859375,10.536794662475586,0.07956135272979736,1.6636099815368652
1773049369152632800,6.9326328125,8.736793518066406,0.2231307178735733,1.922034740447998
1773049369162610000,6.94260986328125,9.449854850769043,0.6975077986717224,1.3806586265563965
1773049369172587000,6.9525869140625,10.469795227050781,0.18963119387626648,2.314457654953003
1773049369182564000,6.962564208984375,9.670592308044434,0.5539384484291077,1.6636099815368652
1773049369192541000,6.972541015625,8.142775535583496,0.5395814776420593,1.5726827383041382
1773049369202518000,6.98251806640625,10.4219388961792,0.5204389095306396,1.5385849475860596
1773049369212398000,6.992398193359375,9.93380355834961,0.18963119387626648,2.6117658615112305
1773049369222259200,7.00225927734375,8.889934539794922,0.8410771489143372,1.1318050622940063
1773049369232448800,7.01244873046875,9.876375198364258,0.31465616822242737,1.8837496042251587
1773049369242430000,7.022429931640625,9.66102123260498,0.5539384484291077,1.898106575012207
1773049369252403000,7.03240283203125,9.972088813781738,0.2763710021972656,2.328814744949341
1773049369262383400,7.04238330078125,9.938589096069336,0.8123632669448853,0.42771705985069275
1773049369272356900,7.05235693359375,9.397212982177734,0.3577269911766052,2.7361927032470703
1773049369282336800,7.062336669921875,10.498509407043457,0.49172505736351013,1.3040883541107178
1773049369292311000,7.07231103515625,9.464211463928223,0.5108676552772522,1.989033818244934
1773049369302290200,7.082290283203125,9.55513858795166,0.28115665912628174,1.2705888748168945
1773049369312265200,7.09226513671875,10.029516220092773,0.2667997181415558,1.4380863904953003
1773049369322243800,7.102243896484375,9.876375198364258,0.381655216217041,2.276172637939453
1773049369332219100,7.11221923828125,9.80937671661377,0.3481557071208954,1.6923238039016724
1773049369342197500,7.122197509765625,10.14437198638916,-0.11186445504426956,1.6923238039016724
1773049369352173000,7.132173095703125,9.521639823913574,-0.4133601188659668,2.190030813217163
1773049369362151200,7.142151123046875,8.305487632751465,-0.12143574655056,1.5242279767990112
1773049369372127200,7.152127197265625,9.339784622192383,-0.5856433510780334,2.4197418689727783
1773049369382105000,7.16210498046875,9.617950439453125,-0.39421752095222473,2.0368902683258057
1773049369392003800,7.17200390625,8.228917121887207,-0.389431893825531,1.6827524900436401
1773049369401973800,7.181973876953125,9.569496154785156,-0.5042873620986938,2.812762975692749
1773049369412035300,7.192035400390625,8.918647766113281,-0.5665007829666138,2.3958137035369873
1773049369422014500,7.202014404296875,9.747162818908691,-0.5712863802909851,1.4620146751403809
1773049369431989200,7.2119892578125,9.68494987487793,-0.5473581552505493,2.486740827560425
1773049369441968000,7.221968017578125,8.976076126098633,-0.7872386574745178,1.8885352611541748
1773049369451943400,7.231943359375,9.478569030761719,-0.5617151260375977,1.6827524900436401
1773049369461921800,7.241921875,9.019146919250488,-0.31764721870422363,1.6109678745269775
1773049369471897300,7.2518974609375,9.301499366760254,-0.7722834944725037,2.654836654663086
1773049369481875500,7.26187548828125,9.387641906738281,-0.5521438121795654,2.1948165893554688
1773049369491851500,7.2718515625,8.588438987731934,-0.6143572330474854,1.2849457263946533
1773049369501829400,7.281829345703125,10.426724433898926,-0.8255237936973572,2.812762975692749
1773049369511709400,7.29170947265625,9.502496719360352,-0.5186443328857422,2.740978240966797
1773049369521570600,7.301570556640625,9.613164901733398,-0.5904290080070496,1.3663017749786377
1773049369531759400,7.31175927734375,10.364511489868164,-1.0456634759902954,2.4819552898406982
1773049369541741300,7.3217412109375,9.613164901733398,-0.47557350993156433,1.6971094608306885
1773049369551713500,7.331713623046875,9.401998519897461,-0.42771705985069275,2.1948165893554688
1773049369561694500,7.341694580078125,10.292726516723633,-0.6239284873008728,1.5385849475860596
1773049369571667700,7.351667724609375,9.349356651306152,-0.9882357716560364,1.8598214387893677
1773049369581647600,7.361647705078125,9.411569595336914,-0.5617151260375977,1.466800332069397
1773049369591621600,7.37162158203125,9.689735412597656,-0.2554338276386261,1.6205391883850098
1773049369601601300,7.381601318359375,11.01595687866211,-0.4995017349720001,2.1613171100616455
1773049369611575800,7.391575927734375,9.239286422729492,-0.8542376756668091,1.8693926334381104
1773049369621555000,7.401554931640625,9.224929809570312,-0.542572557926178,1.4572290182113647
1773049369631530000,7.411530029296875,10.527223587036133,-0.5760720372200012,2.779263496398926
1773049369641508600,7.421508544921875,11.025528907775879,-0.48035913705825806,1.8885352611541748
1773049369651484000,7.43148388671875,9.019146919250488,-0.45643091201782227,1.716252088546753
1773049369661462300,7.441462158203125,9.57906723022461,-0.7052844762802124,1.7976080179214478
1773049369671438000,7.45143798828125,9.153144836425781,-0.542572557926178,1.7976080179214478
1773049369681416200,7.461416259765625,9.790233612060547,-0.5186443328857422,1.6636099815368652
1773049369691392000,7.47139208984375,9.167501449584961,-0.5138586759567261,1.8263218402862549
1773049369701369900,7.481369873046875,9.325428009033203,-0.7722834944725037,1.7784653902053833
1773049369711346200,7.49134619140625,10.14437198638916,-0.6957131624221802,1.6205391883850098
1773049369721323800,7.50132373046875,9.363713264465332,-0.20757736265659332,2.472383975982666
1773049369731300400,7.51130029296875,10.082158088684082,-0.34636107087135315,1.9986051321029663
1773049369741277700,7.521277587890625,9.80937671661377,-0.7052844762802124,1.9411773681640625
1773049369751254300,7.531254150390625,8.631509780883789,-0.5856433510780334,2.108675003051758
1773049369761232000,7.54123193359375,9.972088813781738,-0.39421752095222473,1.8646070957183838
1773049369771208400,7.55120849609375,9.732806205749512,-0.5234299302101135,2.4197418689727783
1773049369781185800,7.561185791015625,8.808578491210938,-0.600000262260437,1.6971094608306885
1773049369791162400,7.571162353515625,9.56471061706543,-0.6765705943107605,1.989033818244934
1773049369801139700,7.5811396484375,9.277571678161621,-0.5282155871391296,1.654038667678833
1773049369811019800,7.591019775390625,10.240084648132324,-0.7920243144035339,2.213959217071533
1773049369820881200,7.600881103515625,9.602995872497559,-0.2793620526790619,1.4141582250595093
1773049369831070500,7.611070556640625,9.253643035888672,-0.23629122972488403,2.4053850173950195
1773049369841052000,7.621052001953125,11.21216869354248,-0.8685946464538574,1.9411773681640625
1773049369851024600,7.631024658203125,8.310273170471191,-0.35114672780036926,1.6109678745269775
1773049369861005000,7.641005126953125,8.947361946105957,-0.5712863802909851,2.6213371753692627
1773049369870978600,7.650978515625,11.183454513549805,-0.2602194547653198,1.6444673538208008
1773049369880958500,7.66095849609375,8.626724243164062,-0.7100701332092285,2.1613171100616455
1773049369890894000,7.67089404296875,9.828518867492676,-0.39421752095222473,2.15653133392334
1773049369900869400,7.680869384765625,9.45464038848877,-0.494716078042984,1.4333007335662842
1773049369910887000,7.690886962890625,9.972088813781738,-1.0791629552841187,2.8797619342803955
1773049369920866600,7.700866455078125,10.086943626403809,-0.7579265832901001,1.9124635457992554
1773049369930840800,7.7108408203125,8.434700012207031,-0.2841476798057556,0.40378883481025696
1773049369940820000,7.720820068359375,11.537592887878418,-0.8207381963729858,3.0376882553100586
1773049369950795000,7.730794921875,9.68494987487793,-0.4660021960735321,1.552941918373108
1773049369960773600,7.740773681640625,7.462615489959717,-0.24586252868175507,2.386242389678955
1773049369970749200,7.750749267578125,10.948958396911621,-0.4181457459926605,1.7353945970535278
1773049369980727600,7.7607275390625,9.996016502380371,-0.8015955686569214,1.2418749332427979
1773049369990703000,7.770703125,8.085348129272461,-0.6861419081687927,2.640479803085327
1773049370000681200,7.78068115234375,9.521639823913574,-0.39421752095222473,1.3519448041915894
1773049370010657300,7.7906572265625,11.671590805053711,-0.8111668825149536,2.7457640171051025
1773049370020635100,7.80063525390625,8.775078773498535,-0.666999340057373,1.9268203973770142
1773049370030611500,7.810611572265625,8.37727165222168,-0.5377869009971619,0.9116654396057129
1773049370040589000,7.820589111328125,10.771889686584473,-0.7244270443916321,2.5393829345703125
1773049370050565400,7.8305654296875,10.307083129882812,-0.753140926361084,2.046461582183838
1773049370060543000,7.84054296875,8.396414756774902,-0.21236300468444824,1.673181176185608
1773049370070519600,7.85051953125,8.885149002075195,-0.4707878530025482,1.9316060543060303
1773049370080497000,7.860496826171875,11.288739204406738,-0.7579265832901001,1.4620146751403809
1773049370090473700,7.8704736328125,8.382058143615723,-0.5282155871391296,1.989033818244934
1773049370100451000,7.880451171875,8.679366111755371,-0.5282155871391296,2.434098720550537
1773049370110427600,7.890427734375,11.772686958312988,-0.7244270443916321,1.5290136337280273
1773049370120405000,7.900405029296875,8.338987350463867,-0.47557350993156433,1.428515076637268
1773049370130381800,7.9103818359375,8.554341316223145,-0.5760720372200012,2.15653133392334
1773049370140359200,7.920359130859375,10.225728034973145,-0.6574280261993408,2.18045973777771
1773049370150336000,7.9303359375,9.488140106201172,-0.50907301902771,1.8502501249313354
1773049370160313000,7.94031298828125,8.50169849395752,-0.5521438121795654,2.290529489517212
1773049370170290000,7.9502900390625,9.435498237609863,-0.5712863802909851,1.5774682760238647
1773049370180267300,7.960267333984375,10.603793144226074,-0.6382854580879211,1.222732424736023
1773049370190244000,7.970244140625,8.765507698059082,-0.48514479398727417,3.032902717590332
1773049370200221200,7.98022119140625,9.780662536621094,-0.5856433510780334,1.8406788110733032
1773049370210198300,7.9901982421875,10.484152793884277,-0.7100701332092285,1.2658032178878784
1773049370220175400,8.00017529296875,8.569295883178711,-0.7824530005455017,2.4819552898406982
1773049370230152200,8.010152099609375,10.024730682373047,-0.39900317788124084,1.2897313833236694
1773049370240129300,8.02012939453125,10.436295509338379,-0.6239284873008728,2.678765058517456
1773049370250106400,8.0301064453125,9.296713829040527,-0.5760720372200012,1.5433706045150757
1773049370260083500,8.04008349609375,8.243273735046387,-0.21714866161346436,1.673181176185608
1773049370270060500,8.050060546875,10.40758228302002,-0.7824530005455017,3.056830883026123
1773049370280037600,8.06003759765625,10.24487018585205,-0.42293140292167664,0.7824530005455017
1773049370290014500,8.070014404296876,8.118846893310547,-0.7004988193511963,1.8741782903671265
1773049370299991600,8.079991455078124,10.005587577819824,-0.4899304509162903,2.3096721172332764
1773049370309968600,8.08996875,9.153144836425781,-0.6287141442298889,1.1509476900100708
1773049370319945700,8.09994580078125,10.460224151611328,-0.8255237936973572,2.2809581756591797
1773049370329922800,8.1099228515625,9.06700325012207,-0.45643091201782227,2.1134605407714844
1773049370339899600,8.119899658203124,9.277571678161621,-0.5952146053314209,1.4093725681304932
1773049370349876700,8.129876708984375,10.50808048248291,-0.6191428303718567,2.1708884239196777
1773049370359853800,8.139853759765625,9.723235130310059,-0.542572557926178,1.740180253982544
1773049370369831000,8.149830810546876,9.583852767944336,-0.2793620526790619,1.922034740447998
1773049370379808000,8.15980810546875,9.41635513305664,-0.6382854580879211,2.717050075531006
1773049370389784800,8.169784912109375,9.574281692504883,-0.7148557901382446,1.5242279767990112
1773049370399762000,8.179761962890625,8.47298526763916,-0.5282155871391296,1.9363917112350464
1773049370409739000,8.189739013671876,11.063814163208008,-0.7387840151786804,2.079961061477661
1773049370419716000,8.199716064453124,9.761520385742188,-0.542572557926178,1.2897313833236694
1773049370429693200,8.209693115234375,8.822935104370117,-0.7148557901382446,1.7641085386276245
1773049370439670300,8.219670166015625,10.800602912902832,-0.4612165689468384,2.6213371753692627
1773049370449647000,8.229647216796875,10.901102066040039,-1.007378339767456,2.1469600200653076
1773049370459624200,8.239624267578124,9.54078197479248,-0.5042873620986938,1.337587833404541
1773049370469601300,8.249601318359375,8.315058708190918,-0.3032902777194977,2.103889226913452
1773049370479578400,8.259578369140625,11.671590805053711,-0.7387840151786804,2.0608184337615967
1773049370489555500,8.269555419921875,8.952147483825684,-0.5330012440681458,1.567897081375122
1773049370499532300,8.2795322265625,7.611568927764893,-0.494716078042984,2.032104730606079
1773049370509509400,8.28950927734375,10.01994514465332,-0.6622136831283569,2.630908489227295
1773049370519486500,8.299486572265625,10.829317092895508,-0.9403793215751648,1.2849457263946533
1773049370529463600,8.309463623046875,9.239286422729492,-0.5569294691085815,1.654038667678833
1773049370539440600,8.319440673828124,8.952147483825684,-0.6717849373817444,2.2570300102233887
1773049370549417700,8.329417724609375,11.293524742126465,-0.7722834944725037,1.5822539329528809
1773049370559394600,8.33939453125,9.162715911865234,-0.6287141442298889,2.290529489517212
1773049370569294000,8.349294189453126,8.755936622619629,-0.5856433510780334,2.572882652282715
1773049370579263500,8.359263427734374,9.996016502380371,-0.7674978375434875,1.2801600694656372
1773049370589325800,8.369325927734375,8.214560508728027,-0.6622136831283569,1.8215361833572388
1773049370599304400,8.379304443359375,9.263215065002441,-0.42293140292167664,2.568096876144409
1773049370609279700,8.38927978515625,10.163514137268066,-0.4995017349720001,1.5726827383041382
1773049370619258000,8.399258056640624,8.866005897521973,-0.9451649188995361,2.18045973777771
1773049370629234000,8.40923388671875,8.813364028930664,-0.7244270443916321,2.472383975982666
1773049370639212000,8.4192119140625,10.082158088684082,-0.45643091201782227,0.9930213689804077
1773049370649188000,8.42918798828125,10.680961608886719,-0.26979073882102966,1.7545372247695923
1773049370659166000,8.439166015625,8.367700576782227,-0.5808576941490173,2.0273189544677734
1773049370669142000,8.44914208984375,9.818947792053223,-0.7674978375434875,1.8502501249313354
1773049370679120000,8.459119873046875,10.426724433898926,-0.8015955686569214,2.362314224243164
1773049370689096200,8.46909619140625,9.114859580993652,-0.19322042167186737,0.9690931439399719
1773049370699073800,8.47907373046875,9.095717430114746,-0.37028929591178894,2.9419753551483154
1773049370709050400,8.48905029296875,9.82373332977295,-0.7244270443916321,1.6157535314559937
1773049370719027700,8.49902783203125,8.310273170471191,-0.5952146053314209,0.9068797826766968
1773049370729004300,8.50900439453125,9.708877563476562,-0.8973084688186646,2.83669114112854
1773049370738981600,8.518981689453126,10.757532119750977,-0.5617151260375977,2.2618155479431152
1773049370748958500,8.52895849609375,9.804591178894043,-0.5186443328857422,1.5385849475860596
1773049370758935800,8.538935791015625,9.82373332977295,-0.39421752095222473,1.6444673538208008
1773049370768757800,8.5487578125,9.277571678161621,-0.6143572330474854,2.5250260829925537
1773049370778719500,8.558719482421875,9.632308006286621,-0.4612165689468384,1.3088740110397339
1773049370788866300,8.5688662109375,9.382855415344238,-0.7148557901382446,2.386242389678955
1773049370798847000,8.578846923828126,9.838089942932129,-0.4612165689468384,1.8646070957183838
1773049370808820500,8.588820556640625,8.233702659606934,-0.4468596279621124,2.4053850173950195
1773049370818800400,8.59880029296875,10.187442779541016,-0.719641387462616,1.3567304611206055
1773049370828774700,8.608774658203124,9.704092025756836,-0.6287141442298889,1.716252088546753
1773049370838753800,8.61875390625,8.688937187194824,-0.40378883481025696,2.017747640609741
1773049370848728800,8.628728759765625,10.067801475524902,-0.32721850275993347,2.534597396850586
1773049370858707700,8.638707763671874,9.962516784667969,-0.8255237936973572,1.960319995880127
1773049370868644000,8.64864404296875,8.794221878051758,-0.39900317788124084,0.6819544434547424
1773049370878618600,8.65861865234375,8.779864311218262,-0.37028929591178894,2.1373889446258545
1773049370888637000,8.668636962890625,10.661819458007812,-0.600000262260437,1.4476577043533325
1773049370898615800,8.67861572265625,9.043074607849121,-0.633499801158905,2.1469600200653076
1773049370908591000,8.688591064453124,8.923434257507324,-0.5473581552505493,1.3232308626174927
1773049370928739300,8.7087392578125,9.732806205749512,-0.3415754437446594,0.5814558863639832
1773049370938737200,8.718737060546875,9.119645118713379,-0.3415754437446594,1.2801600694656372
1773049370948693500,8.728693603515625,10.115657806396484,-0.3798605799674988,2.6739792823791504
1773049370958687500,8.7386875,9.196215629577637,-0.6143572330474854,1.6348960399627686
1773049370968647700,8.748647705078126,9.325428009033203,-0.04486542567610741,-0.4049852192401886
1773049370978638000,8.75863818359375,9.68494987487793,0.2231307178735733,2.558525562286377
1773049370988601900,8.768601806640625,10.484152793884277,-0.34636107087135315,1.7688941955566406
1773049370998589700,8.778589599609376,8.8707914352417,-0.5808576941490173,0.11186445504426956
1773049371008556000,8.78855615234375,9.516854286193848,-0.3032902777194977,1.9076778888702393
1773049371018541600,8.79854150390625,12.208181381225586,-0.16929219663143158,2.266601324081421
1773049371028510200,8.80851025390625,10.53200912475586,-0.3367897868156433,2.1708884239196777
1773049371038494000,8.818493896484375,8.453842163085938,-0.4325026869773865,0.42771705985069275
1773049371048464100,8.828464111328126,10.024730682373047,-0.39421752095222473,2.606980323791504
1773049371058446800,8.83844677734375,11.030314445495605,-0.5569294691085815,2.7457640171051025
1773049371068418300,8.848418212890625,9.277571678161621,-0.5665007829666138,0.8255237936973572
1773049371078399700,8.858399658203124,8.885149002075195,-0.7100701332092285,2.266601324081421
1773049371088372500,8.86837255859375,10.01037311553955,-0.7674978375434875,3.0041887760162354
1773049371098353200,8.878353271484375,10.814960479736328,-0.5282155871391296,1.1174482107162476
1773049371108326700,8.88832666015625,9.598209381103516,-0.5856433510780334,2.3336002826690674
1773049371118306300,8.898306396484376,9.732806205749512,-0.8877372145652771,2.376671075820923
1773049371128280600,8.908280517578126,10.40758228302002,-0.9260223507881165,2.4053850173950195
1773049371138260000,8.918260009765625,10.125228881835938,-0.5952146053314209,2.702693223953247
1773049371148234800,8.92823486328125,9.497711181640625,-0.40378883481025696,2.032104730606079
1773049371158213600,8.938213623046876,9.181859016418457,-0.600000262260437,2.070389747619629
1773049371168188700,8.948188720703126,9.153144836425781,-0.5282155871391296,2.204387903213501
1773049371178167300,8.958167236328125,9.023932456970215,-0.06400800496339798,2.2570300102233887
1773049371188104000,8.96810400390625,9.651450157165527,-0.600000262260437,2.740978240966797
1773049371198078200,8.978078125,9.100502967834473,-0.600000262260437,2.0273189544677734
1773049371208097000,8.988096923828126,9.17707347869873,-0.6957131624221802,2.09431791305542
1773049371218075600,8.99807568359375,10.728818893432617,-0.48514479398727417,1.1892328262329102
1773049371228012300,9.00801220703125,8.617152214050293,-0.37507495284080505,2.4053850173950195
1773049371237986600,9.017986572265626,9.559925079345703,-0.8542376756668091,2.070389747619629
1773049371247966200,9.02796630859375,10.04865837097168,-0.719641387462616,1.3806586265563965
1773049371257941200,9.037941162109375,9.014361381530762,-0.7387840151786804,2.1756739616394043
1773049371267920100,9.047920166015626,9.272786140441895,-0.45643091201782227,2.142174482345581
1773049371277895700,9.057895751953126,8.866005897521973,-0.2745763957500458,0.8207381963729858
1773049371287913000,9.067912841796876,8.918647766113281,-0.7674978375434875,2.132603168487549
1773049371297892900,9.077892822265625,9.492925643920898,-0.7968099117279053,1.7545372247695923
1773049371307867100,9.0878671875,8.736793518066406,-0.50907301902771,1.2370892763137817
1773049371317846300,9.09784619140625,10.311869621276855,-0.8350951075553894,2.669193744659424
1773049371327782400,9.107782470703125,10.445867538452148,-0.7770691514015198,1.2610175609588623
1773049371337757200,9.117757080078125,9.325428009033203,-0.5617151260375977,0.8781659007072449
1773049371347697700,9.12769775390625,9.986445426940918,-0.4899304509162903,2.3718855381011963
1773049371357668900,9.1376689453125,10.05823040008545,-0.5521438121795654,1.0169496536254883
1773049371367549000,9.147548828125,9.272786140441895,-0.7824530005455017,2.017747640609741
1773049371377429000,9.157428955078124,8.166703224182129,-0.37028929591178894,1.7353945970535278
1773049371387489000,9.167489013671876,10.14437198638916,-0.45643091201782227,1.557727575302124
1773049371397456000,9.177455810546874,9.397212982177734,-0.37028929591178894,1.4763715267181396
1773049371407443000,9.18744287109375,8.11406135559082,-0.5473581552505493,0.9451649188995361
1773049371417411800,9.197411865234375,10.393224716186523,-0.6382854580879211,2.424527645111084
1773049371427358200,9.207358154296875,9.215357780456543,-0.5521438121795654,1.3806586265563965
1773049371437324800,9.21732470703125,10.04865837097168,-0.4707878530025482,1.80717933177948
1773049371447234800,9.22723486328125,10.05823040008545,-0.5042873620986938,1.3902299404144287
1773049371457195800,9.23719580078125,9.378069877624512,-0.6861419081687927,1.399801254272461
1773049371467111400,9.247111328125,8.520841598510742,-0.21714866161346436,1.8502501249313354
1773049371477067800,9.25706787109375,9.134002685546875,-0.5473581552505493,1.6875381469726562
1773049371487065000,9.267065185546874,10.9633150100708,-0.2745763957500458,1.3758729696273804
1773049371497025500,9.277025634765625,7.189833641052246,0.04127619042992592,2.3958137035369873
1773049371506980400,9.28698046875,9.492925643920898,0.06999006122350693,1.0408778190612793
1773049371516940300,9.296940185546875,10.278369903564453,0.18963119387626648,1.7066807746887207
1773049371526895400,9.306895263671874,9.138788223266602,0.2955136001110077,1.811964988708496
1773049371536854800,9.316854736328125,9.55513858795166,-0.10707881301641464,2.0751755237579346
1773049371546772200,9.326772216796876,9.680164337158203,0.17527425289154053,1.2993026971817017
1773049371556727300,9.336727294921875,10.101301193237305,0.50129634141922,1.3950155973434448
1773049371566726000,9.346725830078125,9.93380355834961,-0.20757736265659332,1.6061822175979614
1773049371576685300,9.356685302734375,8.415556907653809,-0.2602194547653198,1.423729419708252
1773049371586563800,9.366563720703125,9.363713264465332,0.10348957777023315,1.3854442834854126
1773049371596515300,9.376515380859376,10.474580764770508,0.21355941891670227,2.11824631690979
1773049371606478800,9.386478759765625,9.569496154785156,-0.5234299302101135,2.8558337688446045
1773049371616431600,9.396431640625,8.257631301879883,-0.5904290080070496,0.08793623000383377
1773049371626432500,9.4064326171875,8.770293235778809,0.09391828626394272,1.0839486122131348
1773049371636390100,9.41639013671875,12.059825897216797,-0.7770691514015198,4.435695171356201
1773049371646570000,9.426570068359375,9.459425926208496,-0.3798605799674988,1.0552347898483276
1773049371656750000,9.43675,7.079763889312744,-0.5760720372200012,1.0456634759902954
1773049371666930000,9.446929931640625,11.542378425598145,-0.9690931439399719,2.9036903381347656
1773049371677036500,9.45703662109375,10.517651557922363,-0.6191428303718567,2.0273189544677734
1773049371686993700,9.46699365234375,9.023932456970215,-0.26979073882102966,1.7928223609924316
1773049371696987000,9.47698681640625,9.449854850769043,-0.7148557901382446,1.5194423198699951
1773049371706947800,9.48694775390625,9.862018585205078,-0.9308080077171326,2.582453727722168
1773049371716937700,9.496937744140626,9.862018585205078,-0.6861419081687927,2.7457640171051025
1773049371726902000,9.506902099609375,10.603793144226074,-0.6382854580879211,2.017747640609741
1773049371736889300,9.516889404296874,9.795019149780273,-0.5665007829666138,0.7920243144035339
1773049371746856000,9.52685595703125,8.813364028930664,-0.42771705985069275,3.3439695835113525
1773049371756841200,9.53684130859375,10.901102066040039,0.06520441919565201,2.669193744659424
1773049371766810000,9.54681005859375,10.75274658203125,-0.6143572330474854,1.7018951177597046
1773049371776793900,9.5567939453125,8.645866394042969,-0.5569294691085815,2.717050075531006
1773049371786764300,9.566764404296874,9.368498802185059,-0.04007977992296219,2.0129621028900146
1773049371796746500,9.57674658203125,12.686745643615723,-0.16929219663143158,2.0991036891937256
1773049371806718200,9.58671826171875,10.120443344116211,-0.3367897868156433,1.8263218402862549
1773049371816699600,9.59669970703125,8.324629783630371,-0.24586252868175507,1.9411773681640625
1773049371826672400,9.60667236328125,10.671390533447266,-0.26500511169433594,2.8701908588409424
1773049371836652800,9.61665283203125,10.920244216918945,-0.39421752095222473,1.9938194751739502
1773049371846626600,9.62662646484375,8.578866958618164,0.0364905446767807,1.3758729696273804
1773049371856606200,9.636606201171874,9.186644554138184,-0.2027917206287384,2.213959217071533
1773049371866580500,9.64658056640625,10.901102066040039,-0.03529413416981697,2.11824631690979
1773049371876559600,9.6565595703125,9.5264253616333,-0.25064817070961,2.022533416748047
1773049371886534700,9.66653466796875,8.396414756774902,-0.3367897868156433,2.1373889446258545
1773049371896513300,9.67651318359375,9.900303840637207,-0.15493527054786682,1.490728497505188
1773049371906488600,9.686488525390626,10.565508842468262,0.21355941891670227,1.8789639472961426
1773049371916467000,9.696467041015625,9.833304405212402,-0.2793620526790619,1.984248161315918
1773049371926347000,9.706346923828125,8.741579055786133,-0.39900317788124084,1.1270195245742798
1773049371936207600,9.71620751953125,9.186644554138184,-0.1453639715909958,2.108675003051758
1773049371946396700,9.726396728515626,11.327024459838867,0.3529413342475891,2.0656042098999023
1773049371956378600,9.736378662109376,8.660223007202148,-0.030508488416671753,1.3519448041915894
1773049371966350600,9.7463505859375,7.57806921005249,-0.0687936544418335,1.1892328262329102
1773049371976331800,9.756331787109374,8.516056060791016,0.1657029688358307,1.6109678745269775
1773049371986304800,9.7663046875,11.097312927246094,0.012562318705022335,2.0751755237579346
1773049371996285000,9.776284912109375,9.119645118713379,-0.29371899366378784,1.7832510471343994
1773049372006258700,9.7862587890625,7.975277900695801,-0.07357929646968842,1.5242279767990112
1773049372016238300,9.79623828125,11.020742416381836,0.09870393574237823,1.7641085386276245
1773049372026212900,9.806212890625,10.73838996887207,-0.03529413416981697,0.9403793215751648
1773049372036192000,9.81619189453125,7.558926582336426,-0.19322042167186737,1.721037745475769
1773049372046166800,9.826166748046875,8.23848819732666,-0.2745763957500458,1.9411773681640625
1773049372056145700,9.836145751953126,10.661819458007812,0.1704886108636856,1.3902299404144287
1773049372066121000,9.846120849609376,9.852447509765625,-0.11186445504426956,1.6971094608306885
1773049372076099300,9.856099365234375,8.02791976928711,-0.11186445504426956,2.6261229515075684
1773049372086075000,9.866074951171875,9.320642471313477,0.07477571070194244,1.0360921621322632
1773049372096053000,9.876052978515625,10.676176071166992,0.07956135272979736,1.9028922319412231
1773049372106029000,9.886029052734376,10.220941543579102,-0.21714866161346436,2.8462624549865723
1773049372116007000,9.8960068359375,8.305487632751465,-0.21236300468444824,1.466800332069397
1773049372125886700,9.90588671875,9.378069877624512,-0.16929219663143158,1.6396816968917847
1773049372135747600,9.91574755859375,10.901102066040039,0.022133609279990196,1.7258232831954956
1773049372145937000,9.92593701171875,8.48734188079834,-0.1788634955883026,1.5050854682922363
1773049372155918800,9.9359189453125,8.22413158416748,-0.03529413416981697,2.070389747619629
1773049372165890800,9.945890869140625,10.192228317260742,-0.24107688665390015,1.7928223609924316
1773049372175871700,9.955871826171874,10.676176071166992,-0.1740778535604477,1.7880367040634155
1773049372185845000,9.965844970703126,8.219346046447754,0.14656038582324982,1.567897081375122
1773049372195825200,9.9758251953125,9.119645118713379,-0.18843477964401245,2.1708884239196777
1773049372205799000,9.985798828125,11.14038372039795,0.0364905446767807,1.567897081375122
1773049372215778600,9.995778564453126,9.258428573608398,-0.16450655460357666,2.1373889446258545
1773049372225658400,10.005658447265626,9.095717430114746,-0.13579268753528595,1.649253010749817
1773049372235518700,10.015518798828126,9.545567512512207,-0.2315055876970291,2.5154547691345215
1773049372245513000,10.025512939453124,11.11167049407959,0.2667997181415558,1.1700903177261353
1773049372255476200,10.035476318359375,8.875576972961426,0.14656038582324982,1.740180253982544
1773049372265661000,10.045660888671875,9.55513858795166,-0.5952146053314209,2.788834810256958
1773049372275646500,10.055646484375,9.90987491607666,0.026919255033135414,1.275374412536621
1773049372285615000,10.065614990234375,9.723235130310059,0.20877377688884735,2.022533416748047
1773049372295598800,10.075598876953125,10.98724365234375,-0.4085744619369507,2.6117658615112305
1773049372305569000,10.085569091796875,8.338987350463867,-0.11665010452270508,0.849452018737793
1773049372315551500,10.095551513671875,9.57906723022461,0.12263216078281403,1.9938194751739502
1773049372325431600,10.105431640625,11.394022941589355,-0.14057832956314087,2.572882652282715
1773049372335291100,10.115291015625,8.81814956665039,-0.4707878530025482,1.4859428405761719
1773049372345283000,10.125282958984375,8.492127418518066,0.23270200192928314,1.6875381469726562
1773049372355248000,10.135248046875,10.522438049316406,0.21355941891670227,2.7840490341186523
1773049372365431000,10.14543115234375,11.173883438110352,0.01734796352684498,0.9595218896865845
1773049372375418000,10.155418212890625,7.462615489959717,-0.25064817070961,2.572882652282715
1773049372385298200,10.165298095703125,9.531210899353027,0.13698910176753998,2.0751755237579346
1773049372395157000,10.175156982421875,11.145169258117676,0.04127619042992592,1.9555343389511108
1773049372405339100,10.185339111328124,9.014361381530762,-0.12622138857841492,1.811964988708496
1773049372415326700,10.19532666015625,8.219346046447754,0.06520441919565201,1.1413763761520386
1773049372425293000,10.20529296875,9.68494987487793,0.05563312768936157,2.103889226913452
1773049372435278600,10.215278564453126,11.116456031799316,-0.23629122972488403,2.520240545272827
1773049372445158700,10.22515869140625,8.574081420898438,0.0891326442360878,1.428515076637268
1773049372455017700,10.235017822265625,8.794221878051758,0.15134602785110474,2.1756739616394043
1773049372465201200,10.245201171875,11.097312927246094,-0.049651071429252625,2.3910279273986816
1773049372475187700,10.255187744140626,9.244071960449219,-0.16450655460357666,0.8207381963729858
1773049372485155000,10.265155029296874,8.429914474487305,0.0891326442360878,1.922034740447998
1773049372495139800,10.275139892578125,10.584650993347168,-0.16929219663143158,2.8319056034088135
1773049372505109200,10.285109130859375,10.431509971618652,-0.09272187948226929,1.587039589881897
1773049372515092500,10.295092529296875,8.295916557312012,-0.04486542567610741,1.3423734903335571
1773049372524972300,10.30497216796875,9.814162254333496,0.07477571070194244,2.09431791305542
1773049372534831900,10.314831787109375,10.220941543579102,0.2470589429140091,2.1708884239196777
1773049372545017000,10.32501708984375,9.34457015991211,0.39122650027275085,1.6396816968917847
1773049372555002400,10.33500244140625,8.770293235778809,-0.3032902777194977,2.6596224308013916
1773049372564971300,10.34497119140625,9.818947792053223,-0.10229317098855972,1.4189438819885254
1773049372574954800,10.354954833984374,9.172286987304688,0.19920247793197632,2.079961061477661
1773049372584925200,10.36492529296875,10.527223587036133,-0.20757736265659332,1.587039589881897
1773049372594907600,10.37490771484375,8.95693302154541,-0.07836493849754333,1.7736797332763672
1773049372604879400,10.38487939453125,8.74636459350586,0.1704886108636856,2.0991036891937256
1773049372614860500,10.394860595703125,11.283953666687012,0.0077766734175384045,1.591825246810913
1773049372624740600,10.40474072265625,8.343772888183594,-0.03529413416981697,1.6588243246078491
1773049372634600400,10.414600341796875,8.894720077514648,0.08434699475765228,1.6971094608306885
1773049372644787200,10.424787109375,10.565508842468262,0.10827522724866867,1.9028922319412231
1773049372654771200,10.434771240234374,9.57906723022461,-0.19322042167186737,2.1852452754974365
1773049372664741000,10.4447412109375,8.995218276977539,-0.0687936544418335,1.9124635457992554
1773049372674723800,10.454723876953125,9.814162254333496,-0.0687936544418335,2.070389747619629
1773049372684695300,10.4646953125,11.025528907775879,0.14656038582324982,1.552941918373108
1773049372694676700,10.4746767578125,8.200202941894531,-0.06400800496339798,2.3910279273986816
1773049372704649500,10.4846494140625,9.814162254333496,0.07477571070194244,1.6109678745269775
1773049372714630000,10.4946298828125,10.077372550964355,0.01734796352684498,2.0416758060455322
1773049372724603400,10.504603271484376,9.535996437072754,0.06041877344250679,1.4811571836471558
1773049372734583300,10.514583251953125,9.057432174682617,-0.21714866161346436,2.3336002826690674
1773049372744463000,10.524463134765625,9.881160736083984,0.12741780281066895,0.5138586759567261
1773049372754323500,10.534323486328125,9.613164901733398,-0.2602194547653198,2.779263496398926
1773049372764511200,10.54451123046875,9.795019149780273,0.09391828626394272,2.15653133392334
1773049372774494200,10.554494140625,7.597211837768555,0.2183450609445572,1.423729419708252
1773049372784465400,10.56446533203125,11.547163963317871,-0.2745763957500458,1.9938194751739502
1773049372794447000,10.574447021484374,9.301499366760254,-0.11186445504426956,3.095116138458252
1773049372804419300,10.58441943359375,7.731209754943848,0.0364905446767807,1.2562319040298462
1773049372814400300,10.594400146484375,11.274381637573242,0.22791635990142822,3.1238300800323486
1773049372824280300,10.6042802734375,10.579865455627441,-0.39421752095222473,2.2187447547912598
1773049372834140200,10.61414013671875,8.123632431030273,-0.01136590726673603,1.3040883541107178
1773049372844133000,10.624133056640625,8.660223007202148,-0.07357929646968842,1.922034740447998
1773049372854097400,10.634097412109375,10.886744499206543,0.2667997181415558,1.3950155973434448
1773049372864281000,10.644281005859375,9.704092025756836,-0.3367897868156433,2.86061954498291
1773049372874267400,10.654267333984375,8.300702095031738,-0.22193430364131927,1.8693926334381104
1773049372884235300,10.6642353515625,9.66102123260498,0.06999006122350693,0.8685946464538574
1773049372894219800,10.6742197265625,11.523235321044922,0.1944168359041214,2.6596224308013916
1773049372904189200,10.684189208984375,9.833304405212402,-0.13579268753528595,1.8789639472961426
1773049372914172200,10.694172119140624,8.243273735046387,-0.09272187948226929,0.7968099117279053
1773049372924052200,10.70405224609375,9.972088813781738,0.12741780281066895,3.1860432624816895
1773049372933911800,10.713911865234374,10.89153003692627,-0.37507495284080505,2.1948165893554688
1773049372943903200,10.7239033203125,9.038289070129395,0.2907279431819916,0.21714866161346436
1773049372953868500,10.73386865234375,8.569295883178711,0.05563312768936157,2.812762975692749
1773049372964051200,10.74405126953125,11.106884956359863,0.5156532526016235,2.1469600200653076
1773049372974038500,10.75403857421875,7.630711555480957,-0.3367897868156433,2.558525562286377
1773049372984005000,10.764005126953125,9.622735977172852,-0.3415754437446594,0.9643075466156006
1773049372993990400,10.773990478515625,10.168299674987793,0.10348957777023315,1.6205391883850098
1773049373003959300,10.783959228515625,10.637292861938477,0.0029910283628851175,3.104687452316284
1773049373013942800,10.79394287109375,9.492925643920898,-0.01136590726673603,1.5337992906570435
1773049373023913200,10.803913330078124,8.995218276977539,-0.35114672780036926,1.552941918373108
1773049373033895700,10.813895751953124,9.464211463928223,0.050847481936216354,2.6117658615112305
1773049373043775500,10.823775390625,9.028717994689941,-0.22193430364131927,2.242672920227051
1773049373053635300,10.83363525390625,10.657033920288086,0.18005990982055664,0.6675975322723389
1773049373063821000,10.843821044921874,7.798209190368652,0.4342973232269287,3.0233314037323
1773049373073805800,10.853805908203125,10.834102630615234,-0.7824530005455017,3.119044303894043
1773049373083775200,10.863775146484375,9.009575843811035,0.534795880317688,0.31764721870422363
1773049373093758200,10.87375830078125,9.900303840637207,-0.04007977992296219,3.3343982696533203
1773049373103768000,10.88376806640625,11.897113800048828,-0.01615155301988125,1.8598214387893677
1773049373113753900,10.89375390625,6.739983081817627,-0.20757736265659332,1.8167506456375122
1773049373123634000,10.903634033203126,10.65224838256836,-0.054436713457107544,2.4675984382629395
1773049373133450200,10.9134501953125,10.920244216918945,0.2231307178735733,1.4572290182113647
1773049373143637200,10.92363720703125,8.698508262634277,0.0364905446767807,2.568096876144409
1773049373153621000,10.93362109375,8.73200798034668,-0.11665010452270508,1.5194423198699951
1773049373163591200,10.943591064453125,9.497711181640625,-0.18364913761615753,1.3471591472625732
1773049373173573600,10.95357373046875,10.273584365844727,0.2183450609445572,1.9986051321029663
1773049373183545000,10.963545166015624,9.2919282913208,0.0364905446767807,3.0999016761779785
1773049373193526500,10.973526611328126,10.106086730957031,-0.1501496136188507,0.8733802437782288
1773049373203499300,10.983499267578125,8.655437469482422,-0.01136590726673603,1.8023936748504639
1773049373213479700,10.993479736328124,9.186644554138184,-0.030508488416671753,2.946761131286621
1773049373223359700,11.00335986328125,9.996016502380371,-0.054436713457107544,2.213959217071533
1773049373233219800,11.0132197265625,10.65224838256836,-0.4325026869773865,2.4675984382629395
1773049373243213000,11.023213134765625,9.134002685546875,0.22791635990142822,1.4524433612823486
1773049373253176800,11.0331767578125,9.483354568481445,0.1657029688358307,3.0233314037323
1773049373263361000,11.043361083984376,11.647662162780762,-0.11665010452270508,1.7976080179214478
1773049373273347000,11.05334716796875,8.525627136230469,-0.19800607860088348,1.031306505203247
1773049373283315000,11.06331494140625,7.9657063484191895,-0.2554338276386261,3.985844373703003
1773049373293299200,11.07329931640625,10.555936813354492,0.3433700501918793,1.1940184831619263
1773049373303269000,11.08326904296875,10.704890251159668,0.08434699475765228,0.7154539823532104
1773049373313251800,11.093251953125,8.209774017333984,-0.11186445504426956,3.3535408973693848
1773049373323223000,11.10322314453125,7.989634990692139,-0.1501496136188507,1.2035897970199585
1773049373333204700,11.113204833984375,10.901102066040039,-0.34636107087135315,3.5018959045410156
1773049373343177200,11.12317724609375,10.551151275634766,0.1178465187549591,1.649253010749817
1773049373353158000,11.133157958984375,8.190631866455078,0.9798609018325806,0.8255237936973572
1773049373363131100,11.143131103515625,9.976874351501465,-0.24107688665390015,4.373481750488281
1773049373373111000,11.153111083984374,8.885149002075195,-0.48514479398727417,1.8167506456375122
1773049373383085000,11.1630849609375,7.127620220184326,0.30987054109573364,-0.44805604219436646
1773049373393064400,11.173064453125,10.225728034973145,0.381655216217041,5.374279499053955
1773049373403039200,11.183039306640625,12.126825332641602,-0.39900317788124084,1.5774682760238647
1773049373413018000,11.19301806640625,6.85962438583374,-0.01615155301988125,-0.9224331378936768
1773049373422898200,11.202898193359376,8.937790870666504,0.4007977843284607,3.2626137733459473
1773049373432758500,11.212758544921876,12.031112670898438,-0.4325026869773865,3.0376882553100586
1773049373442753000,11.2227529296875,8.81814956665039,-0.2793620526790619,1.2897313833236694
1773049373452715800,11.2327158203125,7.419544696807861,0.5635097622871399,0.34636107087135315
1773049373462900700,11.242900634765626,11.36052417755127,-0.11665010452270508,2.4053850173950195
1773049373472886300,11.25288623046875,10.929815292358398,-0.7824530005455017,4.454837322235107
1773049373482855000,11.26285498046875,7.716853141784668,-0.13100704550743103,0.5862415432929993
1773049373492838700,11.272838623046875,9.071788787841797,0.9798609018325806,1.031306505203247
1773049373502808800,11.282808837890625,12.150753021240234,-0.5856433510780334,4.268197536468506
1773049373512791300,11.292791259765625,8.3629150390625,-0.5712863802909851,1.6683956384658813
1773049373522671000,11.302671142578125,8.98086166381836,-0.2554338276386261,1.2275179624557495
1773049373532531000,11.312531005859375,11.796615600585938,0.09870393574237823,2.472383975982666
1773049373542717000,11.322717041015625,10.326226234436035,-0.11186445504426956,2.8654050827026367
1773049373552701400,11.332701416015626,9.445069313049316,-0.29850462079048157,0.50907301902771
1773049373562670800,11.3426708984375,9.535996437072754,0.09391828626394272,1.2658032178878784
1773049373572654000,11.352654052734374,9.967302322387695,-0.3080759048461914,3.4923245906829834
1773049373582624800,11.362624755859375,10.039087295532227,0.5826523303985596,1.2035897970199585
1773049373592606700,11.372606689453125,9.842875480651855,-0.19322042167186737,1.3040883541107178
1773049373602579000,11.382578857421874,10.915458679199219,-0.7770691514015198,2.1948165893554688
1773049373612560000,11.392559814453126,8.569295883178711,0.3002992272377014,3.607180118560791
1773049373622532900,11.402532958984375,11.283953666687012,0.4821537733078003,0.5479564070701599
1773049373632513000,11.412512939453125,10.465009689331055,0.1178465187549591,2.1996021270751953
1773049373642487000,11.422487060546874,7.074978351593018,-0.5138586759567261,1.7641085386276245
1773049373652466400,11.432466552734375,7.980063438415527,0.0364905446767807,1.3184453248977661
1773049373662441000,11.44244091796875,12.088540077209473,-0.47557350993156433,3.741776466369629
1773049373672419800,11.452419921875,11.398808479309082,0.1417747437953949,1.179661512374878
1773049373682395000,11.462394775390624,7.261618614196777,0.15134602785110474,1.0217353105545044
1773049373692373500,11.47237353515625,11.135598182678223,0.050847481936216354,2.7314071655273438
1773049373702348800,11.482348876953125,8.588438987731934,-0.3846462368965149,2.15653133392334
1773049373712327200,11.4923271484375,6.03110933303833,0.14656038582324982,-0.4624129831790924
1773049373722207200,11.502207275390624,6.629913330078125,0.625723123550415,2.1469600200653076
1773049373732067600,11.512067626953124,7.1228346824646,-0.29850462079048157,2.534597396850586
1773049373742257000,11.5222568359375,8.765507698059082,-0.5473581552505493,3.032902717590332
1773049373752238800,11.53223876953125,10.594222068786621,0.592223584651947,2.4675984382629395
1773049373762210800,11.5422109375,12.681960105895996,-0.16929219663143158,2.7601208686828613
1773049373772191700,11.552191650390625,10.149157524108887,-0.020937198773026466,4.17726993560791
1773049373782164700,11.562164794921875,8.051848411560059,-0.15972091257572174,2.338385820388794
1773049373792145200,11.572145263671874,9.751948356628418,-0.4995017349720001,0.28893333673477173
1773049373802119000,11.582118896484374,6.864409923553467,0.0891326442360878,2.18045973777771
1773049373812098300,11.592098388671875,9.08135986328125,0.7501499056816101,2.5872395038604736
1773049373822072800,11.60207275390625,10.858031272888184,-0.5760720372200012,1.466800332069397
1773049373832052000,11.612052001953124,8.090133666992188,0.14656038582324982,-0.3044866919517517
1773049373842026800,11.62202685546875,10.125228881835938,0.026919255033135414,3.9667017459869385
1773049373852005600,11.632005615234375,13.779068946838379,0.24227328598499298,2.5058834552764893
1773049373861981000,11.64198095703125,10.584650993347168,-0.42771705985069275,0.48514479398727417
1773049373871959300,11.651959228515626,10.01994514465332,-0.10707881301641464,2.669193744659424
1773049373881934800,11.661934814453126,10.015159606933594,0.12741780281066895,1.811964988708496
1773049373891913000,11.671912841796875,10.63250732421875,-0.5665007829666138,0.21236300468444824
1773049373901888800,11.681888671875,9.153144836425781,-0.5186443328857422,1.80717933177948
1773049373911866600,11.69186669921875,8.037490844726562,0.20877377688884735,1.673181176185608
1773049373921843000,11.701843017578126,10.63250732421875,-0.07836493849754333,1.490728497505188
1773049373931820500,11.711820556640625,9.900303840637207,-0.2554338276386261,1.4333007335662842
1773049373941796900,11.721796875,10.15872859954834,-0.10229317098855972,1.2083754539489746
1773049373951774500,11.7317744140625,10.307083129882812,-0.23629122972488403,2.8079774379730225
1773049373961751000,11.7417509765625,11.283953666687012,-0.3846462368965149,1.25144624710083
1773049373971728400,11.751728271484374,11.21216869354248,-0.5904290080070496,1.1988041400909424
1773049373981705000,11.761705078125,9.449854850769043,-0.01615155301988125,2.664407968521118
1773049373991682300,11.771682373046875,9.828518867492676,-0.45164528489112854,1.4428720474243164
1773049374001659000,11.781658935546876,10.340582847595215,-0.15972091257572174,1.5966109037399292
1773049374011636200,11.79163623046875,7.539783954620361,-0.18364913761615753,2.2570300102233887
1773049374021612800,11.80161279296875,8.8707914352417,-0.16450655460357666,1.6827524900436401
1773049374031590100,11.811590087890625,9.670592308044434,-0.12622138857841492,1.3232308626174927
1773049374041567000,11.82156689453125,10.278369903564453,-0.13579268753528595,2.1996021270751953
1773049374051544000,11.8315439453125,9.593423843383789,-0.08315058797597885,2.7314071655273438
1773049374061521000,11.84152099609375,10.881958961486816,-0.08793623000383377,0.29371899366378784
1773049374071498000,11.851498046875,11.188240051269531,-0.1740778535604477,2.462812662124634
1773049374081474800,11.861474853515626,9.535996437072754,-0.03529413416981697,1.3040883541107178
1773049374091452000,11.871451904296874,9.507282257080078,0.06520441919565201,1.093519926071167
1773049374101429000,11.881428955078125,9.972088813781738,-0.8638089895248413,3.511467218399048
1773049374111406000,11.891406005859375,8.257631301879883,0.36729827523231506,0.13100704550743103
1773049374121383000,11.9013828125,9.929018020629883,1.3298112154006958,0.47557350993156433
1773049374131360000,11.911360107421874,10.637292861938477,-0.07836493849754333,4.373481750488281
1773049374141298200,11.921298095703126,7.438687324523926,-0.37028929591178894,1.7306089401245117
1773049374151271200,11.931271240234375,8.085348129272461,0.6113662123680115,-0.7357929348945618
1773049374161291000,11.941291015625,12.045469284057617,0.2907279431819916,4.057629108428955
1773049374171268900,11.951268798828124,11.274381637573242,-0.8925228714942932,2.2953150272369385
1773049374181245000,11.961244873046875,7.319046497344971,-0.08315058797597885,-0.2949153780937195
1773049374191222500,11.971222412109375,11.810972213745117,-0.3320041298866272,3.875774383544922
1773049374201199000,11.98119921875,10.848459243774414,-0.4995017349720001,1.893320918083191
1773049374211176400,11.991176513671874,7.342974662780762,0.486939400434494,-0.9080761671066284
1773049374221153000,12.001153076171875,9.996016502380371,0.6975077986717224,3.923630952835083
1773049374231130400,12.01113037109375,10.063015937805176,-0.5712863802909851,2.18045973777771
1773049374241010400,12.021010498046875,6.447460651397705,-0.7920243144035339,2.0895323753356934
1773049374250871300,12.030871337890625,7.850851058959961,0.7836494445800781,1.8646070957183838
1773049374261060900,12.041060791015624,11.240882873535156,0.2566302418708801,2.999403238296509
1773049374271042600,12.05104248046875,11.317452430725098,-1.4093725681304932,4.2825541496276855
1773049374281015000,12.06101513671875,4.278367042541504,-0.1501496136188507,0.7489534616470337
1773049374290995500,12.070995361328125,11.44666576385498,1.0516455173492432,0.006580262444913387
1773049374300969000,12.080968994140624,15.631711959838867,-0.29850462079048157,2.510669231414795
1773049374310948900,12.090948974609375,6.064609050750732,-0.7004988193511963,3.348755359649658
1773049374320923100,12.100923095703125,9.076574325561523,-0.054436713457107544,-0.7214360237121582
1773049374330902300,12.11090234375,11.897113800048828,0.4486542344093323,-0.7884350419044495
1773049374340782300,12.1207822265625,7.597211837768555,-0.5904290080070496,5.335994720458984
1773049374350642700,12.130642578125,7.299903869628906,0.23748764395713806,0.729810893535614
1773049374360831000,12.1408310546875,8.602795600891113,0.8793623447418213,-0.46719861030578613
1773049374370813700,12.150813720703125,11.988041877746582,-0.3080759048461914,3.9667017459869385
1773049374380785000,12.160784912109374,7.735995769500732,0.0029910283628851175,1.6444673538208008
1773049374390766600,12.1707666015625,6.869195461273193,1.1234302520751953,0.5335994362831116
1773049374400739000,12.180739013671875,13.769497871398926,0.10827522724866867,1.3950155973434448
1773049374410719700,12.1907197265625,8.741579055786133,-0.48035913705825806,1.831107497215271
1773049374420693000,12.20069287109375,8.037490844726562,0.5778666734695435,0.672383189201355
1773049374430673200,12.210673095703125,10.934600830078125,0.4534398913383484,0.6436693072319031
1773049374440647200,12.220647216796875,9.382855415344238,-0.8781659007072449,1.3519448041915894
1773049374450626600,12.23062646484375,5.2839508056640625,0.07477571070194244,1.1461620330810547
1773049374460484900,12.24048486328125,10.570294380187988,0.39122650027275085,2.132603168487549
1773049374470452000,12.250451904296876,12.150753021240234,-0.7100701332092285,1.3519448041915894
1773049374480555000,12.260554931640625,6.011966705322266,0.6831508874893188,1.1940184831619263
1773049374490536200,12.2705361328125,10.072587013244629,0.7310073375701904,2.7361927032470703
1773049374500509200,12.28050927734375,12.323036193847656,-0.4995017349720001,0.9068797826766968
1773049374510489300,12.2904892578125,8.166703224182129,-0.07836493849754333,1.9794625043869019
1773049374520369400,12.300369384765625,9.694520950317383,0.5252245664596558,1.677966833114624
1773049374530249500,12.31024951171875,10.886744499206543,-0.7722834944725037,1.3758729696273804
1773049374540417000,12.3204169921875,9.406784057617188,-0.22193430364131927,0.37507495284080505
1773049374550403300,12.3304033203125,8.62193775177002,0.6352944374084473,2.2091734409332275
1773049374560371200,12.34037109375,11.37488079071045,-0.3607180118560791,2.266601324081421
1773049374570355500,12.35035546875,8.885149002075195,0.28115665912628174,-0.2949153780937195
1773049374580325400,12.360325439453124,8.69372272491455,0.12263216078281403,2.5872395038604736
1773049374590308000,12.37030810546875,11.288739204406738,-0.020937198773026466,4.004986763000488
1773049374600279300,12.380279296875,8.995218276977539,0.251844584941864,0.39900317788124084
1773049374610261000,12.390260986328125,10.719246864318848,-0.030508488416671753,1.3902299404144287
1773049374620233500,12.4002333984375,10.589436531066895,-0.6191428303718567,3.511467218399048
1773049374630214100,12.410214111328125,9.531210899353027,0.12741780281066895,0.10229317098855972
1773049374640187400,12.4201875,10.853245735168457,-0.18364913761615753,3.238685369491577
1773049374650167600,12.43016748046875,11.164312362670898,-0.12143574655056,0.9260223507881165
1773049374660141600,12.4401416015625,8.090133666992188,0.18963119387626648,0.8877372145652771
1773049374670121000,12.450120849609375,10.101301193237305,0.12741780281066895,2.9802606105804443
1773049374680095500,12.460095458984375,10.450653076171875,-0.753140926361084,1.2610175609588623
1773049374690074600,12.47007470703125,8.458627700805664,0.41994038224220276,1.00259268283844
1773049374700049700,12.480049560546876,9.723235130310059,0.0029910283628851175,4.024129390716553
1773049374710028300,12.4900283203125,11.518449783325195,-0.13100704550743103,-0.09391828626394272
1773049374720003800,12.50000390625,8.300702095031738,-0.3080759048461914,3.119044303894043
1773049374729982000,12.50998193359375,10.671390533447266,0.2907279431819916,2.1756739616394043
1773049374739957800,12.519957763671876,9.78544807434082,0.05563312768936157,1.466800332069397
1773049374749935900,12.529935791015625,10.450653076171875,-0.2793620526790619,1.7880367040634155
1773049374759912000,12.539911865234375,8.343772888183594,0.20398813486099243,1.8550357818603516
1773049374769889500,12.5498896484375,9.153144836425781,0.15134602785110474,1.4333007335662842
1773049374779865900,12.559865966796876,10.40758228302002,-0.47557350993156433,1.8598214387893677
1773049374789843500,12.569843505859374,8.482556343078613,-0.09272187948226929,0.23629122972488403
1773049374799820000,12.579820068359375,8.171489715576172,0.17527425289154053,1.9124635457992554
1773049374809797400,12.58979736328125,11.22652530670166,-0.12143574655056,2.572882652282715
1773049374819774000,12.59977392578125,9.617950439453125,-0.4707878530025482,1.835893154144287
1773049374829751600,12.60975146484375,8.037490844726562,0.7549355626106262,0.9978070259094238
1773049374839728000,12.61972802734375,10.512866020202637,-0.04486542567610741,3.0424740314483643
1773049374849705500,12.62970556640625,12.07896900177002,-0.7292127013206482,2.0033907890319824
1773049374859682300,12.639682373046876,7.141977310180664,0.8793623447418213,1.1126625537872314
1773049374869659400,12.649659423828124,9.996016502380371,-0.0975075215101242,2.046461582183838
1773049374879636200,12.65963623046875,10.800602912902832,-0.45164528489112854,-0.026919255033135414
1773049374889613300,12.66961328125,6.988836765289307,0.20877377688884735,2.5393829345703125
1773049374899590100,12.679590087890626,10.345368385314941,0.21355941891670227,0.605384111404419
1773049374909567500,12.6895673828125,8.92821979522705,-0.4468596279621124,0.37028929591178894
1773049374919544300,12.69954443359375,8.741579055786133,0.33379876613616943,2.132603168487549
1773049374929521400,12.709521484375,10.512866020202637,-0.11665010452270508,2.999403238296509
1773049374939498500,12.71949853515625,11.537592887878418,-0.37028929591178894,1.3040883541107178
1773049374949475600,12.7294755859375,7.917850017547607,0.4534398913383484,1.5966109037399292
1773049374959452400,12.739452392578125,11.068599700927734,-0.025722842663526535,3.0616166591644287
1773049374969429500,12.749429443359375,11.264810562133789,-0.8542376756668091,1.074377417564392
1773049374979406600,12.759406494140626,7.975277900695801,0.0891326442360878,0.4420739710330963
1773049374989383700,12.7693837890625,9.425926208496094,0.5395814776420593,2.7218358516693115
1773049374999399400,12.7793994140625,10.953743934631348,-0.3415754437446594,0.054436713457107544
1773049375009380400,12.78938037109375,7.39561653137207,-0.4372883439064026,0.882951557636261
1773049375019314700,12.799314697265626,7.740781307220459,0.5395814776420593,2.779263496398926
1773049375029291000,12.809291015625,11.389237403869629,-0.020937198773026466,0.9978070259094238
1773049375039268900,12.819268798828125,12.236894607543945,-0.4372883439064026,2.290529489517212
1773049375049245200,12.8292451171875,7.582854747772217,0.5156532526016235,2.462812662124634
1773049375059222800,12.839222900390626,9.637093544006348,0.0891326442360878,0.11186445504426956
1773049375069199400,12.849199462890626,11.887542724609375,-0.7100701332092285,3.425325632095337
1773049375079177000,12.859177001953125,7.52004337310791,0.04127619042992592,2.4532413482666016
1773049375089153500,12.869153564453125,9.244071960449219,0.3720839321613312,-0.7645068168640137
1773049375099131000,12.879130859375,10.637292861938477,0.0077766734175384045,3.0424740314483643
1773049375109107700,12.889107666015626,8.803792953491211,-0.3655036687850952,1.7976080179214478
1773049375119085000,12.8990849609375,8.62193775177002,0.30508488416671753,0.5288137793540955
1773049375129061600,12.9090615234375,10.527223587036133,-0.01615155301988125,2.486740827560425
1773049375139039000,12.9190390625,10.498509407043457,-0.5569294691085815,0.7154539823532104
1773049375149015800,12.929015869140626,9.033503532409668,0.5443671345710754,2.630908489227295
1773049375158993200,12.9389931640625,10.872387886047363,-0.4899304509162903,2.486740827560425
1773049375168970000,12.948969970703125,10.350153923034668,-0.18843477964401245,1.8550357818603516
1773049375178947000,12.958947021484375,8.866005897521973,0.09391828626394272,0.9834501147270203
1773049375188924200,12.968924072265626,9.559925079345703,0.04127619042992592,2.7601208686828613
1773049375198901200,12.9789013671875,9.56471061706543,0.06041877344250679,1.8023936748504639
1773049375208878000,12.988878173828125,9.172286987304688,-0.1788634955883026,1.1413763761520386
1773049375218855400,12.99885546875,8.808578491210938,-0.01615155301988125,2.338385820388794
1773049375228832300,13.008832275390626,9.157930374145508,0.21355941891670227,0.4325026869773865
1773049375238809300,13.018809326171874,10.354940414428711,-0.05922235921025276,2.740978240966797
1773049375248786400,13.028786376953125,9.627521514892578,-0.7968099117279053,1.9555343389511108
1773049375258763500,13.038763427734375,9.272786140441895,0.47258245944976807,-0.08434699475765228
