time,seconds_elapsed,z,y,x
1771681651300519200,0.113519287109375,0,0,0
1771681651310877000,0.123876953125,-0.6914863586425781,-0.8143143653869629,0.3494294285774231
1771681651321234700,0.134234619140625,-0.40187931060791016,0.47459542751312256,0.41786128282546997
1771681651331592400,0.144592529296875,1.5112428665161133,2.754300117492676,-0.06146593391895294
1771681651341950200,0.1549501953125,-0.5691719055175781,-0.569385290145874,0.15874996781349182
1771681651352308000,0.165307861328125,-0.34619140625,0.09690618515014648,-0.7991979122161865
1771681651362665700,0.175665771484375,0.048004150390625,0.6928935050964355,-0.24275627732276917
1771681651383381200,0.19638134765625,-1.165989875793457,0.4292771816253662,0.7005404233932495
1771681651404096800,0.2170966796875,-1.026352882385254,-1.074202299118042,0.07206998765468597
1771681651414454500,0.22745458984375,0.4679832458496094,-0.3428833484649658,-0.8056905269622803
1771681651424812300,0.237812255859375,1.0484237670898438,0.12861871719360352,0.24270343780517578
1771681651435170000,0.248170166015625,-1.1880712509155273,-0.8509547710418701,0.912528395652771
1771681651445527800,0.25852783203125,-0.6394052505493164,1.747192144393921,0.523639440536499
1771681651455885600,0.268885498046875,2.1889896392822266,1.8890047073364258,-0.4652312397956848
1771681651466243300,0.279243408203125,-2.0045199394226074,-1.3558075428009033,-0.01466120034456253
1771681651476601000,0.28960107421875,-0.04647636413574219,-1.4448977708816528,-0.6395352482795715
1771681651486958800,0.299958740234375,1.068922996520996,0.4222080707550049,0.019066862761974335
1771681651497316600,0.310316650390625,-2.510129451751709,-0.92482590675354,1.2242259979248047
1771681651507674400,0.32067431640625,1.232895851135254,2.933645248413086,0.23267626762390137
1771681651518032100,0.3310322265625,0.4775838851928711,0.26880550384521484,0.4920484721660614
1771681651528390000,0.341389892578125,-1.900486946105957,-1.492169976234436,-0.4070701003074646
1771681651538747600,0.35174755859375,0.9717245101928711,-0.7031409740447998,-0.7346509695053101
1771681651549105400,0.36210546875,-0.06435203552246094,-0.5337761640548706,0.4584503173828125
1771681651559463200,0.372463134765625,-2.312018871307373,0.556438684463501,1.196469783782959
1771681651569821000,0.382821044921875,2.1283206939697266,2.1498231887817383,0.08978836983442307
1771681651580178700,0.3931787109375,-0.2093982696533203,-0.7120606899261475,0.02822345681488514
1771681651590536400,0.403536376953125,-1.6067934036254883,-2.1085894107818604,-0.2963789403438568
1771681651600894200,0.413894287109375,2.087336540222168,0.5092604160308838,0.19487804174423218
1771681651611252000,0.424251953125,-0.7683515548706055,0.7537295818328857,0.7643064856529236
1771681651621609700,0.434609619140625,-0.8626441955566406,0.8974270820617676,0.951204240322113
1771681651631967500,0.444967529296875,2.2838897705078125,0.35939955711364746,-0.3011651039123535
1771681651642325200,0.4553251953125,-1.4066038131713867,-1.1013257503509521,-0.1617860198020935
1771681651652683000,0.46568310546875,-0.5086860656738281,-2.176302909851074,-0.5764673352241516
1771681651663040800,0.476040771484375,1.8944101333618164,1.9144079685211182,0.25473371148109436
1771681651673398500,0.4863984375,-1.903048038482666,1.9383649826049805,0.5375325083732605
1771681651683756300,0.49675634765625,1.3968963623046875,-0.8047068119049072,0.6849283576011658
1771681651694114000,0.507114013671875,-1.1338081359863281,-0.33541882038116455,0.009095638990402222
1771681651704471800,0.517471923828125,0.009594917297363281,-2.1323037147521973,0.08070480823516846
1771681651714829600,0.52782958984375,0.9010076522827148,0.6143262386322021,-0.2602299451828003
1771681651725187600,0.5381875,-0.5928010940551758,1.9067771434783936,-0.4802113175392151
1771681651735545300,0.54854541015625,0.2737092971801758,0.5808846950531006,0.4125860333442688
1771681651745903000,0.558903076171875,0.6367902755737305,-0.8322662115097046,-0.2863185703754425
1771681651756260900,0.5692607421875,-0.7203083038330078,-1.471276879310608,0.1674705147743225
1771681651766618600,0.57961865234375,1.132781982421875,1.0775513648986816,-0.0027211494743824005
1771681651776976400,0.589976318359375,-0.8848733901977539,1.2377355098724365,-0.4191899001598358
1771681651787334100,0.600334228515625,0.6468544006347656,0.3017387390136719,-0.3864770233631134
1771681651797692000,0.61069189453125,-0.10233688354492188,-0.6678612232208252,-0.47387874126434326
1771681651808049700,0.621049560546875,-0.337127685546875,-1.4400699138641357,-0.22398942708969116
1771681651818407400,0.631407470703125,0.4647207260131836,0.7254674434661865,0.02076195925474167
1771681651828765200,0.64176513671875,0.26946449279785156,0.9834182262420654,-0.12989608943462372
1771681651839123000,0.652123046875,0.1887950897216797,0.10306572914123535,0.25112998485565186
1771681651849480700,0.662480712890625,-1.197854995727539,-0.35499393939971924,0.8026933073997498
1771681651859838500,0.67283837890625,-0.5556402206420898,-2.0104756355285645,0.040129370987415314
1771681651870196200,0.6831962890625,-1.0189018249511719,0.9881253242492676,-0.2226947546005249
1771681651880554000,0.693553955078125,0.05027961730957031,0.7494924068450928,-0.39207443594932556
1771681651890911700,0.703911865234375,-0.019797325134277344,0.5086255073547363,0.42138275504112244
1771681651901269500,0.71426953125,-0.8403749465942383,-0.318705677986145,-0.04000760614871979
1771681651911627300,0.724627197265625,0.4889392852783203,-0.9299284219741821,-0.029883351176977158
1771681651921985000,0.734985107421875,-0.32703590393066406,1.5669150352478027,-0.0037593096494674683
1771681651932342800,0.7453427734375,0.3643817901611328,0.8060448169708252,0.0428115576505661
1771681651942700500,0.755700439453125,0.09462547302246094,-0.28417789936065674,-1.020530343055725
1771681651953058300,0.766058349609375,-1.5038728713989258,-0.9037454128265381,-0.13358178734779358
1771681651963416000,0.776416015625,1.1200361251831055,-0.11108732223510742,-0.17100444436073303
1771681651973773800,0.78677392578125,-0.852320671081543,0.6744368076324463,-0.21132463216781616
1771681651984131600,0.797131591796875,1.2638769149780273,0.8361489772796631,0.05776284635066986
1771681651994489300,0.8074892578125,-0.768244743347168,-0.45585358142852783,1.1946768760681152
1771681652004847000,0.81784716796875,0.23093414306640625,-0.9420338869094849,0.17078238725662231
1771681652015204900,0.828204833984375,0.5643596649169922,1.5201325416564941,-0.7575088143348694
1771681652025562600,0.838562744140625,0.38262176513671875,0.8269014358520508,-0.3241608738899231
1771681652035920400,0.84892041015625,0.7000494003295898,0.7211358547210693,0.012109935283660889
1771681652046278100,0.859278076171875,-1.29888916015625,-1.6472084522247314,0.4602835774421692
1771681652056636000,0.869635986328125,0.6684541702270508,-0.374001145362854,0.6778754591941833
1771681652066993700,0.87999365234375,0.4981050491333008,1.7695469856262207,0.09311797469854355
1771681652077351400,0.890351318359375,-0.4703521728515625,0.6074256896972656,0.08191917091608047
1771681652087709200,0.900709228515625,-0.5939655303955078,-0.6719198226928711,-0.23735740780830383
1771681652098067000,0.91106689453125,-0.3733539581298828,-0.7149343490600586,-0.028340108692646027
1771681652108424700,0.9214248046875,0.8995180130004883,0.4660356044769287,0.019772209227085114
1771681652118782500,0.931782470703125,-0.7437801361083984,0.24803972244262695,0.1109447106719017
1771681652129140200,0.94214013671875,1.212015151977539,0.42316746711730957,0.3787457048892975
1771681652139498000,0.952498046875,-2.3057193756103516,-1.068799376487732,0.05732518434524536
1771681652149855700,0.962855712890625,0.8704099655151367,0.12366557121276855,-0.5277271866798401
1771681652160213500,0.973213623046875,-0.5764217376708984,0.9703567028045654,-0.7137563228607178
1771681652170571300,0.9835712890625,0.4794483184814453,1.4335689544677734,-0.48010528087615967
1771681652180929000,0.993928955078125,-1.4603185653686523,-0.7490735054016113,-0.3317585587501526
1771681652191286800,1.004286865234375,0.6666975021362305,-1.4448415040969849,-0.3165990710258484
1771681652201644500,1.01464453125,0.12590312957763672,-0.24574029445648193,-0.21466770768165588
1771681652212002300,1.025002197265625,1.7201080322265625,1.8858699798583984,-0.5403026342391968
1771681652222360000,1.035360107421875,-0.8642444610595703,0.14095854759216309,0.7013459205627441
1771681652232717800,1.0457177734375,-1.1381006240844727,-1.0825285911560059,0.09893247485160828
1771681652243075600,1.05607568359375,0.9662847518920898,-0.5584185123443604,0.9562895894050598
1771681652253433300,1.066433349609375,1.0896587371826172,1.3254218101501465,-0.159101203083992
1771681652263791000,1.076791015625,-0.34748077392578125,0.33297181129455566,0.5484606623649597
1771681652274148900,1.08714892578125,-1.6380348205566406,-1.3795948028564453,0.49610406160354614
1771681652284506600,1.097506591796875,0.7112236022949219,-1.4212368726730347,1.5719736814498901
1771681652294864400,1.107864501953125,0.7618932723999023,1.1047141551971436,-0.579531729221344
1771681652305222100,1.11822216796875,-0.5041561126708984,0.4287593364715576,-0.26110243797302246
1771681652315580000,1.128579833984375,-0.8823308944702148,-1.2216103076934814,-0.30017539858818054
1771681652325937700,1.138937744140625,0.6096553802490234,-1.2461180686950684,0.09316255897283554
1771681652336295400,1.14929541015625,0.4676799774169922,1.421642541885376,-0.373401015996933
1771681652346653200,1.159653076171875,-0.8605365753173828,0.6567835807800293,-0.6136243343353271
1771681652357011000,1.170010986328125,-0.8757743835449219,-1.2031285762786865,0.9616628885269165
1771681652367368700,1.18036865234375,-0.6492624282836914,-1.3791890144348145,0.22695596516132355
1771681652377726500,1.1907265625,0.9437875747680664,1.6680755615234375,-0.44179898500442505
1771681652388084200,1.201084228515625,0.5261754989624023,1.5815215110778809,0.010218754410743713
1771681652398442000,1.21144189453125,-1.1160697937011719,-0.4324305057525635,0.7043299674987793
1771681652408799700,1.2217998046875,-0.18216323852539062,-1.4119069576263428,0.30822789669036865
1771681652419157500,1.232157470703125,0.9071788787841797,0.237443208694458,-0.03775297477841377
1771681652429515300,1.242515380859375,0.2601757049560547,1.7243561744689941,0.23179349303245544
1771681652439873000,1.252873046875,-0.8461666107177734,0.19355154037475586,0.2621299624443054
1771681652450230800,1.263230712890625,-0.6657819747924805,-1.051397681236267,0.17580139636993408
1771681652460588500,1.273588623046875,0.003966331481933594,-0.03333401679992676,-0.23040369153022766
1771681652470946300,1.2839462890625,-0.014095306396484375,0.4579784870147705,0.3875717222690582
1771681652481304000,1.294303955078125,0.826146125793457,0.18877530097961426,-0.049215689301490784
1771681652491661800,1.304661865234375,-2.1469168663024902,-0.7841998338699341,0.5760692358016968
1771681652502019600,1.31501953125,0.6699972152709961,-0.07106888294219971,-0.384726345539093
1771681652512377300,1.32537744140625,-1.5182218551635742,0.6847693920135498,-0.3752489984035492
1771681652522735000,1.335735107421875,-0.014798164367675781,0.3035895824432373,-0.3496740162372589
1771681652533092900,1.3460927734375,2.2361135482788086,-2.778101921081543,-0.7376857399940491
1771681652543450600,1.35645068359375,0.9196577072143555,-0.2501344680786133,-1.14321768283844
1771681652553808400,1.366808349609375,1.8042488098144531,1.3854608535766602,-0.9558635354042053
1771681652564166100,1.377166259765625,-0.9907350540161133,-0.2937126159667969,0.5877607464790344
1771681652574524000,1.38752392578125,0.8474254608154297,-1.5832650661468506,0.6030365824699402
1771681652584881700,1.397881591796875,0.07483291625976562,0.9549250602722168,-0.40337491035461426
1771681652595239400,1.408239501953125,0.47037220001220703,1.4035284519195557,-0.0971209779381752
1771681652605597200,1.41859716796875,-0.017165184020996094,-0.33321869373321533,0.39831721782684326
1771681652615955000,1.428954833984375,-0.14614105224609375,-1.6289055347442627,0.4369850158691406
1771681652626312700,1.439312744140625,0.5714235305786133,1.0054363012313843,-0.1706511378288269
1771681652636670500,1.44967041015625,0.2494211196899414,1.1746174097061157,-0.26904618740081787
1771681652647028200,1.4600283203125,-0.6213111877441406,-1.093770980834961,0.301241934299469
1771681652657386000,1.470385986328125,0.22944164276123047,-1.5445027351379395,0.5136591792106628
1771681652667743700,1.48074365234375,0.3523445129394531,1.5033326148986816,-0.8438835144042969
1771681652678101500,1.4911015625,0.7186412811279297,0.3503683805465698,-1.1111950874328613
1771681652688459300,1.501459228515625,-0.717198371887207,-0.9386683702468872,0.5239977836608887
1771681652698817000,1.511817138671875,0.9408655166625977,-0.38617241382598877,0.5262656807899475
1771681652709174800,1.5221748046875,0.7980051040649414,1.76220703125,-0.6562530398368835
1771681652719532500,1.532532470703125,-1.5152511596679688,0.1049271821975708,0.17034786939620972
1771681652729890300,1.542890380859375,2.3900604248046875,-2.3654847145080566,0.9673509001731873
1771681652740248000,1.553248046875,0.6024494171142578,0.6241251230239868,0.2877035439014435
1771681652750605800,1.563605712890625,0.178070068359375,0.3394695520401001,0.2887026071548462
1771681652760963600,1.573963623046875,0.31411266326904297,-0.5371118783950806,1.3542578220367432
1771681652771321300,1.5843212890625,-0.9448871612548828,-0.7907043695449829,1.080603837966919
1771681652781679000,1.59467919921875,-0.7649698257446289,0.9733021259307861,0.31671419739723206
1771681652792036900,1.605036865234375,-0.4464988708496094,0.3201662302017212,-0.23031441867351532
1771681652802394600,1.61539453125,-0.2510986328125,-0.04963266849517822,0.7865906357765198
1771681652812752400,1.62575244140625,0.6798467636108398,0.09323441982269287,0.2870189845561981
1771681652823110100,1.636110107421875,-0.021350860595703125,1.412874460220337,-0.2310866266489029
1771681652833468000,1.646468017578125,-1.0455808639526367,-1.1017801761627197,0.3915235698223114
1771681652843825700,1.65682568359375,-0.6938447952270508,-0.7575352191925049,-0.19922775030136108
1771681652854183400,1.667183349609375,-0.23060226440429688,1.4752590656280518,-0.0429813414812088
1771681652864541200,1.677541259765625,-0.16503620147705078,0.21350479125976562,0.3891144096851349
1771681652874899000,1.68789892578125,-0.9509124755859375,-1.0377410650253296,0.08241291344165802
1771681652885256700,1.698256591796875,0.23427486419677734,0.3365445137023926,0.2628553509712219
1771681652895614500,1.708614501953125,-0.6494626998901367,1.0772148370742798,-0.6232548356056213
1771681652905972200,1.71897216796875,-0.1344280242919922,-0.12647736072540283,0.007353955879807472
1771681652916330000,1.729330078125,-0.7518148422241211,-1.3236093521118164,-0.15026338398456573
1771681652926687700,1.739687744140625,0.8744001388549805,0.9608138799667358,-0.5058438181877136
1771681652937045500,1.75004541015625,0.39778995513916016,0.8731365203857422,-0.6891331076622009
1771681652947403300,1.7604033203125,-0.29198360443115234,-2.0970959663391113,0.03981100395321846
1771681652957761000,1.770760986328125,0.26857852935791016,0.4083961248397827,-0.3182585537433624
1771681652968118800,1.781118896484375,0.756439208984375,2.2174062728881836,0.01984832063317299
1771681652978476500,1.7914765625,-1.0556488037109375,-1.3678646087646484,0.3585650622844696
1771681652988834300,1.801834228515625,-0.5688467025756836,-0.890831708908081,0.28159797191619873
1771681652999192000,1.812192138671875,0.8542299270629883,1.4108060598373413,0.05306565389037132
1771681653009549800,1.8225498046875,0.17331409454345703,0.31690192222595215,-0.27894625067710876
1771681653019907600,1.832907470703125,-0.16785907745361328,-1.5140001773834229,0.13674068450927734
1771681653030265300,1.843265380859375,0.44923973083496094,0.264426589012146,0.41486942768096924
1771681653040623000,1.853623046875,0.28229808807373047,0.7227367162704468,-0.2295684516429901
1771681653050980900,1.86398095703125,-0.7945308685302734,-0.8635075092315674,-0.40408653020858765
1771681653061338600,1.874338623046875,-0.17361164093017578,-0.2954748868942261,-0.4760538935661316
1771681653071696400,1.8846962890625,0.6576499938964844,0.5697227716445923,-0.11668063700199127
1771681653082054100,1.89505419921875,-0.5974760055541992,-0.028444528579711914,0.00014789821580052376
1771681653092412000,1.905411865234375,-0.1253528594970703,-0.9347720146179199,-0.5766769647598267
1771681653102769700,1.915769775390625,-0.007998466491699219,0.39306640625,-0.28362542390823364
1771681653113127400,1.92612744140625,0.4250192642211914,0.8098177909851074,-0.3377635180950165
1771681653123485200,1.936485107421875,-0.28635406494140625,-0.9224422574043274,0.11262135207653046
1771681653133843000,1.946843017578125,-0.20608139038085938,0.10989320278167725,0.22996608912944794
1771681653144200700,1.95720068359375,0.15673542022705078,0.6161606311798096,0.23222777247428894
1771681653154558500,1.967558349609375,-0.5650463104248047,-0.7820988893508911,-0.2694622874259949
1771681653164916200,1.977916259765625,-0.033461570739746094,0.0731363296508789,-0.031055105850100517
1771681653175274000,1.98827392578125,-0.07127857208251953,1.6358100175857544,-0.13418996334075928
1771681653185631700,1.9986318359375,-0.3541145324707031,-0.4599868059158325,0.7205902338027954
1771681653195989500,2.008989501953125,-0.8208332061767578,-0.8082419633865356,-0.08973013609647751
1771681653206347300,2.01934716796875,-0.25950145721435547,0.9215425252914429,-0.4192550480365753
1771681653216705000,2.029705078125,0.17739009857177734,0.3003588914871216,-0.03879562392830849
1771681653227062800,2.040062744140625,-0.5304012298583984,-0.36778056621551514,-0.7361432313919067
1771681653237420500,2.050420654296875,0.2721433639526367,0.4481031894683838,-0.3331283926963806
1771681653247778300,2.0607783203125,-0.0031824111938476562,1.0297249555587769,-0.09682992845773697
1771681653258136000,2.071135986328125,-0.5554037094116211,-1.7414021492004395,-0.5139604806900024
1771681653268493800,2.081493896484375,0.21873188018798828,1.2549198865890503,0.006867144722491503
1771681653278851600,2.0918515625,0.5720272064208984,1.1781928539276123,0.5231108665466309
1771681653289209300,2.102209228515625,-0.7355661392211914,-1.3337054252624512,0.801166296005249
1771681653299567000,2.112567138671875,-1.091348648071289,0.1258760690689087,-0.6679061651229858
1771681653309924900,2.1229248046875,1.3491573333740234,1.5055851936340332,-0.132900208234787
1771681653320282600,2.13328271484375,-0.9935283660888672,-0.28303706645965576,0.08828770369291306
1771681653330640400,2.143640380859375,0.3063640594482422,-1.606415867805481,-0.41823357343673706
1771681653340998100,2.153998046875,0.6829109191894531,2.1893327236175537,-0.32169580459594727
1771681653351356000,2.16435595703125,0.35286808013916016,0.13072681427001953,0.16911236941814423
1771681653361713700,2.174713623046875,-0.689326286315918,-2.7031500339508057,-0.5326417088508606
1771681653372071400,2.185071533203125,-0.11724185943603516,1.5479094982147217,-0.47099569439888
1771681653382429400,2.195429443359375,1.0924968719482422,1.3588727712631226,0.3008475601673126
1771681653392787200,2.205787109375,-0.972224235534668,-2.065826654434204,0.9776301383972168
1771681653403144700,2.216144775390625,0.5940113067626953,0.8042445182800293,-0.01828008145093918
1771681653413502700,2.226502685546875,1.159280776977539,1.6146336793899536,0.15504133701324463
1771681653423860500,2.236860595703125,-0.6751766204833984,-1.3979172706604004,0.8512574434280396
1771681653434218200,2.24721826171875,0.7328758239746094,0.49797236919403076,-0.3272458612918854
1771681653444576000,2.257575927734375,0.6977386474609375,1.7896246910095215,0.13363231718540192
1771681653454933800,2.267933837890625,-0.9344949722290039,-2.069375514984131,0.1344822198152542
1771681653465291500,2.27829150390625,0.7439680099487305,0.7250407934188843,-0.8691062927246094
1771681653475649300,2.288649169921875,0.7708244323730469,2.0129308700561523,-0.22603298723697662
1771681653486007000,2.299007080078125,-0.5066957473754883,-2.1129608154296875,-0.11677107959985733
1771681653496364800,2.30936474609375,-0.20174694061279297,-1.1057060956954956,-0.6025657057762146
1771681653506722600,2.31972265625,1.114914894104004,1.9951375722885132,-0.8371500372886658
1771681653517080300,2.330080322265625,0.04736518859863281,-0.39277541637420654,0.3226565420627594
1771681653527438000,2.34043798828125,0.42647838592529297,-2.1899819374084473,0.5372623205184937
1771681653537795800,2.3507958984375,1.0572690963745117,1.6088401079177856,-0.44796866178512573
1771681653548153600,2.361153564453125,0.4996652603149414,0.21370673179626465,0.013246312737464905
1771681653558511400,2.371511474609375,0.4597597122192383,-1.3379573822021484,-0.01206117495894432
1771681653568869000,2.381869140625,0.3610973358154297,1.3186736106872559,-0.6570592522621155
1771681653579227000,2.392226806640625,-1.5240793228149414,-0.21933889389038086,-0.5863060355186462
1771681653589584600,2.402584716796875,-1.3977556228637695,-1.2206586599349976,0.3519666790962219
1771681653599942400,2.4129423828125,-1.2730579376220703,1.015574336051941,0.19715046882629395
1771681653610300200,2.423300048828125,-0.29613304138183594,0.6905639171600342,-0.41888150572776794
1771681653620658000,2.433657958984375,0.25561046600341797,-0.9593369960784912,-0.12722450494766235
1771681653631015700,2.444015625,-0.6877985000610352,-0.059769272804260254,-0.37122154235839844
1771681653641373400,2.45437353515625,-0.5574922561645508,0.5337432622909546,0.10988523066043854
1771681653651731200,2.464731201171875,-0.9295225143432617,0.6743049621582031,0.09560633450746536
1771681653662089000,2.4750888671875,-0.9879302978515625,0.4596738815307617,-0.07434845715761185
1771681653672446700,2.48544677734375,-0.37364864349365234,-0.13834881782531738,-0.11456891149282455
1771681653682804500,2.495804443359375,-0.2653493881225586,1.0682175159454346,0.3328179717063904
1771681653693162200,2.506162353515625,-0.44444751739501953,0.23545336723327637,0.5045167803764343
1771681653703520000,2.51652001953125,-1.6086549758911133,-1.3039380311965942,0.977929413318634
1771681653713877800,2.526877685546875,0.49273109436035156,0.37367820739746094,0.6776545643806458
1771681653724235500,2.537235595703125,-1.2314262390136719,0.08504366874694824,0.1993451863527298
1771681653734593300,2.54759326171875,0.3790721893310547,-0.057543158531188965,1.009896159172058
1771681653744951000,2.557950927734375,-0.3377962112426758,0.5121475458145142,-0.4737972617149353
1771681653755308800,2.568308837890625,-0.11084556579589844,0.1668252944946289,-1.2696021795272827
1771681653765666600,2.57866650390625,-1.3243112564086914,0.08702266216278076,-0.12290839850902557
1771681653776024300,2.5890244140625,0.4219036102294922,1.1227079629898071,-0.9662211537361145
1771681653786382000,2.599382080078125,1.657505989074707,0.33571815490722656,-0.025821715593338013
1771681653796739800,2.60973974609375,0.8950862884521484,-1.5975507497787476,1.0905966758728027
1771681653807097600,2.62009765625,0.24599075317382812,0.1969897747039795,0.21194793283939362
1771681653817455400,2.630455322265625,0.45447826385498047,0.6875284910202026,-0.1181887537240982
1771681653827813000,2.640813232421875,-1.6640310287475586,-1.0947198867797852,0.6540126204490662
1771681653838171000,2.6511708984375,1.1181726455688477,1.677998661994934,0.25529396533966064
1771681653848528600,2.661528564453125,-1.5952739715576172,0.7468053102493286,-0.12065297365188599
1771681653858886400,2.671886474609375,-0.028041839599609375,-1.0657739639282227,1.338250756263733
1771681653869244200,2.682244140625,0.15517425537109375,1.0422170162200928,0.22367607057094574
1771681653879602000,2.692601806640625,1.905984878540039,0.8849482536315918,0.5134919285774231
1771681653889959700,2.702959716796875,0.6284799575805664,-1.2593421936035156,0.7966241836547852
1771681653900317400,2.7133173828125,0.36593055725097656,0.9858288764953613,0.15015684068202972
1771681653910675200,2.72367529296875,0.24508190155029297,0.19705510139465332,0.4853062033653259
1771681653921033000,2.734032958984375,-0.9380455017089844,-0.9142559766769409,0.8301738500595093
1771681653931390700,2.744390625,-0.20328998565673828,0.4429675340652466,0.22590215504169464
1771681653941748500,2.75474853515625,0.5337839126586914,-0.34107887744903564,0.6870012283325195
1771681653952106200,2.765106201171875,1.101161003112793,0.5772161483764648,-0.20107150077819824
1771681653962464000,2.775464111328125,0.5890798568725586,0.02568674087524414,0.09016340970993042
1771681653972821800,2.78582177734375,1.133016586303711,-0.04785418510437012,-0.6189301609992981
1771681653983179500,2.796179443359375,0.8687381744384766,1.6508630514144897,-0.17265476286411285
1771681653993537300,2.806537353515625,-0.9340848922729492,-0.7614412307739258,0.6342706680297852
1771681654003895000,2.81689501953125,-1.383279800415039,0.30151867866516113,0.4802234172821045
1771681654014252800,2.827252685546875,-0.4438638687133789,1.0669819116592407,0.45152199268341064
1771681654024610600,2.837610595703125,-1.1194829940795898,-0.44439756870269775,-0.8271530270576477
1771681654034968300,2.84796826171875,1.7902441024780273,0.9840781688690186,-0.7310253381729126
1771681654045326000,2.858326171875,1.3467388153076172,1.4383784532546997,0.3677772581577301
1771681654055683800,2.868683837890625,0.48839569091796875,-2.0774567127227783,0.29470404982566833
1771681654066041600,2.87904150390625,1.0586280822753906,0.6053953170776367,-0.422274112701416
1771681654076399400,2.8893994140625,-1.5631828308105469,0.9244253635406494,-0.616520345211029
1771681654086757000,2.899757080078125,-0.015024185180664062,-1.222328782081604,-0.5865599513053894
1771681654097115000,2.910114990234375,-0.8806085586547852,1.5082048177719116,-0.04801127314567566
1771681654107472600,2.92047265625,0.11900043487548828,-0.95212721824646,0.6259572505950928
1771681654117830400,2.930830322265625,-0.6541557312011719,0.4430961608886719,0.41988247632980347
1771681654128188200,2.941188232421875,-0.1896371841430664,0.6462795734405518,0.422585666179657
1771681654138546000,2.9515458984375,0.2209606170654297,-1.4346836805343628,-0.38445809483528137
1771681654148903700,2.961903564453125,0.8184165954589844,1.319669485092163,-0.24324244260787964
1771681654159261400,2.972261474609375,1.0964622497558594,0.04552412033081055,-0.4182848334312439
1771681654169619200,2.982619140625,-0.17583370208740234,-0.9403461813926697,-0.8803234696388245
1771681654179977200,2.992977294921875,-0.1704549789428711,0.8294061422348022,0.5139594674110413
1771681654190335000,3.0033349609375,-1.2069587707519531,-1.0100319385528564,-0.563284695148468
1771681654200692700,3.013692626953125,-0.5229425430297852,0.9948534965515137,-0.22120769321918488
1771681654211050500,3.024050537109375,-0.6141223907470703,0.8342262506484985,0.11579634994268417
1771681654221408300,3.034408203125,0.04171466827392578,-1.6484109163284302,1.0118108987808228
1771681654231766000,3.04476611328125,0.1346912384033203,0.715368390083313,0.48132961988449097
1771681654242123800,3.055123779296875,0.9521713256835938,-0.09093344211578369,0.6992154717445374
1771681654252481500,3.0654814453125,0.7655315399169922,0.08954358100891113,0.7950590252876282
1771681654262839300,3.07583935546875,0.6295433044433594,0.755892276763916,0.8537324070930481
1771681654273197000,3.086197021484375,-1.0008211135864258,-1.9126003980636597,1.1385858058929443
1771681654283554800,3.096554931640625,-0.8396892547607422,1.1188277006149292,0.0682237297296524
1771681654293912600,3.10691259765625,-0.4860982894897461,-0.35448265075683594,-0.12439753115177155
1771681654304270300,3.117270263671875,-1.2804241180419922,-0.4939063787460327,-0.1499994695186615
1771681654314628000,3.127628173828125,0.11673831939697266,0.6970356702804565,0.6033417582511902
1771681654324985900,3.13798583984375,-0.6608695983886719,-0.6535334587097168,0.2931022047996521
1771681654335343600,3.148343505859375,0.9607629776000977,1.1052258014678955,0.2737979292869568
1771681654345701400,3.158701416015625,-0.4064950942993164,-0.7255138754844666,0.9668100476264954
1771681654356059100,3.16905908203125,0.3224143981933594,-0.14925408363342285,0.6192762851715088
1771681654366417000,3.1794169921875,0.008668899536132812,1.6297518014907837,-0.6770334243774414
1771681654376774700,3.189774658203125,-0.5183019638061523,-1.8034027814865112,-0.31849032640457153
1771681654387132400,3.20013232421875,0.48040771484375,-0.617514967918396,-0.8224179744720459
1771681654397490200,3.210490234375,0.7144355773925781,1.6846526861190796,-0.427371084690094
1771681654407848000,3.220847900390625,0.9026336669921875,0.2712056636810303,0.20868133008480072
1771681654418205700,3.231205810546875,0.17953109741210938,-0.19774150848388672,0.2469940185546875
1771681654428563500,3.2415634765625,0.33172607421875,-0.5293093919754028,0.32371217012405396
1771681654438921200,3.251921142578125,1.7589702606201172,0.4285229444503784,0.19399608671665192
1771681654449279000,3.262279052734375,-1.2501516342163086,-0.19030964374542236,0.05876156687736511
1771681654459636700,3.27263671875,0.22304534912109375,-0.4069042205810547,0.7134655714035034
1771681654469994500,3.282994384765625,-0.9253301620483398,0.7155190706253052,0.11891422420740128
1771681654480352300,3.293352294921875,-0.08026981353759766,0.2760211229324341,-0.35569626092910767
1771681654490710000,3.3037099609375,1.2080278396606445,1.505191683769226,-0.715315043926239
1771681654501067800,3.31406787109375,-0.591853141784668,0.16470396518707275,-0.28355616331100464
1771681654511425500,3.324425537109375,-0.08397674560546875,-1.3545888662338257,-0.2725909352302551
1771681654521783300,3.334783203125,0.06182098388671875,1.2109414339065552,-0.9247539639472961
1771681654532141000,3.34514111328125,0.061679840087890625,-0.5485926866531372,0.36249327659606934
1771681654542498800,3.355498779296875,1.1230993270874023,0.004927158355712891,0.08870033919811249
1771681654552856600,3.365856689453125,-0.2972755432128906,0.29105985164642334,0.35080742835998535
1771681654563214300,3.37621435546875,-0.20064353942871094,-1.2217414379119873,0.5662328600883484
1771681654573572400,3.386572265625,-0.7133369445800781,1.1627075672149658,-0.4258151352405548
1771681654583930000,3.39693017578125,0.6624546051025391,0.5479371547698975,0.10513537377119064
1771681654594287900,3.407287841796875,-0.2892112731933594,-0.09243214130401611,-1.1672542095184326
1771681654604645600,3.417645751953125,-0.10449409484863281,-0.20488810539245605,0.3262803554534912
1771681654615016000,3.428015869140625,3.2306251525878906,0.9994029998779297,-0.5315378904342651
1771681654625361200,3.438361083984375,-2.175135612487793,0.4024379253387451,0.19729965925216675
1771681654635739400,3.448739501953125,1.6393728256225586,-1.291762351989746,0.029593124985694885
1771681654646076700,3.45907666015625,-2.4841442108154297,0.3951183557510376,-0.4074152708053589
1771681654656463000,3.469463134765625,-0.7482872009277344,-0.024259090423583984,-0.41940170526504517
1771681654666792200,3.479792236328125,-2.1442313194274902,0.4188958406448364,0.36470478773117065
1771681654677156400,3.49015625,0.8195409774780273,1.3330919742584229,0.11140496283769608
1771681654687507700,3.5005078125,0.9410381317138672,0.03135550022125244,0.2616199851036072
1771681654697879800,3.5108798828125,-0.29465579986572266,-1.3170528411865234,0.43502378463745117
1771681654708223200,3.52122314453125,1.6458721160888672,-0.5768909454345703,0.5958712697029114
1771681654718603500,3.531603515625,0.34267520904541016,1.3233706951141357,-0.3974924683570862
1771681654728938800,3.541938720703125,-1.1779260635375977,0.27896010875701904,-0.14975465834140778
1771681654739296500,3.552296630859375,0.3149251937866211,-1.4268863201141357,0.23842522501945496
1771681654749654300,3.562654296875,-0.26609134674072266,0.22808599472045898,-0.41004806756973267
1771681654760012000,3.573011962890625,1.802800178527832,1.0883976221084595,0.2251890003681183
1771681654770369800,3.583369873046875,-0.9313793182373047,-0.7643274664878845,0.8979310393333435
1771681654780727600,3.5937275390625,0.7994775772094727,-0.7599842548370361,0.9858155846595764
1771681654791085300,3.604085205078125,1.2747373580932617,-0.45992231369018555,0.6890349984169006
1771681654801443000,3.614443115234375,1.4909486770629883,0.3426011800765991,0.4192923307418823
1771681654811800800,3.62480078125,0.9742364883422852,-0.8858345150947571,-0.32598912715911865
1771681654822158600,3.63515869140625,-0.16351985931396484,-0.7299227118492126,0.5637848973274231
1771681654832516400,3.645516357421875,0.9779500961303711,0.5718340873718262,0.34954512119293213
1771681654842874000,3.6558740234375,-0.3129091262817383,0.9482976198196411,0.43699777126312256
1771681654853231900,3.66623193359375,-0.6001081466674805,-0.9372893571853638,1.0516198873519897
1771681654863589600,3.676589599609375,0.43998241424560547,-0.6483484506607056,0.7844085693359375
1771681654873947400,3.686947509765625,0.34380340576171875,0.018563389778137207,0.7751507759094238
1771681654884305200,3.69730517578125,1.6530771255493164,1.2115478515625,-0.4446742534637451
1771681654894663000,3.707662841796875,-0.7825307846069336,-1.2638314962387085,-0.508217453956604
1771681654905020700,3.718020751953125,-0.6007471084594727,0.4969440698623657,-0.5499923825263977
1771681654915378400,3.72837841796875,-0.14325237274169922,1.3970067501068115,0.6197394132614136
1771681654925736200,3.738736083984375,-1.1208629608154297,-1.4193403720855713,0.4197658896446228
1771681654936094000,3.749093994140625,-0.4089698791503906,0.9819881916046143,0.613526463508606
1771681654946451700,3.75945166015625,0.5129890441894531,0.247603178024292,1.0144234895706177
1771681654956809500,3.7698095703125,-0.6196174621582031,-0.2918161153793335,0.1771136224269867
1771681654967167200,3.780167236328125,-0.06200599670410156,-0.08072984218597412,0.32212746143341064
1771681654977525200,3.790525146484375,1.7609119415283203,0.6029491424560547,-0.6056829690933228
1771681654987883000,3.800883056640625,-1.2412042617797852,-1.139582872390747,-0.5919538736343384
1771681654998240800,3.81124072265625,-0.049368858337402344,-0.5309885740280151,-0.027722015976905823
1771681655008598500,3.8215986328125,0.8619585037231445,1.6220264434814453,0.7143138647079468
1771681655018956300,3.831956298828125,-0.5867395401000977,-0.7027618885040283,0.8421138525009155
1771681655029314000,3.84231396484375,-0.7761602401733398,-0.3325587511062622,0.564394474029541
1771681655039671800,3.852671875,-0.3853464126586914,-0.6019043922424316,0.45010268688201904
1771681655050029600,3.863029541015625,0.30982303619384766,0.355787992477417,0.5862171649932861
1771681655060387300,3.87338720703125,-0.9461355209350586,-0.5759915113449097,0.6081570386886597
1771681655070745000,3.8837451171875,0.7013568878173828,-0.8793208599090576,0.2283964604139328
1771681655081102800,3.894102783203125,0.08889484405517578,-0.7855668663978577,0.47637033462524414
1771681655091460600,3.904460693359375,1.4654054641723633,1.3843672275543213,0.7399818897247314
1771681655101818400,3.914818359375,-0.9582090377807617,-0.6814426183700562,0.6171420812606812
1771681655112176000,3.925176025390625,0.05906105041503906,-1.7488174438476562,0.4794345200061798
1771681655122534000,3.935533935546875,0.09885215759277344,0.6439111232757568,0.6173883676528931
1771681655132891600,3.9458916015625,-0.05914592742919922,0.49798429012298584,0.4420626759529114
1771681655143249400,3.95624951171875,-1.2544193267822266,-0.9147359728813171,1.0975732803344727
1771681655153607200,3.966607177734375,0.8320589065551758,-0.6364600658416748,1.3300750255584717
1771681655163965000,3.97696484375,0.6288003921508789,1.6287966966629028,0.8409671783447266
1771681655174322700,3.98732275390625,0.05906200408935547,-1.2289193868637085,-0.036046624183654785
1771681655184680400,3.997680419921875,0.975245475769043,-1.4972000122070312,-0.10806623101234436
1771681655195038200,4.0080380859375,-0.6386089324951172,0.21332132816314697,1.1414071321487427
1771681655205396000,4.01839599609375,2.007084846496582,-0.8143227100372314,0.3073842525482178
1771681655215753700,4.028753662109375,-1.1343278884887695,-0.5289888381958008,1.1077966690063477
1771681655226111500,4.039111572265625,0.9470272064208984,-0.8742761015892029,-0.01385517418384552
1771681655236469200,4.04946923828125,-1.4041528701782227,0.4830070734024048,-0.09415306150913239
1771681655246827000,4.059826904296875,0.05021190643310547,-1.435052752494812,-0.06499487161636353
1771681655257184800,4.070184814453125,-0.32497596740722656,0.8069099187850952,-0.33361297845840454
1771681655267542500,4.08054248046875,1.035879135131836,-0.7944817543029785,-0.866486668586731
1771681655277900300,4.090900390625,0.5603609085083008,-0.5069173574447632,0.17719456553459167
1771681655288258000,4.101258056640625,0.604090690612793,-1.2825795412063599,0.2971644401550293
1771681655298615800,4.11161572265625,1.2825250625610352,-0.05159568786621094,0.37508368492126465
1771681655308973600,4.1219736328125,-0.8903684616088867,-1.0554217100143433,1.010393738746643
1771681655319331300,4.132331298828125,0.7468395233154297,-1.4969189167022705,0.007732674479484558
1771681655329689300,4.142689453125,-0.8016862869262695,0.47614479064941406,0.18425706028938293
1771681655340047000,4.153047119140625,0.12631988525390625,-0.9087831974029541,-0.08513714373111725
1771681655350404900,4.16340478515625,-0.3753194808959961,-0.600263237953186,-0.5137565732002258
1771681655360762600,4.1737626953125,-0.15001678466796875,-0.7585031390190125,0.10456280410289764
1771681655371120400,4.184120361328125,0.2798175811767578,0.13235557079315186,0.3537207841873169
1771681655381478100,4.19447802734375,-0.21029281616210938,-1.573508858680725,1.258387565612793
1771681655391836000,4.2048359375,-0.04510021209716797,-0.927165150642395,0.07323553413152695
1771681655402193700,4.215193603515625,0.3081684112548828,-0.8142072558403015,0.8780151009559631
1771681655412551400,4.225551513671875,0.5817756652832031,-1.1288456916809082,-0.19901372492313385
1771681655422909200,4.2359091796875,-0.20256710052490234,-0.4503285884857178,-0.21336877346038818
1771681655433267000,4.246266845703125,-0.24513912200927734,-0.9305179715156555,0.02485106885433197
1771681655443624700,4.256624755859375,-0.9868688583374023,-2.161792278289795,0.33213508129119873
1771681655453982500,4.266982421875,-0.07501697540283203,0.3354966640472412,-0.11012282967567444
1771681655464340200,4.27734033203125,0.24705886840820312,-0.2312246561050415,0.3882262706756592
1771681655474698000,4.287697998046875,-0.018614768981933594,-1.9914376735687256,-0.07106617093086243
1771681655485055700,4.2980556640625,-0.4720439910888672,-1.3635977506637573,0.8341260552406311
1771681655495413500,4.30841357421875,1.8895606994628906,0.4190171957015991,0.38838517665863037
1771681655505771300,4.318771240234375,-0.5546379089355469,-1.7461285591125488,-0.03729161620140076
1771681655516129000,4.32912890625,0.5949945449829102,-1.4827550649642944,0.44886812567710876
1771681655526486800,4.33948681640625,0.9825448989868164,0.07492721080780029,0.3359706699848175
1771681655536844500,4.349844482421875,0.020626068115234375,-1.283539891242981,-0.06226144731044769
1771681655547202300,4.360202392578125,-0.19887638092041016,-1.2858927249908447,0.3871800899505615
1771681655557560000,4.37056005859375,0.24319839477539062,0.46677398681640625,-0.10101185739040375
1771681655567917800,4.380917724609375,-0.20142650604248047,-1.0069149732589722,-0.019612759351730347
1771681655578275600,4.391275634765625,-0.36058998107910156,-0.9667355418205261,1.252296805381775
1771681655588633300,4.40163330078125,0.6979703903198242,-0.3847801685333252,2.8066024780273438
1771681655598991400,4.411991455078125,0.33655738830566406,-0.18848049640655518,3.4855971336364746
1771681655609349000,4.42234912109375,2.092344284057617,-1.2294418811798096,2.7886996269226074
1771681655619707000,4.432706787109375,1.4713497161865234,-1.4688156843185425,1.855715036392212
1771681655630064600,4.443064697265625,0.6848154067993164,-1.5826811790466309,1.5638511180877686
1771681655640422400,4.45342236328125,-1.8995561599731445,-0.5254197120666504,1.8738030195236206
1771681655650780200,4.4637802734375,-1.4206571578979492,-2.103740930557251,1.0759683847427368
1771681655661138000,4.474137939453125,0.4175262451171875,-0.8018500804901123,0.6385161280632019
1771681655671495700,4.48449560546875,-1.2169809341430664,-0.6060469150543213,0.2155582457780838
1771681655681853400,4.494853515625,1.040487289428711,-2.0916240215301514,-0.49626079201698303
1771681655692211200,4.505211181640625,-1.331526756286621,-0.1931842565536499,-0.7953419089317322
1771681655702569000,4.51556884765625,4.105827331542969,-1.6544421911239624,-1.3929704427719116
1771681655712926700,4.5259267578125,-2.165745258331299,-0.7492941617965698,-0.3994051516056061
1771681655723284500,4.536284423828125,-0.28928661346435547,-0.9288241267204285,-1.1823649406433105
1771681655733642200,4.546642333984375,1.9006538391113281,-1.345463752746582,-1.2591359615325928
1771681655744000000,4.557,-0.3027801513671875,-0.8855746984481812,-0.3590173125267029
1771681655754357800,4.567357666015625,-0.9718961715698242,-1.0982882976531982,-0.5856081247329712
1771681655764715500,4.577715576171875,1.1613273620605469,-1.6348328590393066,-0.5210170745849609
1771681655775073300,4.5880732421875,-0.7527828216552734,-0.7865883111953735,-0.0490855947136879
1771681655785431000,4.59843115234375,0.27425289154052734,-1.5825786590576172,-0.5165889859199524
1771681655795788800,4.608788818359375,-1.6080560684204102,-1.1333565711975098,0.30419230461120605
1771681655806146600,4.619146484375,1.3230323791503906,-1.3406323194503784,-1.1274163722991943
1771681655816504300,4.62950439453125,-0.16857337951660156,-0.48834848403930664,-1.0732102394104004
1771681655826862000,4.639862060546875,-0.13919830322265625,-1.5994518995285034,-0.8846770524978638
1771681655837219800,4.6502197265625,-0.00007915496826171875,-1.0654678344726562,0.11430853605270386
1771681655847577600,4.66057763671875,0.06209278106689453,0.14658594131469727,0.04163593053817749
1771681655857935400,4.670935302734375,-0.6612606048583984,-1.4582279920578003,0.27382785081863403
1771681655868293000,4.681293212890625,-0.25811195373535156,-1.5862361192703247,-0.09617030620574951
1771681655878651000,4.69165087890625,0.5442838668823242,0.6883054971694946,0.0787203311920166
1771681655889008600,4.702008544921875,-0.43106555938720703,-1.1459460258483887,0.1568053960800171
1771681655899366400,4.712366455078125,-0.32260704040527344,-0.9762120246887207,0.4864761233329773
1771681655909724200,4.72272412109375,-0.7966718673706055,-0.15577423572540283,0.3650917112827301
1771681655920082000,4.73308203125,0.6851396560668945,-0.654333233833313,-1.5156985521316528
1771681655930440000,4.74343994140625,-1.3785438537597656,-0.8332170844078064,-0.49573567509651184
1771681655940797700,4.753797607421875,1.8760862350463867,-1.0976874828338623,-0.15379396080970764
1771681655951155500,4.764155517578125,-0.9617042541503906,-0.3579927682876587,0.46266916394233704
1771681655961513200,4.77451318359375,1.2587547302246094,-1.6903687715530396,1.0963165760040283
1771681655971871000,4.78487109375,-1.3041677474975586,-0.25089049339294434,0.9446752071380615
1771681655982228700,4.795228759765625,0.2201375961303711,0.5461270809173584,1.1138712167739868
1771681655992586500,4.80558642578125,0.0952911376953125,-0.6598740816116333,0.8353204727172852
1771681656002944300,4.8159443359375,-0.7019166946411133,-0.31331026554107666,0.5501071214675903
1771681656013302000,4.826302001953125,0.5758848190307617,-0.2313748598098755,0.6196717619895935
1771681656023659800,4.83665966796875,-0.0741281509399414,-1.1937978267669678,-0.21164554357528687
1771681656034017500,4.847017578125,-0.5194931030273438,-1.3261064291000366,0.5844907164573669
1771681656044375300,4.857375244140625,0.689366340637207,-0.2957477569580078,-0.14203959703445435
1771681656054733000,4.867733154296875,0.5948562622070312,-0.5567187070846558,-0.9870780110359192
1771681656065090800,4.8780908203125,-0.10853290557861328,-1.1584246158599854,-0.3410004675388336
1771681656075448600,4.888448486328125,0.974329948425293,-0.8022257089614868,-0.6875649094581604
1771681656085806300,4.898806396484375,0.06336021423339844,-0.7903947830200195,-1.1079285144805908
1771681656096164000,4.9091640625,0.48092174530029297,0.9465267658233643,-1.3995987176895142
1771681656106521900,4.91952197265625,-1.034499168395996,-0.3801596164703369,-0.4373985528945923
1771681656116879600,4.929879638671875,3.1798324584960938,-1.2035471200942993,-0.4991459846496582
1771681656127237400,4.9402373046875,-1.6997509002685547,-1.1738744974136353,-0.6960710883140564
1771681656137595100,4.95059521484375,1.1322221755981445,-0.12638354301452637,-1.85487699508667
1771681656147953000,4.960952880859375,-1.3802251815795898,-0.997464120388031,-0.783187747001648
1771681656158310700,4.971310546875,0.671330451965332,-0.5506608486175537,-1.0177615880966187
1771681656168668400,4.98166845703125,-3.19693660736084,-0.186287522315979,-0.3227318823337555
1771681656179026200,4.992026123046875,-1.8261666297912598,-0.1699749231338501,-0.7645435333251953
1771681656189384000,5.002384033203125,5.709110260009766,-0.45273900032043457,0.40473222732543945
1771681656199741700,5.01274169921875,0.44242000579833984,-0.1298891305923462,1.2595092058181763
1771681656210099500,5.023099365234375,2.002349853515625,0.4254964590072632,1.7160614728927612
1771681656220457200,5.033457275390625,0.8941240310668945,-0.39328283071517944,0.7189620137214661
1771681656230815000,5.04381494140625,2.737283706665039,1.3786569833755493,1.10594642162323
1771681656241172700,5.0541728515625,-0.1968059539794922,0.3344755172729492,0.21179184317588806
1771681656251530800,5.06453076171875,-1.1377086639404297,1.3401832580566406,-0.10373586416244507
1771681656261888500,5.074888427734375,-2.5491018295288086,0.7200851440429688,-0.16821351647377014
1771681656272246300,5.085246337890625,0.7376613616943359,0.7940095663070679,0.1973974108695984
1771681656282604000,5.09560400390625,-4.266026496887207,0.30007457733154297,-0.08870846033096313
1771681656292961800,5.1059619140625,-0.16335678100585938,0.49513673782348633,0.2322063446044922
1771681656303319600,5.116319580078125,-0.8843936920166016,0.8317863941192627,0.687908411026001
1771681656313677300,5.12667724609375,1.024332046508789,1.0701452493667603,-0.007288932800292969
1771681656324035000,5.13703515625,-1.0965118408203125,0.5034215450286865,-0.21331973373889923
1771681656334392800,5.147392822265625,0.7746315002441406,0.9828331470489502,-0.3626120984554291
1771681656344750600,5.15775048828125,-2.0095138549804688,0.181257963180542,0.4373047351837158
1771681656355108400,5.1681083984375,-1.148972511291504,0.39277470111846924,0.6727535724639893
1771681656365466000,5.178466064453125,0.17466259002685547,0.5012431144714355,0.6333719491958618
1771681656375824000,5.188823974609375,1.067697525024414,-1.2225438356399536,3.6073014736175537
1771681656386181600,5.199181640625,0.5692958831787109,0.6555012464523315,0.47402867674827576
1771681656396539400,5.209539306640625,0.18447399139404297,-1.6599570512771606,1.506935954093933
1771681656406897200,5.219897216796875,-1.533339500427246,0.077362060546875,0.2943733334541321
1771681656417255000,5.2302548828125,4.15772819519043,1.1766698360443115,-0.34455162286758423
1771681656427612700,5.24061279296875,-0.7636375427246094,0.5513640642166138,0.9872492551803589
1771681656437970400,5.250970458984375,3.0522594451904297,-0.7448282241821289,1.571559190750122
1771681656448328200,5.261328125,-2.0423192977905273,0.241929292678833,0.1886862814426422
1771681656458686000,5.27168603515625,3.770082473754883,0.5524667501449585,-0.1808588206768036
1771681656469043700,5.282043701171875,-2.7887892723083496,0.1273500919342041,0.19477403163909912
1771681656479401500,5.2924013671875,2.868252754211426,1.203583002090454,-0.18174099922180176
1771681656489759500,5.302759521484375,-1.1062421798706055,1.1409591436386108,-0.9220601916313171
1771681656500117200,5.3131171875,1.9132966995239258,0.7846487760543823,-0.149875670671463
1771681656510475000,5.32347509765625,-0.3377256393432617,0.6670727729797363,-0.10537216067314148
1771681656520832800,5.333832763671875,2.8280506134033203,-0.5772936940193176,1.8960100412368774
1771681656531190500,5.3441904296875,-1.4205188751220703,-0.39138150215148926,0.6406336426734924
1771681656541548300,5.35454833984375,2.017820358276367,0.7221559286117554,-0.6764947175979614
1771681656551906000,5.364906005859375,-2.0234155654907227,-0.3025924563407898,-0.27270951867103577
1771681656562263800,5.375263916015625,1.3327274322509766,-0.45432567596435547,-0.4365779161453247
1771681656572621600,5.38562158203125,0.5681095123291016,0.6783056259155273,0.21863049268722534
1771681656582979300,5.395979248046875,1.8557157516479492,0.6762403249740601,-0.4183875322341919
1771681656593337000,5.406337158203125,0.7081089019775391,-0.40103381872177124,0.8808231353759766
1771681656603694800,5.41669482421875,0.000202178955078125,-0.40041887760162354,0.5031359195709229
1771681656614052600,5.427052490234375,-0.7132139205932617,-0.7748068571090698,1.2269302606582642
1771681656624410400,5.437410400390625,0.7760105133056641,1.056375503540039,0.42687201499938965
1771681656634768100,5.44776806640625,-1.2213048934936523,-0.985370934009552,0.6919129490852356
1771681656645126000,5.4581259765625,1.4602813720703125,-0.06397688388824463,-0.5736984610557556
1771681656655483600,5.468483642578125,-0.7676124572753906,1.6630523204803467,-0.30739012360572815
1771681656665841400,5.47884130859375,2.566847801208496,1.2543803453445435,1.0236389636993408
1771681656676199200,5.48919921875,-3.112851142883301,-1.0537840127944946,0.9133371114730835
1771681656686557000,5.499556884765625,-0.5007858276367188,0.35754263401031494,0.7774717211723328
1771681656696914700,5.509914794921875,-0.1794719696044922,1.0540170669555664,0.33181703090667725
1771681656707272400,5.5202724609375,-0.7564382553100586,-0.7064647674560547,0.1201164722442627
1771681656717630200,5.530630126953125,0.7378025054931641,-1.8947160243988037,-1.00613272190094
1771681656727988000,5.540988037109375,2.509929656982422,2.5548195838928223,-1.467511773109436
1771681656738345700,5.551345703125,-1.407975196838379,1.0135910511016846,-0.6376919746398926
1771681656748703500,5.561703369140625,-1.0057315826416016,-0.5875861048698425,1.1018216609954834
1771681656759061200,5.572061279296875,-2.0030555725097656,-0.28741055727005005,1.070467233657837
1771681656769419000,5.5824189453125,1.2986087799072266,1.11638605594635,0.6236485242843628
1771681656779776800,5.59277685546875,-1.6833324432373047,0.24756455421447754,-0.31338807940483093
1771681656790134500,5.603134521484375,0.8941364288330078,0.6474889516830444,0.2595841884613037
1771681656800492300,5.6134921875,0.6055784225463867,0.775890588760376,0.3052869439125061
1771681656810850300,5.623850341796875,0.4776887893676758,1.2815734148025513,-0.3309088945388794
1771681656821208000,5.6342080078125,-0.12948226928710938,0.9135369062423706,0.4069529175758362
1771681656831565800,5.64456591796875,-0.5034961700439453,0.19218313694000244,0.7159000635147095
1771681656841923600,5.654923583984375,-1.5427494049072266,0.6700226068496704,0.3326943516731262
1771681656852281300,5.66528125,-0.061278343200683594,0.6504825353622437,0.5153835415840149
1771681656862639000,5.67563916015625,-0.16371917724609375,0.23057210445404053,-0.2491196095943451
1771681656872996900,5.685996826171875,-1.0012359619140625,-0.2070605754852295,0.11256718635559082
1771681656883354600,5.696354736328125,0.8199558258056641,1.5166316032409668,0.18320482969284058
1771681656893712400,5.70671240234375,-0.9987831115722656,0.2016763687133789,0.49955135583877563
1771681656904070100,5.717070068359375,1.5122756958007812,0.2389127016067505,-0.12355121970176697
1771681656914428000,5.727427978515625,0.856602668762207,1.2685343027114868,0.5586643815040588
1771681656924785700,5.73778564453125,1.7495040893554688,-1.2528833150863647,0.4075680375099182
1771681656935143400,5.748143310546875,-1.5895423889160156,0.34007394313812256,0.5704811811447144
1771681656945501200,5.758501220703125,1.0278759002685547,0.9322270154953003,-0.47857367992401123
1771681656955859000,5.76885888671875,-1.2567873001098633,-0.5512348413467407,-0.050147950649261475
1771681656966216700,5.779216796875,0.10190582275390625,1.8025819063186646,-1.1026591062545776
1771681656976574500,5.789574462890625,0.7266273498535156,1.2398760318756104,0.7934708595275879
1771681656986932200,5.79993212890625,-0.7885980606079102,0.09145045280456543,0.7217301726341248
1771681656997290000,5.8102900390625,1.7411041259765625,-0.8865163326263428,1.0085206031799316
1771681657007647700,5.820647705078125,-0.4233531951904297,0.7011479139328003,-0.097739577293396
1771681657018005500,5.831005615234375,1.3990659713745117,-0.7915140390396118,-0.5607218146324158
1771681657028363300,5.84136328125,-1.3255395889282227,0.9458787441253662,0.8051075339317322
1771681657038721000,5.851720947265625,1.1075773239135742,0.6862717866897583,-0.040642619132995605
1771681657049078800,5.862078857421875,-1.5498161315917969,1.2597134113311768,-0.5918722748756409
1771681657059436500,5.8724365234375,2.52573299407959,0.6698280572891235,1.181634783744812
1771681657069794300,5.882794189453125,-2.4455771446228027,-0.4244539737701416,1.1527873277664185
1771681657080152000,5.893152099609375,1.7965898513793945,0.7880958318710327,-0.21810469031333923
1771681657090509800,5.903509765625,-1.0082292556762695,-0.7685558199882507,0.7508066892623901
1771681657100867600,5.91386767578125,-0.13265609741210938,-0.3922310471534729,0.0018765926361083984
1771681657111225300,5.924225341796875,1.1799144744873047,0.6020936965942383,0.5849363207817078
1771681657121583400,5.934583251953125,-0.6949386596679688,0.2072007656097412,0.3280652165412903
1771681657131941000,5.944941162109375,-0.1520071029663086,-0.1522355079650879,0.8099974393844604
1771681657142299000,5.955298828125,0.4446401596069336,0.775323748588562,0.8923107385635376
1771681657152656600,5.96565673828125,-0.6882829666137695,0.33283913135528564,0.7599186897277832
1771681657163014400,5.976014404296875,-1.340895652770996,-0.9471747875213623,0.3795827627182007
1771681657173372200,5.9863720703125,-0.206634521484375,1.2721664905548096,-0.11877468228340149
1771681657183730000,5.99672998046875,-0.08258628845214844,0.9176597595214844,0.15051758289337158
1771681657194087700,6.007087646484375,0.1488475799560547,-0.3482095003128052,0.9623277187347412
1771681657204445400,6.017445556640625,2.2032384872436523,-0.1571899652481079,1.6717989444732666
1771681657214803200,6.02780322265625,1.2160282135009766,1.4093953371047974,0.2090504765510559
1771681657225161000,6.038160888671875,0.7758302688598633,0.23635780811309814,0.7979955673217773
1771681657235518700,6.048518798828125,-3.2073402404785156,-1.3778648376464844,-0.4441084861755371
1771681657245876500,6.05887646484375,-0.4770956039428711,0.8174514770507812,-0.5624297261238098
1771681657256234200,6.069234130859375,0.3819112777709961,0.4931485652923584,-0.35607266426086426
1771681657266592000,6.079592041015625,-0.40752410888671875,0.29947996139526367,-0.7951013445854187
1771681657276949800,6.08994970703125,0.4407529830932617,0.530368447303772,0.015914976596832275
1771681657287307500,6.1003076171875,0.5644826889038086,-0.48665767908096313,0.7743969559669495
1771681657297665300,6.110665283203125,1.2978715896606445,-1.143591284751892,0.33594831824302673
1771681657308023000,6.12102294921875,3.282954216003418,1.0445764064788818,-0.3323180675506592
1771681657318380800,6.131380859375,0.8282861709594727,1.1116814613342285,-0.038070857524871826
1771681657328738600,6.141738525390625,-1.2097387313842773,0.4503495693206787,0.14033469557762146
1771681657339096300,6.152096435546875,1.3495969772338867,0.6982109546661377,-0.14123061299324036
1771681657349454000,6.1624541015625,-1.0119209289550781,0.25384676456451416,-0.2105112224817276
1771681657359811800,6.172811767578125,-0.8750286102294922,0.7393811941146851,0.3014982044696808
1771681657370169600,6.183169677734375,-2.330939292907715,0.08025252819061279,0.25193360447883606
1771681657380527600,6.193527587890625,0.006744384765625,0.4569448232650757,-0.721784234046936
1771681657390885400,6.203885498046875,0.12383651733398438,1.101682186126709,-1.00029718875885
1771681657401243100,6.2142431640625,-1.2989130020141602,0.6336166858673096,-1.0816898345947266
1771681657411601000,6.224600830078125,0.7547073364257812,2.1180553436279297,-0.9106726050376892
1771681657421958700,6.234958740234375,-0.31623077392578125,2.0013179779052734,-0.13526588678359985
1771681657432316400,6.24531640625,-2.771742343902588,1.1029975414276123,0.3122306764125824
1771681657442674200,6.255674072265625,-0.12741565704345703,0.009774208068847656,0.5865487456321716
1771681657453032000,6.266031982421875,0.9323015213012695,-0.24077951908111572,0.8324441313743591
1771681657463389700,6.2763896484375,-1.8846650123596191,0.4252505302429199,-0.7107717990875244
1771681657473747500,6.28674755859375,-0.9089059829711914,-1.3978049755096436,-0.2377331554889679
1771681657484105200,6.297105224609375,0.6395788192749023,0.911895751953125,-0.6231435537338257
1771681657494463000,6.307462890625,0.05277729034423828,1.8876211643218994,-0.17999090254306793
1771681657504820700,6.31782080078125,-0.7235507965087891,0.7036892175674438,0.8453428745269775
1771681657515178500,6.328178466796875,1.454498291015625,0.8768620491027832,1.1230924129486084
1771681657525536300,6.338536376953125,0.8105792999267578,0.6995261907577515,-0.14778906106948853
1771681657535894000,6.34889404296875,-1.626601219177246,-0.4767700433731079,-0.9041396379470825
1771681657546251800,6.359251708984375,1.291534423828125,-0.20208775997161865,-0.5504412651062012
1771681657556609500,6.369609619140625,-0.726649284362793,2.6127376556396484,-0.31057530641555786
1771681657566967300,6.37996728515625,0.028839111328125,0.8914749622344971,0.24745026230812073
1771681657577325000,6.390324951171875,0.3243255615234375,-0.4144871234893799,1.2481096982955933
1771681657587682800,6.400682861328125,1.0842809677124023,-0.3777698874473572,0.42629706859588623
1771681657598040600,6.41104052734375,-0.16023635864257812,0.017566800117492676,0.5212159156799316
1771681657608398300,6.4213984375,-0.6117639541625977,0.32898247241973877,0.9991763234138489
1771681657618756000,6.431756103515625,-1.5181779861450195,0.9986147880554199,0.47214391827583313
1771681657629113900,6.44211376953125,0.8976564407348633,1.137953519821167,-0.6580586433410645
1771681657639471600,6.4524716796875,0.393707275390625,0.8562737703323364,-0.440936803817749
1771681657649829400,6.462829345703125,0.514439582824707,0.44658565521240234,-0.23223255574703217
1771681657660187100,6.473187255859375,0.14733314514160156,0.06760823726654053,-0.9026626944541931
1771681657670545000,6.483544921875,-0.2758140563964844,0.5341514348983765,-0.4826657176017761
1771681657680902700,6.493902587890625,-1.0952720642089844,-0.5365116596221924,0.006136223673820496
1771681657691260400,6.504260498046875,-0.2615070343017578,0.05215811729431152,-0.06195428967475891
1771681657701618400,6.514618408203125,-0.1625213623046875,0.493192195892334,-1.1201423406600952
1771681657711976200,6.52497607421875,2.146413803100586,0.015531539916992188,-1.0478324890136719
1771681657722334000,6.535333984375,-0.20470428466796875,0.6059635877609253,-1.4146870374679565
1771681657732691700,6.545691650390625,0.822352409362793,0.69693922996521,-0.9961427450180054
1771681657743049500,6.556049560546875,0.2161874771118164,1.1048418283462524,-0.9726356267929077
1771681657753407200,6.5664072265625,1.1128530502319336,0.42657196521759033,-0.9932219386100769
1771681657763765000,6.576764892578125,-1.0664091110229492,0.3859589099884033,-0.5278691053390503
1771681657774122800,6.587122802734375,-0.16622257232666016,0.15378165245056152,-0.6192740201950073
1771681657784480500,6.59748046875,-3.0549373626708984,-0.016016721725463867,-0.5277239084243774
1771681657794838300,6.60783837890625,-1.0199146270751953,-0.2756175994873047,-0.7392398118972778
1771681657805196000,6.618196044921875,-1.5604419708251953,-0.10628652572631836,-0.2765621840953827
1771681657815553800,6.6285537109375,0.212860107421875,0.20080351829528809,-0.33693721890449524
1771681657825911600,6.63891162109375,1.463444709777832,0.8390932083129883,-0.1132768839597702
1771681657836269300,6.649269287109375,0.41739368438720703,0.5840070247650146,0.43294283747673035
1771681657846627000,6.659626953125,-0.48023128509521484,0.8367205858230591,-0.15736842155456543
1771681657856984800,6.66998486328125,0.8425254821777344,0.3942415714263916,0.317120760679245
1771681657867342600,6.680342529296875,-1.2631120681762695,0.5942889451980591,0.554190993309021
1771681657877700400,6.690700439453125,0.5148372650146484,0.8029783964157104,-0.5662944316864014
1771681657888058000,6.70105810546875,-1.3447074890136719,-0.059145450592041016,-0.4111521542072296
1771681657898415900,6.711415771484375,-0.967951774597168,-0.21481740474700928,0.41986337304115295
1771681657908773600,6.721773681640625,1.0067062377929688,0.8233721256256104,-0.19047924876213074
1771681657919131400,6.73213134765625,-0.9164695739746094,1.8088083267211914,-0.5711687803268433
1771681657929489200,6.7424892578125,0.2810993194580078,2.055271625518799,-0.6890623569488525
1771681657939847000,6.752846923828125,2.146322250366211,1.7536720037460327,0.11004680395126343
1771681657950204700,6.76320458984375,1.4604568481445312,-0.7994400262832642,1.217111587524414
1771681657960562400,6.7735625,-0.45165252685546875,-0.5997194647789001,-0.03850598633289337
1771681657970920200,6.783920166015625,1.1212854385375977,-2.1343178749084473,1.6156452894210815
1771681657981278000,6.79427783203125,0.3092155456542969,2.1017050743103027,-0.17861595749855042
1771681657991635700,6.8046357421875,-3.4788084030151367,0.3470238447189331,-2.0076167583465576
1771681658001993500,6.814993408203125,-4.573784828186035,-0.8223267197608948,-0.046081021428108215
1771681658012351500,6.8253515625,0.8714513778686523,2.1181800365448,-1.515012264251709
1771681658022709200,6.835709228515625,-0.19785213470458984,3.1230361461639404,-1.5336273908615112
1771681658033067000,6.84606689453125,-0.4828786849975586,-0.13358092308044434,0.02636963129043579
1771681658043424800,6.8564248046875,1.4350414276123047,0.06299185752868652,-0.7174091339111328
1771681658053782500,6.866782470703125,-0.1826028823852539,1.9789845943450928,-0.43282678723335266
1771681658064140300,6.877140380859375,0.3573627471923828,0.7430237531661987,0.11531069874763489
1771681658074498000,6.887498046875,0.14919376373291016,0.19653570652008057,0.3587280511856079
1771681658084855800,6.897855712890625,-2.352799415588379,0.4114236831665039,-0.015011727809906006
1771681658095213600,6.908213623046875,-2.158151149749756,0.2044970989227295,-1.3908672332763672
1771681658105571300,6.9185712890625,-1.0553150177001953,0.20629894733428955,-0.6644099950790405
1771681658115929000,6.92892919921875,0.5896396636962891,0.9166843891143799,-0.7166192531585693
1771681658126286800,6.939286865234375,1.5208911895751953,0.6175682544708252,1.3746788501739502
1771681658136644600,6.94964453125,1.760066032409668,-0.16653597354888916,0.3513563275337219
1771681658147002400,6.96000244140625,0.5280447006225586,0.056458115577697754,-0.48948368430137634
1771681658157360000,6.970360107421875,0.1558399200439453,-0.7344661951065063,0.2582623362541199
1771681658167718000,6.9807177734375,-0.6484613418579102,-0.4723621606826782,0.39190930128097534
1771681658178075600,6.99107568359375,-1.2172136306762695,0.5091817378997803,-0.06537064909934998
1771681658188433400,7.001433349609375,0.5057277679443359,0.6093173027038574,-0.23887571692466736
1771681658198791200,7.011791259765625,-1.6326112747192383,-0.058704376220703125,-0.1206880658864975
1771681658209149000,7.02214892578125,-2.9728713035583496,-0.7739484310150146,0.04991002380847931
1771681658219506700,7.032506591796875,-0.002269744873046875,-1.3883863687515259,0.8851631879806519
1771681658229864400,7.042864501953125,-1.9302000999450684,-0.4325089454650879,-0.07355896383523941
1771681658240222200,7.05322216796875,2.0994434356689453,-1.704545259475708,1.2539993524551392
1771681658250580000,7.063580078125,1.1858797073364258,-2.1420693397521973,0.891883909702301
1771681658260937700,7.073937744140625,0.10963821411132812,-1.3423148393630981,0.5777184367179871
1771681658271295500,7.08429541015625,-0.3773174285888672,-1.6803125143051147,-0.16377688944339752
1771681658281653500,7.094653564453125,-3.2988500595092773,-1.6878676414489746,-0.6287283897399902
1771681658292011300,7.10501123046875,-3.3642892837524414,-0.7873117327690125,-0.8396137952804565
1771681658302369000,7.115369140625,1.7387304306030273,-2.7661375999450684,-0.7789456844329834
1771681658312726800,7.125726806640625,-2.508251190185547,-1.2002980709075928,0.17487309873104095
1771681658323084500,7.13608447265625,2.8673572540283203,-1.125659465789795,0.537205696105957
1771681658333442300,7.1464423828125,-1.4470863342285156,-1.155387282371521,-0.9941428303718567
1771681658343800000,7.156800048828125,6.879591941833496,-2.572403907775879,-1.0764925479888916
1771681658354157800,7.16715771484375,0.04661273956298828,-1.9202982187271118,-0.21456114947795868
1771681658364515600,7.177515625,1.4296865463256836,-0.715889573097229,-0.6722750663757324
1771681658374873300,7.187873291015625,0.300994873046875,-1.4414548873901367,-0.7021898627281189
1771681658385231000,7.198231201171875,-0.15401458740234375,-1.2953397035598755,0.9225540161132812
1771681658395588900,7.2085888671875,2.438654899597168,-0.955518364906311,-0.786455512046814
1771681658405946600,7.218946533203125,-3.9409265518188477,-0.25459766387939453,0.5986620187759399
1771681658416304400,7.229304443359375,1.2793245315551758,-0.4386553168296814,-0.5431420803070068
1771681658426662100,7.239662109375,0.017935752868652344,-1.2516063451766968,-0.3997384309768677
1771681658437020000,7.25002001953125,0.3446483612060547,-1.8395155668258667,-0.7766246795654297
1771681658447377700,7.260377685546875,1.6924257278442383,-1.4961657524108887,-0.7726786136627197
1771681658457735400,7.2707353515625,0.9457616806030273,-0.8585097789764404,-0.09377240389585495
1771681658468093200,7.28109326171875,0.13199138641357422,-1.8714897632598877,-0.10204315930604935
1771681658478451000,7.291450927734375,0.1557474136352539,-1.692138910293579,-0.06378191709518433
1771681658488808700,7.30180859375,0.40862178802490234,-1.0138309001922607,0.08521036803722382
1771681658499166500,7.31216650390625,0.6177692413330078,-1.2457937002182007,-0.1634831726551056
1771681658509524200,7.322524169921875,0.48282718658447266,-2.134622573852539,0.5456875562667847
1771681658519882000,7.332882080078125,0.505579948425293,0.5408669710159302,-0.09046454727649689
1771681658530239700,7.34323974609375,0.8171443939208984,-1.927316427230835,1.3781317472457886
1771681658540597500,7.353597412109375,0.2760343551635742,-2.047185182571411,0.34980884194374084
1771681658550955300,7.363955322265625,1.7245283126831055,-0.16194570064544678,-0.23655036091804504
1771681658561313000,7.37431298828125,-0.6375761032104492,-1.2483211755752563,-0.5028213858604431
1771681658571670800,7.3846708984375,-0.32773494720458984,-0.1595209836959839,-0.7062364220619202
1771681658582028500,7.395028564453125,-0.8111515045166016,-2.2665295600891113,-0.6568794846534729
1771681658592386300,7.40538623046875,0.9502716064453125,0.21923255920410156,0.25874805450439453
1771681658602744000,7.415744140625,0.3990507125854492,-1.3432806730270386,0.09572115540504456
1771681658613102000,7.42610205078125,1.5965604782104492,-0.7288491129875183,0.2096349149942398
1771681658623459800,7.4364599609375,-0.30725860595703125,-1.3627150058746338,-0.012604355812072754
1771681658633817600,7.446817626953125,0.6533060073852539,-1.2611534595489502,-0.053837522864341736
1771681658644175400,7.45717529296875,-0.8113307952880859,-0.24941027164459229,0.21631212532520294
1771681658654533000,7.467533203125,0.6134109497070312,-1.3643561601638794,-0.4090941846370697
1771681658664891000,7.477890869140625,-1.2186098098754883,-1.2669503688812256,0.024955570697784424
1771681658675248600,7.48824853515625,-0.2893829345703125,-1.1712363958358765,0.06945554912090302
1771681658685606400,7.4986064453125,1.1627111434936523,-0.5846942663192749,0.30686765909194946
1771681658695964200,7.508964111328125,-0.3295116424560547,-1.779518485069275,0.10507543385028839
1771681658706322000,7.519322021484375,0.8004083633422852,-0.5945576429367065,0.23635166883468628
1771681658716679700,7.5296796875,-1.0012798309326172,-0.5047452449798584,-0.00015494227409362793
1771681658727037400,7.540037353515625,-0.7314958572387695,-1.2909364700317383,-0.19735309481620789
1771681658737395200,7.550395263671875,-1.030482292175293,-1.0701231956481934,-0.01425352692604065
1771681658747753000,7.5607529296875,-0.3048877716064453,-0.18789875507354736,0.5631496906280518
1771681658758110700,7.57111083984375,-0.08005237579345703,-0.9206465482711792,0.5807067155838013
1771681658768468500,7.581468505859375,0.45458126068115234,-1.3369958400726318,-0.5001698732376099
1771681658778826200,7.591826171875,0.12143516540527344,-0.5324431657791138,-0.42310503125190735
1771681658789184000,7.60218408203125,-0.08919715881347656,-2.5865678787231445,0.25035208463668823
1771681658799541800,7.612541748046875,-0.2657938003540039,0.3810187578201294,-0.1959490031003952
1771681658809899500,7.6228994140625,0.13782310485839844,-0.4808487892150879,0.13316582143306732
1771681658820257300,7.63325732421875,-0.12770843505859375,-3.3323521614074707,-0.24652425944805145
1771681658830615000,7.643614990234375,0.1541118621826172,0.26247358322143555,-1.7396612167358398
1771681658840972800,7.653972900390625,0.053297996520996094,-1.5622879266738892,0.6108400821685791
1771681658851330600,7.66433056640625,0.2154550552368164,-0.6293802857398987,-0.6679369211196899
1771681658861688300,7.674688232421875,-0.9667072296142578,-2.299649953842163,0.3920419216156006
1771681658872046000,7.685046142578125,1.1527891159057617,0.33955442905426025,0.6177098751068115
1771681658882403800,7.69540380859375,-0.38036632537841797,-0.6662269234657288,0.8013342618942261
1771681658892761600,7.70576171875,1.1099138259887695,-1.9242385625839233,0.05401305854320526
1771681658903119400,7.716119384765625,-0.0959625244140625,-0.8637509346008301,0.2330923080444336
1771681658913477000,7.72647705078125,1.6871156692504883,-0.8105869293212891,-0.6159316301345825
1771681658923835000,7.7368349609375,-0.35541439056396484,-1.7591381072998047,0.08869142830371857
1771681658934192600,7.747192626953125,0.2731513977050781,0.15981972217559814,-0.003359168767929077
1771681658944550400,7.75755029296875,-0.3458833694458008,-2.248018503189087,0.0902898758649826
1771681658954908400,7.767908447265625,0.9366846084594727,-0.3496880531311035,-0.027372539043426514
1771681658965266200,7.77826611328125,1.1823253631591797,-1.2161839008331299,0.40182527899742126
1771681658975624000,7.7886240234375,0.852299690246582,-0.7523529529571533,0.024542704224586487
1771681658985981700,7.798981689453125,-0.88525390625,-1.133687973022461,0.037625521421432495
1771681658996339500,7.80933935546875,0.03838348388671875,-1.3658143281936646,0.5759097933769226
1771681659006697200,7.819697265625,-0.3055248260498047,-0.6147559881210327,-0.5091619491577148
1771681659017055000,7.830054931640625,1.5833854675292969,-2.0035934448242188,-0.6014719605445862
1771681659027412700,7.840412841796875,-0.4993753433227539,-0.32419776916503906,-0.36590129137039185
1771681659037770500,7.8507705078125,2.289912223815918,-1.186578631401062,-0.357078492641449
1771681659048128300,7.861128173828125,-1.1813745498657227,-0.6166587471961975,-0.5063925981521606
1771681659058486000,7.871486083984375,-0.5003833770751953,-2.824551582336426,0.9135243892669678
1771681659068843800,7.88184375,0.720703125,1.0860830545425415,0.22824808955192566
1771681659079201500,7.892201416015625,0.37760448455810547,-1.5736156702041626,-0.3959454894065857
1771681659089559300,7.902559326171875,0.4293785095214844,-1.1586226224899292,-0.4323428273200989
1771681659099917000,7.9129169921875,-0.1324615478515625,-0.6822415590286255,0.20585505664348602
1771681659110274800,7.92327490234375,0.6389255523681641,-1.1185128688812256,0.06422266364097595
1771681659120632600,7.933632568359375,-0.41265010833740234,-1.108229160308838,-0.2838047742843628
1771681659130990300,7.943990234375,0.0921030044555664,-0.08752632141113281,0.1854981780052185
1771681659141348000,7.95434814453125,-0.08706855773925781,-1.4080407619476318,-0.37912219762802124
1771681659151705900,7.964705810546875,-0.5808229446411133,-0.8209923505783081,0.8227977752685547
1771681659162063600,7.975063720703125,-1.0304374694824219,-0.8674266338348389,0.37957364320755005
1771681659172421400,7.98542138671875,0.6261682510375977,0.5311641693115234,-0.28242945671081543
1771681659182779100,7.995779052734375,-0.587916374206543,-2.8501129150390625,-0.32288721203804016
1771681659193137000,8.006136962890626,0.5044097900390625,0.04421854019165039,-0.11932824552059174
1771681659203494700,8.01649462890625,0.8181858062744141,-1.3092269897460938,0.5200561285018921
1771681659213852400,8.026852294921875,0.21481800079345703,-1.1810063123703003,0.15010446310043335
1771681659224210200,8.037210205078125,-0.21773719787597656,-0.9778662919998169,0.15233232080936432
1771681659234568000,8.04756787109375,0.12180805206298828,-0.7376065254211426,0.07315996289253235
1771681659244926000,8.057926025390625,-0.33197975158691406,-1.0966697931289673,0.7801967859268188
1771681659255283700,8.06828369140625,0.5233125686645508,-0.1989251971244812,0.4609864354133606
1771681659265641500,8.078641357421875,-0.5880203247070312,-1.107067346572876,0.44041937589645386
1771681659275999200,8.088999267578124,-1.1642827987670898,-1.1826231479644775,-0.3335305154323578
1771681659286357000,8.09935693359375,-0.006316184997558594,0.2412470579147339,0.8278048634529114
1771681659296714800,8.10971484375,2.3159093856811523,-2.48870587348938,-0.13912999629974365
1771681659307072500,8.120072509765626,-0.4132118225097656,0.421450138092041,-1.471448540687561
1771681659317430300,8.13043017578125,-0.2165699005126953,-3.0640082359313965,1.333867073059082
1771681659327788000,8.1407880859375,0.6885490417480469,1.9807095527648926,-0.43413031101226807
1771681659338145800,8.151145751953125,-3.7793612480163574,-1.1341707706451416,-0.40375593304634094
1771681659348503600,8.161503662109375,1.0108833312988281,-2.460829257965088,-0.11328847706317902
1771681659358861300,8.171861328125,-0.4288015365600586,0.6170486211776733,-0.40825867652893066
1771681659369219000,8.182218994140625,1.0446958541870117,-1.136570930480957,-1.1086500883102417
1771681659379576800,8.192576904296875,-1.0990171432495117,-1.0635080337524414,-0.259448379278183
1771681659389934600,8.2029345703125,0.7365188598632812,-0.8695404529571533,-1.2137069702148438
1771681659400292400,8.213292236328124,0.078277587890625,-2.6954894065856934,-0.12028524279594421
1771681659410650000,8.223650146484376,0.6460943222045898,0.26219940185546875,-0.017010334879159927
1771681659421008000,8.2340078125,0.29830169677734375,-1.4441732168197632,1.2276368141174316
1771681659431365600,8.24436572265625,-1.0033283233642578,0.05434906482696533,-1.2440470457077026
1771681659441723400,8.254723388671875,-1.0463695526123047,-2.304502487182617,0.9018194675445557
1771681659452081200,8.2650810546875,-0.9722518920898438,0.1201854944229126,0.21558904647827148
1771681659462439000,8.27543896484375,1.0013628005981445,-0.19916564226150513,-0.1620885729789734
1771681659472796700,8.285796630859375,0.37326622009277344,-1.5736992359161377,-0.25898075103759766
1771681659483154400,8.296154541015625,-0.16482830047607422,-2.2633438110351562,0.20401808619499207
1771681659493512200,8.30651220703125,1.8594894409179688,-0.04396712779998779,0.5703722834587097
1771681659503870000,8.316869873046874,-0.2480487823486328,-1.3774813413619995,-0.0234559066593647
1771681659514227700,8.327227783203124,-0.3023519515991211,-0.199654221534729,0.11056108772754669
1771681659524585500,8.33758544921875,-0.9508895874023438,-1.8216452598571777,0.6870070099830627
1771681659534943200,8.347943115234376,-0.8315505981445312,-0.09410488605499268,0.5883623361587524
1771681659545301000,8.358301025390626,-1.213953971862793,-0.7296679615974426,0.4062346816062927
1771681659555658800,8.36865869140625,0.06349372863769531,-2.261214256286621,-0.33023473620414734
1771681659566016500,8.3790166015625,-1.414292335510254,1.2883872985839844,-0.9674790501594543
1771681659576374300,8.389374267578125,1.4364709854125977,-0.29034411907196045,0.5923643708229065
1771681659586732000,8.39973193359375,-0.2616844177246094,-2.651430606842041,0.45800501108169556
1771681659597090000,8.410090087890625,0.9156408309936523,-0.6586344242095947,-0.5798885226249695
1771681659607447800,8.42044775390625,1.5268173217773438,-0.2014002799987793,-1.6670331954956055
1771681659617805600,8.4308056640625,-1.8233938217163086,-1.747128963470459,0.41548916697502136
1771681659628163300,8.441163330078124,-1.262730598449707,-0.8975067734718323,0.046221502125263214
1771681659638521000,8.45152099609375,-0.6295385360717773,0.19400548934936523,0.5451121926307678
1771681659648878800,8.46187890625,0.27167701721191406,-0.37261688709259033,-0.3446104824542999
1771681659659236600,8.472236572265626,-0.8605108261108398,-2.535360336303711,-0.6360350847244263
1771681659669594400,8.482594482421876,0.7193536758422852,0.04179275035858154,-0.5367533564567566
1771681659679952100,8.4929521484375,0.9249458312988281,0.9917526245117188,1.1655949354171753
1771681659690310000,8.503309814453125,-0.4474773406982422,-2.707502841949463,-0.07047803699970245
1771681659700667600,8.513667724609375,0.7924070358276367,-0.7697168588638306,-0.24487708508968353
1771681659711025400,8.524025390625,-0.18117237091064453,0.44615089893341064,-0.13298001885414124
1771681659721383200,8.534383056640625,0.4039115905761719,-0.37460988759994507,-0.7912206053733826
1771681659731741000,8.544740966796875,-2.1916894912719727,-2.5280542373657227,-0.3165728747844696
1771681659742098700,8.5550986328125,-1.0430984497070312,0.2488689422607422,-0.5289807915687561
1771681659752456400,8.56545654296875,-0.6947708129882812,0.058645546436309814,0.5270840525627136
1771681659762814200,8.575814208984376,-0.2875823974609375,-0.6686364412307739,-1.3858076333999634
1771681659773172000,8.586171875,-0.6427726745605469,-2.382686138153076,0.18882638216018677
1771681659783529700,8.59652978515625,1.353933334350586,0.14217543601989746,0.12890823185443878
1771681659793887500,8.606887451171875,0.1234140396118164,-1.4565123319625854,-0.796061098575592
1771681659804245200,8.617245361328125,-0.25177574157714844,-2.324644088745117,-1.020622730255127
1771681659814603000,8.62760302734375,-0.2918119430541992,-0.5106804966926575,-0.3866097927093506
1771681659824960800,8.637960693359375,-0.4011249542236328,0.18558597564697266,0.4606366753578186
1771681659835318500,8.648318603515625,-0.5650291442871094,-1.0129648447036743,-0.38177490234375
1771681659845676300,8.65867626953125,-0.6784048080444336,-2.518868923187256,1.178538203239441
1771681659856034000,8.669033935546874,1.0654401779174805,0.8269745707511902,0.34524455666542053
1771681659866391800,8.679391845703124,1.3083038330078125,-0.6180917024612427,-0.6589314937591553
1771681659876749600,8.68974951171875,0.01844310760498047,-2.1406726837158203,-0.5949596166610718
1771681659887107300,8.700107421875,0.5768423080444336,-0.9267007112503052,0.353161096572876
1771681659897465000,8.710465087890626,1.198282241821289,-0.047347426414489746,-0.28688424825668335
1771681659907822800,8.72082275390625,-1.0913887023925781,-1.4140729904174805,0.8386672735214233
1771681659918180600,8.7311806640625,0.5391454696655273,-1.0021957159042358,0.49545490741729736
1771681659928538400,8.741538330078125,-0.4336671829223633,-0.05669450759887695,0.5182760953903198
1771681659938896100,8.751896240234375,-0.06265068054199219,-0.33078616857528687,0.3337874710559845
1771681659949254000,8.76225390625,-0.3703022003173828,-1.3691635131835938,-0.34349721670150757
1771681659959611600,8.772611572265625,0.1152334213256836,1.8915553092956543,-0.80005943775177
1771681659969969400,8.782969482421874,1.1413469314575195,0.8169093132019043,0.029832705855369568
1771681659980327200,8.7933271484375,1.2198829650878906,-2.030275344848633,-0.9763507843017578
1771681659990685200,8.803685302734374,-0.28418445587158203,-0.25739479064941406,-0.26320528984069824
1771681660001043000,8.81404296875,2.4020299911499023,-0.9401018023490906,0.15535299479961395
1771681660011400700,8.824400634765626,-0.6705780029296875,-0.6132204532623291,-0.05166429653763771
1771681660021758500,8.834758544921876,0.24086380004882812,-0.9067981839179993,-0.24864111840724945
1771681660032116200,8.8451162109375,-0.6281270980834961,0.4278687834739685,0.1337217390537262
1771681660042474000,8.855473876953125,-0.4711742401123047,-0.6091910600662231,0.14015546441078186
1771681660052831700,8.865831787109375,-0.7155227661132812,-1.2148393392562866,0.6452652215957642
1771681660063189500,8.876189453125,0.2269144058227539,1.0079779624938965,-0.5077050924301147
1771681660073547300,8.88654736328125,-0.04080772399902344,-1.5384576320648193,0.2513299584388733
1771681660083905000,8.896905029296875,1.2247238159179688,0.02698218822479248,0.027819417417049408
1771681660094262800,8.9072626953125,0.6633796691894531,0.6614591479301453,-0.060741622000932693
1771681660104620500,8.91762060546875,1.7576427459716797,-1.0887742042541504,-0.09130308032035828
1771681660114978300,8.927978271484376,-0.5687360763549805,-0.5965226888656616,-0.131689190864563
1771681660125336000,8.938336181640626,0.9200286865234375,1.611508846282959,0.039400361478328705
1771681660135693800,8.94869384765625,-1.0321121215820312,-1.089625597000122,0.3184369206428528
1771681660146051600,8.959051513671875,-0.7307500839233398,-1.4040580987930298,0.2657650411128998
1771681660156409300,8.969409423828125,0.5698270797729492,1.5367461442947388,-0.020211555063724518
1771681660166767000,8.97976708984375,1.9124317169189453,0.8238511085510254,-0.24565404653549194
1771681660177124900,8.990124755859375,-0.8582887649536133,-3.1590356826782227,-0.006630241870880127
1771681660187482600,9.000482666015625,1.473923683166504,0.24965333938598633,0.9196277856826782
1771681660197840400,9.01084033203125,2.1221065521240234,2.091381072998047,0.0034403428435325623
1771681660208198100,9.0211982421875,-0.8926324844360352,-1.6696932315826416,-0.35726478695869446
1771681660218556000,9.031555908203124,-2.007035732269287,-2.0680322647094727,-0.6162663102149963
1771681660228913700,9.04191357421875,1.444767951965332,2.0809178352355957,-0.8746480345726013
1771681660239271400,9.052271484375,-0.12436485290527344,0.6373866200447083,-0.19415464997291565
1771681660249629200,9.062629150390626,-0.7322473526000977,-1.3440172672271729,-0.17182610929012299
1771681660259987000,9.072987060546875,2.1700210571289062,0.2882821559906006,-0.12219380587339401
1771681660270344700,9.0833447265625,-0.23134231567382812,1.2987507581710815,-0.40025684237480164
1771681660280702500,9.093702392578125,-1.7078733444213867,-1.619694709777832,0.0009122118353843689
1771681660291060200,9.104060302734375,0.41637325286865234,-1.1403611898422241,0.45582976937294006
1771681660301418000,9.11441796875,0.6971960067749023,1.4274274110794067,-0.5330961346626282
1771681660311775700,9.124775634765625,-2.3117294311523438,-1.5229548215866089,0.3208749294281006
1771681660322133800,9.1351337890625,-0.1551980972290039,-2.3879806995391846,0.45042872428894043
1771681660332491500,9.145491455078124,1.8549442291259766,1.782656192779541,-0.17714478075504303
1771681660342849300,9.155849365234374,-0.8850326538085938,0.22941040992736816,0.15918678045272827
1771681660353207000,9.16620703125,-0.8707284927368164,-0.9570674300193787,-0.937316358089447
1771681660363564800,9.176564697265626,2.0697526931762695,1.7898386716842651,-1.0171843767166138
1771681660373922600,9.186922607421875,-0.7541561126708984,-1.3549184799194336,-0.45755887031555176
1771681660384280300,9.1972802734375,0.40323734283447266,-1.2951326370239258,0.2863359749317169
1771681660394638000,9.20763818359375,0.3355436325073242,1.4214622974395752,-0.06218734383583069
1771681660404995800,9.217995849609375,-0.7130336761474609,-0.4735034704208374,0.025934457778930664
1771681660415353600,9.228353515625,-2.0264387130737305,-2.4681925773620605,0.7189704775810242
1771681660425711400,9.23871142578125,1.32269287109375,1.517612338066101,-0.2248731553554535
1771681660436069000,9.249069091796875,1.1664485931396484,0.7111107110977173,0.7123475074768066
1771681660446427000,9.259427001953124,-1.567002296447754,-1.998746633529663,0.399624764919281
1771681660456784600,9.26978466796875,1.1029367446899414,0.8196485042572021,0.669774055480957
1771681660467142400,9.280142333984376,0.47469425201416016,1.4318349361419678,-0.3348782956600189
1771681660477500200,9.290500244140626,-2.137861728668213,-1.3745546340942383,-0.2439848780632019
1771681660487858000,9.30085791015625,2.5815696716308594,-1.2741854190826416,0.49806585907936096
1771681660498215700,9.311215576171875,-0.3894634246826172,0.7764028906822205,-1.1628128290176392
1771681660508573400,9.321573486328125,0.7882680892944336,-1.3433318138122559,-0.4778682291507721
1771681660518931200,9.33193115234375,-1.2472410202026367,-0.10377025604248047,0.3871573507785797
1771681660529289000,9.3422890625,0.4050769805908203,0.9005250930786133,0.5585606694221497
1771681660539646700,9.352646728515625,-1.3288803100585938,-1.1965569257736206,0.6277360916137695
1771681660550004500,9.36300439453125,0.015769004821777344,-1.462254285812378,-1.032362461090088
1771681660560362200,9.3733623046875,1.3332548141479492,1.8054053783416748,-0.3963063359260559
1771681660570720000,9.383719970703124,-0.40070629119873047,0.5186062455177307,0.2409503310918808
1771681660581077800,9.394077880859374,-1.7912120819091797,-1.5151516199111938,0.10542023926973343
1771681660591435500,9.404435546875,3.464426040649414,0.4422600269317627,-0.09338350594043732
1771681660601793300,9.414793212890626,0.5771369934082031,1.1929535865783691,0.26053690910339355
1771681660612151000,9.425151123046875,-2.1452178955078125,-1.795595407485962,0.557345449924469
1771681660622508800,9.4355087890625,2.7988386154174805,-0.5629323720932007,-0.9085564613342285
1771681660632866600,9.445866455078125,-0.6476736068725586,0.842829704284668,-0.634026050567627
1771681660643224300,9.456224365234375,-1.9012832641601562,-0.29799598455429077,-0.5888652205467224
1771681660653582000,9.46658203125,-0.1304473876953125,-1.421438217163086,1.0403964519500732
1771681660663939800,9.47693994140625,2.166438102722168,1.6197117567062378,-0.6351904273033142
1771681660674297600,9.487297607421874,-1.7081718444824219,-0.9834832549095154,1.1244513988494873
1771681660684655400,9.4976552734375,-0.14755821228027344,-1.854323387145996,1.7746764421463013
1771681660695013000,9.50801318359375,0.9866447448730469,0.9678516983985901,0.48531705141067505
1771681660705371000,9.518370849609376,-1.5434207916259766,0.05073469877243042,0.8079737424850464
1771681660715728600,9.528728759765626,-2.504096031188965,-1.969545841217041,0.012719601392745972
1771681660726086400,9.53908642578125,2.2162551879882812,1.671194076538086,-0.24760660529136658
1771681660736444200,9.549444091796875,-1.4580602645874023,-0.12120616436004639,-1.0974507331848145
1771681660746802000,9.559802001953125,2.0929269790649414,-0.950326144695282,-0.26484423875808716
1771681660757160000,9.570159912109375,3.6848554611206055,0.8812456727027893,-1.2276285886764526
1771681660767517700,9.580517578125,-1.071263313293457,-0.1719796061515808,-1.4105640649795532
1771681660777875500,9.59087548828125,-3.67930269241333,-1.0258020162582397,-0.8282921314239502
1771681660788233200,9.601233154296875,2.8606204986572266,-0.07629913091659546,-1.2481738328933716
1771681660798591000,9.611591064453124,-0.8936672210693359,1.0299044847488403,-0.16854088008403778
1771681660808948700,9.62194873046875,-1.0534801483154297,-0.9833354949951172,-0.09241390973329544
1771681660819306500,9.632306396484376,4.360206604003906,-0.07140755653381348,1.124295949935913
1771681660829664300,9.642664306640626,0.4183025360107422,1.8345887660980225,0.0767909437417984
1771681660840022000,9.65302197265625,-4.492519378662109,-1.0288630723953247,0.5481411218643188
1771681660850379800,9.6633798828125,-0.4596424102783203,0.3738079071044922,1.0596064329147339
1771681660860737500,9.673737548828125,-0.08645153045654297,1.1223349571228027,-1.9510968923568726
1771681660871095300,9.68409521484375,-2.2231264114379883,0.22802573442459106,1.522975206375122
1771681660881453000,9.694453125,2.811223030090332,0.24285411834716797,1.0412973165512085
1771681660891810800,9.704810791015625,0.22408676147460938,-0.2131662368774414,-0.6762663125991821
1771681660902168600,9.71516845703125,-1.222921371459961,-0.46363312005996704,-0.38493186235427856
1771681660912526300,9.7255263671875,0.45087242126464844,-0.23210078477859497,-0.850837230682373
1771681660922884000,9.735884033203124,-4.140607833862305,1.1224355697631836,-0.43683773279190063
1771681660933241900,9.746241943359376,-4.095280647277832,0.5302671194076538,0.23094870150089264
1771681660943599600,9.756599609375,-2.868593692779541,-0.617148756980896,0.9294925332069397
1771681660953957400,9.766957275390626,2.6704025268554688,1.282895565032959,0.7446701526641846
1771681660964315100,9.777315185546875,2.0138301849365234,1.7702078819274902,0.41808944940567017
1771681660974673000,9.7876728515625,-2.641328811645508,-1.177651286125183,0.5770746469497681
1771681660985030700,9.79803076171875,-0.07413578033447266,-1.4838913679122925,-0.09391248226165771
1771681660995388400,9.808388427734375,-0.19139575958251953,0.3709442615509033,0.13006392121315002
1771681661005746200,9.81874609375,-2.661909580230713,0.7326083183288574,0.6829304695129395
1771681661016104000,9.82910400390625,-0.5941219329833984,0.1392255425453186,-0.30339908599853516
1771681661026461700,9.839461669921874,0.4116973876953125,0.37031376361846924,-1.0170023441314697
1771681661036819500,9.8498193359375,-2.3137459754943848,-0.5853358507156372,0.04814957082271576
1771681661047177200,9.86017724609375,3.794696807861328,1.2292182445526123,-1.2600631713867188
1771681661057535000,9.870534912109376,0.23528480529785156,-1.0732784271240234,0.5924469828605652
1771681661067892700,9.880892822265626,-0.2242574691772461,-2.104825019836426,0.33571749925613403
1771681661078250500,9.89125048828125,1.0983409881591797,1.4868149757385254,0.03340102732181549
1771681661088608300,9.901608154296875,2.2168025970458984,1.098515510559082,0.5888479948043823
1771681661098966000,9.911966064453125,-1.4241714477539062,-2.160951614379883,0.07818672060966492
1771681661109323800,9.92232373046875,3.0162858963012695,-0.9896576404571533,0.18318603932857513
1771681661119681500,9.932681640625,2.6557483673095703,1.425361156463623,-0.6739915013313293
1771681661130039300,9.943039306640625,-1.766770362854004,-2.1291685104370117,0.37206172943115234
1771681661140397000,9.95339697265625,1.496018409729004,-1.4926421642303467,-0.7152196168899536
1771681661150754800,9.9637548828125,0.5613946914672852,1.432694435119629,-0.4655434787273407
1771681661161112800,9.97411279296875,1.2808055877685547,1.0961332321166992,-0.34097471833229065
1771681661171470600,9.984470703125,1.659806251525879,-0.32103431224823,-0.36214184761047363
1771681661181828400,9.994828369140626,2.197774887084961,-0.8231953382492065,0.7309237718582153
1771681661192186000,10.00518603515625,1.514897346496582,-1.9262460470199585,0.5889115929603577
1771681661202543900,10.0155439453125,0.21809005737304688,-1.5627193450927734,0.7858818173408508
1771681661212901600,10.025901611328125,0.6265449523925781,0.46867960691452026,-0.5367355942726135
1771681661223259400,10.03625927734375,0.29392242431640625,0.2879904508590698,-0.5506395697593689
1771681661233617200,10.0466171875,-1.1547765731811523,0.38821089267730713,0.16237011551856995
1771681661243975000,10.056974853515625,1.3908662796020508,-0.5687422752380371,-0.20946064591407776
1771681661254332700,10.067332763671875,-0.03656768798828125,-1.7048214673995972,1.213875412940979
1771681661264690400,10.0776904296875,0.8667135238647461,1.3227643966674805,0.19752009212970734
1771681661275048200,10.088048095703124,1.168609619140625,-1.911108136177063,0.43262532353401184
1771681661285406000,10.098406005859376,0.8852243423461914,0.32305216789245605,-0.5661256313323975
1771681661295763700,10.108763671875,1.836496353149414,1.5293545722961426,-0.2347998172044754
1771681661306121500,10.11912158203125,0.08580493927001953,0.2305017113685608,-0.2426207959651947
1771681661316479200,10.129479248046875,-2.4267807006835938,-2.1189541816711426,0.30030566453933716
1771681661326837000,10.1398369140625,0.4972410202026367,1.4372336864471436,-0.15376026928424835
1771681661337194800,10.15019482421875,-0.47238922119140625,0.9839353561401367,0.2291274070739746
1771681661347552500,10.160552490234375,-3.568507194519043,-1.0068392753601074,-0.09852015227079391
1771681661357910300,10.17091015625,0.9928131103515625,0.311214804649353,-0.6778240203857422
1771681661368268000,10.18126806640625,3.9435415267944336,2.531430721282959,-0.1684151589870453
1771681661378625800,10.191625732421874,-3.8131580352783203,-1.3954074382781982,-0.40923821926116943
1771681661388983600,10.201983642578124,2.175959587097168,-0.7090816497802734,0.3689892292022705
1771681661399341300,10.21234130859375,4.200105667114258,1.9641518592834473,0.242258220911026
1771681661409699000,10.222698974609376,-2.5075864791870117,0.2022554874420166,-0.020723417401313782
1771681661420056800,10.233056884765626,-2.474752902984619,-1.4586374759674072,-0.0730777382850647
1771681661430414600,10.24341455078125,1.0807151794433594,1.7261778116226196,-0.4002733826637268
1771681661440772400,10.2537724609375,-2.5885610580444336,0.8500156402587891,-0.3197498619556427
1771681661451130000,10.264130126953125,-4.475165367126465,-1.452584981918335,0.2149394452571869
1771681661461487900,10.27448779296875,2.140134811401367,2.3885984420776367,-0.2674686908721924
1771681661471845600,10.284845703125,1.254068374633789,1.8027738332748413,-0.6818631887435913
1771681661482203400,10.295203369140625,-3.320103645324707,-1.1726815700531006,-0.4997090697288513
1771681661492561200,10.30556103515625,2.45263671875,0.24283277988433838,-1.1255977153778076
1771681661502919000,10.3159189453125,-1.122117042541504,0.17645394802093506,0.14810611307621002
1771681661513276700,10.326276611328124,-1.6231565475463867,-0.9108893871307373,-0.2430780529975891
1771681661523634400,10.336634521484376,1.349630355834961,2.1280951499938965,-0.4397028982639313
1771681661533992200,10.3469921875,-0.6782569885253906,0.3517310619354248,0.015535309910774231
1771681661544350000,10.357349853515625,-2.596251964569092,-1.3068602085113525,0.18583980202674866
1771681661554707700,10.367707763671875,3.3719348907470703,2.3334646224975586,-0.29821139574050903
1771681661565065500,10.3780654296875,-1.360579490661621,-1.4420616626739502,-0.563395082950592
1771681661575423200,10.38842333984375,-1.2455921173095703,-1.1515765190124512,0.2546995282173157
1771681661585781000,10.398781005859375,2.8147754669189453,1.9352641105651855,-0.3650803565979004
1771681661596138800,10.409138671875,0.4730949401855469,-0.7026206254959106,-0.5992248058319092
1771681661606496500,10.41949658203125,-3.4572525024414062,-1.4316575527191162,-0.4160783886909485
1771681661616854300,10.429854248046874,3.1937875747680664,0.6202982664108276,0.31414973735809326
1771681661627212000,10.4402119140625,-3.1922855377197266,0.43691325187683105,-0.3285726308822632
1771681661637569800,10.45056982421875,-2.461604595184326,-1.5981695652008057,-0.1749686896800995
1771681661647927600,10.460927490234376,3.621157646179199,0.8573595285415649,-0.7485499978065491
1771681661658285300,10.471285400390625,0.702052116394043,1.2692992687225342,-0.3418332636356354
1771681661668643000,10.48164306640625,-0.8918600082397461,-0.9616926908493042,-0.2856454849243164
1771681661679000800,10.492000732421875,1.9531126022338867,-0.7393991947174072,0.10525865107774734
1771681661689358600,10.502358642578125,-0.9924802780151367,-0.08502691984176636,0.1121840849518776
1771681661699716400,10.51271630859375,-2.4602437019348145,-1.8884942531585693,-0.15529833734035492
1771681661710074000,10.52307421875,2.0165443420410156,1.0518996715545654,-0.9457045793533325
1771681661720431900,10.533431884765625,0.14487266540527344,0.7911691069602966,-0.23607227206230164
1771681661730789600,10.54378955078125,-2.2732601165771484,-0.9460762143135071,-0.4658331274986267
1771681661741147400,10.5541474609375,2.613544464111328,1.101733684539795,-0.2135598510503769
1771681661751505400,10.56450537109375,-0.47673797607421875,-0.5768530368804932,0.24126198887825012
1771681661761863200,10.57486328125,-1.1986932754516602,-1.4243786334991455,-0.4819844961166382
1771681661772221000,10.585220947265626,2.711806297302246,2.200944423675537,-0.5479152202606201
1771681661782578700,10.59557861328125,-1.223663330078125,-1.3025460243225098,0.49557825922966003
1771681661792936400,10.6059365234375,-1.1082277297973633,-1.6863335371017456,-0.2122330218553543
1771681661803294200,10.616294189453125,0.694575309753418,1.5854564905166626,-0.6289443373680115
1771681661813652000,10.62665185546875,-1.2572002410888672,-1.0856316089630127,0.1299225091934204
1771681661824009700,10.637009765625,0.7726678848266602,-1.7017477750778198,-0.21545781195163727
1771681661834367500,10.647367431640625,1.284165382385254,1.9233777523040771,-1.1330575942993164
1771681661844725200,10.657725341796874,-1.0292072296142578,0.03952908515930176,-1.0747658014297485
1771681661855083000,10.6680830078125,-1.2386140823364258,-0.981247067451477,-0.5382370948791504
1771681661865440800,10.678440673828124,3.846438407897949,1.2433606386184692,-0.48294007778167725
1771681661875798500,10.688798583984376,-0.8936519622802734,-0.8897882699966431,1.0355831384658813
1771681661886156300,10.69915625,-1.764486312866211,-1.578205943107605,0.08918317407369614
1771681661896514000,10.70951416015625,1.8274354934692383,1.267870545387268,-0.6066226959228516
1771681661906871800,10.719871826171875,-0.8691549301147461,0.5129880905151367,-0.6387755870819092
1771681661917229600,10.7302294921875,-2.66627836227417,-1.086236596107483,-0.251068115234375
1771681661927587300,10.74058740234375,3.522615432739258,1.9169209003448486,-0.00874222069978714
1771681661937945000,10.750945068359375,-1.0993804931640625,-0.41135960817337036,-0.6040098667144775
1771681661948302800,10.761302734375,-0.22963809967041016,-2.1168742179870605,0.5025694370269775
1771681661958660600,10.77166064453125,1.9622411727905273,1.4836342334747314,-0.4491843581199646
1771681661969018400,10.782018310546874,-0.021053314208984375,1.1263377666473389,-0.7139519453048706
1771681661979376000,10.792376220703124,-3.2831788063049316,-0.9250839948654175,0.036608897149562836
1771681661989734000,10.80273388671875,1.840165138244629,0.4367341995239258,-0.641706645488739
1771681662000091600,10.813091552734376,1.1866073608398438,1.5076764822006226,0.22953009605407715
1771681662010449400,10.823449462890625,-1.7898874282836914,-1.0246742963790894,0.12337995320558548
1771681662020807200,10.83380712890625,2.912276268005371,0.5691587924957275,-1.1463353633880615
1771681662031165000,10.8441650390625,-0.020977020263671875,-1.1440876722335815,-0.6429024934768677
1771681662041522700,10.854522705078125,-1.113595962524414,0.25537776947021484,0.1378510594367981
1771681662051880400,10.86488037109375,-0.3373088836669922,1.1984556913375854,0.6263236403465271
1771681662062238200,10.87523828125,-1.1810989379882812,-1.654759168624878,-0.11846500635147095
1771681662072596000,10.885595947265625,-0.9320068359375,1.034554123878479,-0.9970396161079407
1771681662082953700,10.89595361328125,0.8007822036743164,1.6932125091552734,0.15751296281814575
1771681662093311500,10.9063115234375,-1.3516197204589844,-1.45577073097229,-0.8122048377990723
1771681662103669200,10.916669189453126,-0.8014936447143555,0.7232602834701538,0.7599899172782898
1771681662114027000,10.927027099609376,0.7947988510131836,1.9207916259765625,-0.397836297750473
1771681662124384800,10.937384765625,-1.9496407508850098,-2.0847015380859375,0.42538097500801086
1771681662134742500,10.947742431640625,1.3227500915527344,1.8217558860778809,-1.0563865900039673
1771681662145100300,10.958100341796875,1.3265295028686523,0.9515069723129272,0.2847001552581787
1771681662155458000,10.9684580078125,-1.466874122619629,-1.8478071689605713,0.18744021654129028
1771681662165815800,10.97881591796875,0.5727272033691406,0.4347609281539917,0.312436044216156
1771681662176173600,10.989173583984375,-0.17861080169677734,1.33074951171875,-0.13699623942375183
1771681662186531300,10.99953125,-1.132955551147461,-1.1880711317062378,-0.6137852072715759
1771681662196889000,11.00988916015625,0.8864078521728516,1.7041776180267334,-0.2944260239601135
1771681662207246800,11.020246826171874,0.8790616989135742,0.2899439334869385,-0.49946653842926025
1771681662217604600,11.0306044921875,-2.8657093048095703,-1.6567528247833252,-0.07943189144134521
1771681662227962400,11.04096240234375,2.0650510787963867,1.092618703842163,0.27053600549697876
1771681662238320000,11.051320068359376,0.7061967849731445,1.2820465564727783,-0.1277562975883484
1771681662248678000,11.061677978515625,-2.159615993499756,-2.080348014831543,-0.06502847373485565
1771681662259035600,11.07203564453125,1.9460678100585938,-0.49366074800491333,-0.2666620910167694
1771681662269393400,11.082393310546875,0.13144969940185547,1.0166206359863281,-0.26409241557121277
1771681662279751200,11.092751220703125,-2.94073486328125,-1.7437362670898438,0.13569940626621246
1771681662290109000,11.10310888671875,0.28828907012939453,0.9062827825546265,-0.045586273074150085
1771681662300466700,11.113466796875,1.1106147766113281,1.2092820405960083,-0.1551206409931183
1771681662310824400,11.123824462890624,-1.3674602508544922,-1.1282120943069458,-0.22518062591552734
1771681662321182200,11.13418212890625,2.19686222076416,1.4857579469680786,0.2682822644710541
1771681662331540000,11.1445400390625,0.34622955322265625,-0.9685824513435364,0.04529809206724167
1771681662341897700,11.154897705078126,-3.296865940093994,-1.8699721097946167,0.17426294088363647
1771681662352255500,11.16525537109375,0.7544689178466797,0.9153045415878296,-0.7324842810630798
1771681662362613200,11.17561328125,-0.7201309204101562,-0.2872968912124634,-0.9711512327194214
1771681662372971300,11.18597119140625,-0.02832508087158203,-0.31234991550445557,-0.6088333129882812
1771681662383329000,11.1963291015625,0.9765138626098633,0.8230148553848267,0.023024782538414
1771681662393686800,11.206686767578125,-1.4962158203125,-1.5906615257263184,-0.3914777636528015
1771681662404044500,11.21704443359375,0.6103610992431641,1.0696399211883545,-0.37695133686065674
1771681662414402300,11.22740234375,1.2363977432250977,1.9877263307571411,0.03460744023323059
1771681662424760000,11.237760009765625,-2.036360740661621,-1.7683449983596802,-0.08978632092475891
1771681662435117800,11.248117919921874,0.9022130966186523,-1.728275179862976,-0.4796130061149597
1771681662445475600,11.2584755859375,0.8804559707641602,1.3759005069732666,-0.2447820007801056
1771681662455833300,11.268833251953126,-0.44623565673828125,-1.4295251369476318,0.0443233847618103
1771681662466191000,11.279191162109376,0.22797393798828125,0.9084527492523193,-0.22730004787445068
1771681662476548900,11.289548828125,0.6520872116088867,1.793516755104065,-0.03608213737607002
1771681662486906600,11.29990673828125,-2.9964728355407715,-1.523742914199829,-0.3012390732765198
1771681662497264400,11.310264404296875,1.2976627349853516,0.4862006902694702,-0.8027290105819702
1771681662507622100,11.3206220703125,0.03865814208984375,1.251396894454956,0.5003454089164734
1771681662517980000,11.33097998046875,-2.6991639137268066,-1.6423747539520264,0.12841105461120605
1771681662528337700,11.341337646484375,0.7204523086547852,1.274402379989624,-0.48395082354545593
1771681662538695400,11.3516953125,0.5250520706176758,0.9609044790267944,-0.6213127970695496
1771681662549053200,11.36205322265625,-1.4881744384765625,-1.6499661207199097,-0.18735860288143158
1771681662559411000,11.372410888671874,1.6394643783569336,1.6455117464065552,-0.11182354390621185
1771681662569768700,11.382768798828126,-0.4676389694213867,0.7290561199188232,-0.24463722109794617
1771681662580126500,11.39312646484375,-1.120295524597168,-1.432256817817688,0.08500465750694275
1771681662590484200,11.403484130859376,0.8270988464355469,1.6002881526947021,-0.5870238542556763
1771681662600842000,11.413842041015625,-0.8485527038574219,1.1471511125564575,-0.3453329801559448
1771681662611199700,11.42419970703125,-2.612697124481201,-1.1836847066879272,-0.3116713762283325
1771681662621557500,11.4345576171875,1.9881229400634766,1.5607208013534546,-0.12041929364204407
1771681662631915300,11.444915283203125,0.3647003173828125,-1.1935780048370361,0.20969106256961823
1771681662642273000,11.45527294921875,-0.8893566131591797,-1.0183618068695068,0.4335593581199646
1771681662652630800,11.465630859375,3.060431480407715,2.1302108764648438,-0.9397070407867432
1771681662662988500,11.475988525390624,-0.7828207015991211,-1.5014574527740479,-0.3932030200958252
1771681662673346300,11.48634619140625,0.8756179809570312,0.5977622270584106,0.6255844235420227
1771681662683704000,11.4967041015625,1.1309919357299805,0.6198074817657471,0.5188050866127014
1771681662694061800,11.507061767578126,-3.1084418296813965,-1.5280640125274658,0.24266116321086884
1771681662704419600,11.517419677734376,0.2646903991699219,0.07336926460266113,-0.5580022931098938
1771681662714777300,11.52777734375,2.784341812133789,1.2970614433288574,-1.1626226902008057
1771681662725135000,11.538135009765625,-0.5043401718139648,-1.5794084072113037,-0.042393144220113754
1771681662735492900,11.548492919921875,2.442368507385254,1.306978702545166,-0.16316163539886475
1771681662745850600,11.5588505859375,1.0973548889160156,-0.6426771283149719,0.7413450479507446
1771681662756208400,11.56920849609375,-1.5972576141357422,-1.705549955368042,0.2007679045200348
1771681662766566100,11.579566162109375,0.8318700790405273,1.4818331003189087,-0.013982238247990608
1771681662776924000,11.589923828125,0.9112339019775391,-0.6681718826293945,0.012590296566486359
1771681662787281700,11.60028173828125,-2.128939151763916,-2.1110527515411377,0.14384682476520538
1771681662797639400,11.610639404296874,0.7022895812988281,1.6546239852905273,-0.31462275981903076
1771681662807997200,11.6209970703125,-0.33040618896484375,-0.9552936553955078,0.7825271487236023
1771681662818355000,11.63135498046875,-1.3509626388549805,0.637377142906189,-0.8884822130203247
1771681662828712700,11.641712646484375,1.8770036697387695,1.7530794143676758,0.3496953248977661
1771681662839070500,11.652070556640625,0.4313621520996094,-1.4087090492248535,-0.6275855302810669
1771681662849428200,11.66242822265625,0.9010648727416992,-1.0859260559082031,-0.6277822256088257
1771681662859786000,11.672785888671875,1.3046865463256836,1.4314608573913574,0.6012516617774963
1771681662870143700,11.683143798828125,-1.6815319061279297,-2.0886988639831543,-0.5824307203292847
1771681662880501500,11.69350146484375,1.4328880310058594,0.6074515581130981,-0.8040624856948853
1771681662890859300,11.703859375,1.1191444396972656,1.3423495292663574,-0.7491318583488464
1771681662901217000,11.714217041015624,-1.6592073440551758,-1.1775243282318115,0.49395066499710083
1771681662911574800,11.72457470703125,0.4216594696044922,1.6308495998382568,-0.08957545459270477
1771681662921932500,11.7349326171875,-0.19742584228515625,0.2170429229736328,0.2576603889465332
1771681662932290300,11.745290283203126,-1.2252378463745117,-1.319710612297058,-0.5436968207359314
1771681662942648000,11.75564794921875,1.5777549743652344,1.684739589691162,-0.4217579960823059
1771681662953005800,11.766005859375,0.21830368041992188,-1.2978556156158447,0.07359126210212708
1771681662963363600,11.776363525390625,-0.4501628875732422,-0.9878711104393005,-0.4298030734062195
1771681662973721300,11.786721435546875,1.1311817169189453,1.6365532875061035,0.3584423363208771
1771681662984079000,11.7970791015625,0.09982585906982422,-0.9017824530601501,-0.1340910792350769
1771681662994436900,11.807436767578125,-0.8621425628662109,1.1897242069244385,0.07954128086566925
1771681663004794600,11.817794677734375,-0.022179603576660156,-0.16683697700500488,-0.17761734127998352
1771681663015152400,11.82815234375,-0.5542097091674805,-1.731419563293457,0.2778582274913788
1771681663025510100,11.83851025390625,0.0746774673461914,1.9341762065887451,-0.24357764422893524
1771681663035868000,11.848867919921876,-0.2906160354614258,0.3604419231414795,0.23195937275886536
1771681663046225700,11.8592255859375,-1.3489503860473633,-1.3868091106414795,-0.5911276340484619
1771681663056583400,11.86958349609375,1.1818227767944336,0.7983361482620239,-0.7462952136993408
1771681663066941200,11.879941162109375,1.3387184143066406,1.2218891382217407,-0.4783734679222107
1771681663077299000,11.890298828125,-0.9246587753295898,-1.3067914247512817,0.9615619778633118
1771681663087656700,11.90065673828125,0.15612030029296875,1.4974614381790161,-0.0401625782251358
1771681663098014500,11.911014404296875,-0.6938514709472656,-1.0113188028335571,-0.23138238489627838
1771681663108372200,11.921372314453125,-2.2100911140441895,-0.8898814916610718,-0.9592092633247375
1771681663118730000,11.93172998046875,0.5350561141967773,1.7995725870132446,-0.1422460526227951
1771681663129087700,11.942087646484374,-1.2825403213500977,-1.2469992637634277,0.3342932462692261
1771681663139445500,11.952445556640624,-0.3794851303100586,-1.3847675323486328,-0.19033601880073547
1771681663149803300,11.96280322265625,1.2966108322143555,1.8877482414245605,0.24098268151283264
1771681663160161000,11.9731611328125,-1.162795066833496,-1.238024115562439,-0.5086285471916199
1771681663170518800,11.983518798828126,0.21956539154052734,1.5589807033538818,-0.2890840768814087
1771681663180876500,11.99387646484375,0.1829519271850586,-1.0943294763565063,0.6594734787940979
1771681663191234300,12.004234375,-1.863135814666748,-1.3841794729232788,0.19408342242240906
1771681663201592000,12.014592041015625,0.9791688919067383,1.8515368700027466,-0.015862619504332542
1771681663211949800,12.02494970703125,-0.2978219985961914,-1.3089237213134766,0.5901370644569397
1771681663222307600,12.0353076171875,-2.784095287322998,-2.051021099090576,-0.26445913314819336
1771681663232665300,12.045665283203125,0.964991569519043,1.3715190887451172,-0.7614107728004456
1771681663243023000,12.056023193359374,0.3585691452026367,-0.3275785446166992,0.5100760459899902
1771681663253380900,12.066380859375,-0.08155632019042969,-0.9086514115333557,0.19760434329509735
1771681663263738600,12.076738525390626,1.2074089050292969,0.02347099781036377,-0.3434317111968994
1771681663274096400,12.087096435546876,0.18048572540283203,-1.0127227306365967,-0.7361891269683838
1771681663284454100,12.0974541015625,0.2827014923095703,0.734466552734375,0.390970379114151
1771681663294812000,12.10781201171875,0.9287080764770508,-0.3234928846359253,0.5044389963150024
1771681663305169700,12.118169677734375,-1.0450630187988281,-1.318682312965393,1.0149288177490234
1771681663315527400,12.12852734375,-0.16898536682128906,1.5547150373458862,0.2292076200246811
1771681663325885200,12.13888525390625,0.3516836166381836,-0.9640920162200928,-0.26339519023895264
1771681663336243000,12.149242919921875,-0.10501956939697266,0.47708404064178467,0.0006032288074493408
1771681663346600700,12.1596005859375,0.9668254852294922,1.4985164403915405,0.3268432319164276
1771681663356958500,12.16995849609375,-0.5652799606323242,-2.434314250946045,0.3529694974422455
1771681663367316200,12.180316162109374,0.06629657745361328,-0.7693164944648743,-0.3488248288631439
1771681663377674000,12.190674072265624,1.6720876693725586,1.657026767730713,-0.09613234549760818
1771681663388031700,12.20103173828125,-0.6156682968139648,-1.0912179946899414,-0.41919851303100586
1771681663398389500,12.211389404296876,-1.7857160568237305,-2.602588176727295,0.47435495257377625
1771681663408747300,12.221747314453125,0.6101360321044922,0.9677600860595703,0.058982521295547485
1771681663419105000,12.23210498046875,-0.6587371826171875,-0.09962993860244751,0.9374671578407288
1771681663429462800,12.242462890625,-1.6046218872070312,-0.07111787796020508,-0.23729005455970764
1771681663439820500,12.252820556640625,0.46636104583740234,-0.24958521127700806,-0.2614884376525879
1771681663450178600,12.263178466796875,-1.1005134582519531,-1.1444672346115112,0.2700168490409851
1771681663460536000,12.2735361328125,0.5659160614013672,0.5741537809371948,1.2396210432052612
1771681663470894000,12.28389404296875,0.3472709655761719,-1.505852460861206,0.1014832854270935
1771681663481251600,12.29425146484375,-0.3027830123901367,0.306939959526062,0.2334766983985901
1771681663491609600,12.304609619140624,-0.08494186401367188,1.2048001289367676,-1.073632001876831
1771681663501967400,12.31496728515625,-0.6409339904785156,-1.4850512742996216,0.5939925312995911
1771681663512325000,12.3253251953125,-0.3864469528198242,1.0713694095611572,0.6754345297813416
1771681663522683000,12.335682861328126,0.538060188293457,-0.8345242142677307,1.0084985494613647
1771681663533040600,12.34604052734375,-0.06480216979980469,-0.863101065158844,-0.1378496289253235
1771681663543398400,12.3563984375,0.6130781173706055,0.7061213254928589,0.3571658134460449
1771681663553756200,12.366756103515625,1.126999855041504,-2.0108773708343506,0.09804804623126984
1771681663564114000,12.377114013671875,0.9021339416503906,0.6849178075790405,-0.17303630709648132
1771681663574471700,12.3874716796875,-0.2937641143798828,-0.12395304441452026,0.7784712314605713
1771681663584829400,12.397829345703125,0.16278934478759766,-2.2138378620147705,1.0578211545944214
1771681663595187200,12.408187255859374,-0.48215675354003906,0.3512479066848755,0.15296944975852966
1771681663605545000,12.418544921875,0.4067201614379883,0.48846256732940674,0.17824460566043854
1771681663615902700,12.42890283203125,-0.6588773727416992,-2.6273441314697266,0.32842350006103516
1771681663626260500,12.439260498046876,0.6887903213500977,0.9275532960891724,-0.5743956565856934
1771681663636618200,12.4496181640625,1.8228797912597656,0.6943027973175049,1.4308651685714722
1771681663646976000,12.45997607421875,-1.268040657043457,-1.5233278274536133,0.3794113099575043
1771681663657333800,12.470333740234375,-1.2411518096923828,-0.3987939953804016,0.45393288135528564
1771681663667691500,12.48069140625,0.20099925994873047,-0.33124327659606934,0.3881131112575531
1771681663678049300,12.49104931640625,-0.3486356735229492,-0.9112598896026611,-0.4411553144454956
1771681663688407000,12.501406982421875,0.7595424652099609,0.016453862190246582,-0.3150429427623749
1771681663698764800,12.511764892578125,0.5617923736572266,-1.1708135604858398,-0.5401138067245483
1771681663709122600,12.52212255859375,-0.5543146133422852,-0.5181785225868225,0.7285215258598328
1771681663719480300,12.532480224609374,0.6117668151855469,-0.7045817375183105,0.39429163932800293
1771681663729838000,12.542838134765624,-0.07009029388427734,-0.787889301776886,-0.08496679365634918
1771681663740195800,12.55319580078125,0.4240550994873047,-0.9973628520965576,-0.06994535028934479
1771681663750553600,12.5635537109375,-0.19526290893554688,-0.6935157775878906,1.1503369808197021
1771681663760911400,12.573911376953125,0.8624496459960938,0.29766207933425903,0.043632201850414276
1771681663771269000,12.58426904296875,0.6859655380249023,-1.9769458770751953,0.28059470653533936
1771681663781627000,12.594626953125,0.0875244140625,-0.4682459831237793,-0.21302911639213562
1771681663791984600,12.604984619140625,0.524052619934082,-0.09675264358520508,0.35638266801834106
1771681663802342400,12.61534228515625,0.8783369064331055,0.643772304058075,0.6594938635826111
1771681663812700200,12.6257001953125,-1.5561094284057617,-2.388887405395508,0.6517928242683411
1771681663823058000,12.636057861328124,1.1497306823730469,0.13475453853607178,-0.6198147535324097
1771681663833415700,12.646415771484374,-0.1063547134399414,1.5508054494857788,0.45786935091018677
1771681663843773400,12.6567734375,0.2019824981689453,-2.2956743240356445,0.4284030497074127
1771681663854131200,12.667131103515626,-0.8031902313232422,-1.0436204671859741,0.034376613795757294
1771681663864489000,12.677489013671876,0.8696413040161133,0.9802651405334473,-0.7936985492706299
1771681663874846700,12.6878466796875,0.600341796875,-2.177130937576294,-1.1220927238464355
1771681663885204500,12.69820458984375,0.3270139694213867,-0.2934790849685669,-0.4759410321712494
1771681663895562200,12.708562255859375,1.5388317108154297,0.3267061114311218,0.9350202679634094
1771681663905920000,12.718919921875,-0.3074464797973633,-1.7955636978149414,0.5538505911827087
1771681663916277800,12.72927783203125,-1.476038932800293,-0.6855223178863525,0.8774515390396118
1771681663926635500,12.739635498046875,0.6663751602172852,0.13129711151123047,-0.021818891167640686
1771681663936993300,12.7499931640625,-0.9272546768188477,-0.8148576021194458,0.4394393563270569
1771681663947351000,12.76035107421875,-1.0680618286132812,-1.0071015357971191,0.11707765609025955
1771681663957708800,12.770708740234374,-0.08429336547851562,-0.2873416543006897,0.5429261922836304
1771681663968066600,12.781066650390626,0.40766429901123047,0.4382164478302002,0.6986070871353149
1771681663978424300,12.79142431640625,0.37567615509033203,-1.081735610961914,0.2146989107131958
1771681663988782000,12.801781982421875,-0.1931743621826172,-1.1213634014129639,-0.35421207547187805
1771681663999139800,12.812139892578125,0.4303150177001953,1.0051565170288086,0.6269726753234863
1771681664009497600,12.82249755859375,-0.4466543197631836,-1.0507972240447998,-0.1528836339712143
1771681664019855400,12.83285546875,-0.2759523391723633,-1.464673399925232,0.33416664600372314
1771681664030213000,12.843213134765625,-0.05797576904296875,0.5360164642333984,-0.5889214277267456
1771681664040571000,12.85357080078125,-0.6760091781616211,-1.6733458042144775,0.5899245738983154
1771681664050928600,12.8639287109375,-0.04169654846191406,0.019711077213287354,0.42273834347724915
1771681664061286400,12.874286376953124,-0.44506072998046875,-0.4830423891544342,0.6558169722557068
1771681664071644200,12.88464404296875,0.13364315032958984,-1.3049352169036865,-0.5022658109664917
1771681664082002000,12.895001953125,-1.7667322158813477,0.6447682976722717,0.2557990252971649
1771681664092359700,12.905359619140626,1.383413314819336,-1.6444673538208008,-0.6526352167129517
1771681664102717400,12.915717529296876,-0.7872982025146484,-0.7069931030273438,0.6727529764175415
1771681664113075200,12.9260751953125,1.1168327331542969,-0.25018471479415894,-0.0762900710105896
1771681664123433000,12.936432861328125,0.789398193359375,-0.4351874589920044,0.3227488100528717
1771681664133790700,12.946790771484375,-2.1987032890319824,-0.8285250067710876,0.4451388418674469
1771681664144148500,12.9571484375,0.2507820129394531,-0.1400114893913269,0.5559645891189575
1771681664154506200,12.96750634765625,-2.3231873512268066,-0.4922659695148468,0.6461464762687683
1771681664164864000,12.977864013671875,-0.13365554809570312,-0.3645070791244507,0.3822387456893921
1771681664175221800,12.9882216796875,-2.241218090057373,-0.5705407857894897,0.6051296591758728
1771681664185579500,12.99857958984375,-0.7560052871704102,-1.8653302192687988,0.5838800072669983
1771681664195937300,13.008937255859376,0.9283924102783203,0.15843701362609863,-0.31954073905944824
1771681664206295000,13.019294921875,0.4723539352416992,-1.2002933025360107,0.8711399435997009
1771681664216652800,13.02965283203125,0.41613292694091797,-0.7590821981430054,0.08211061358451843
1771681664227010600,13.040010498046875,0.6416893005371094,-0.4526400864124298,0.9097060561180115
