time,seconds_elapsed,z,y,x
1771681651300519200,0.113519287109375,0.005879404954612255,-0.004963133949786425,0.01038440316915512
1771681651310877000,0.123876953125,0.007101099472492933,-0.019623467698693275,0.013438640162348747
1771681651321234700,0.134234619140625,0.007711946498602629,-0.025121092796325684,0.02748812735080719
1771681651331592400,0.144592529296875,0.004657710436731577,-0.020845163613557816,0.014049487188458443
1771681651341950200,0.1549501953125,0.007101099472492933,-0.007406522985547781,0.011606098152697086
1771681651352308000,0.165307861328125,0.008322793990373611,-0.025121092796325684,0.03367295488715172
1771681651362665700,0.175665771484375,0.010766183026134968,-0.030007870867848396,0.015271181240677834
1771681651383381200,0.19638134765625,0.004046862944960594,-0.023899398744106293,0.02626643143594265
1771681651404096800,0.2170966796875,0.005879404954612255,0.004810422193259001,0.006719320081174374
1771681651414454500,0.22745458984375,0.0028251686599105597,-0.009849912486970425,0.03298575058579445
1771681651424812300,0.237812255859375,0.004657710436731577,-0.00862821750342846,0.010995250195264816
1771681651435170000,0.248170166015625,0.0028251686599105597,-0.0165692325681448,0.01710372418165207
1771681651445527800,0.25852783203125,-0.0038941511884331703,0.0017561858985573053,0.024433890357613564
1771681651455885600,0.268885498046875,-0.0008399150101467967,-0.005573981441557407,0.0024433890357613564
1771681651466243300,0.279243408203125,0.0028251686599105597,-0.00129805039614439,0.010995250195264816
1771681651476601000,0.28960107421875,0.004046862944960594,-0.019623467698693275,0.017714571207761765
1771681651486958800,0.299958740234375,0.008322793990373611,-0.0293970238417387,-0.0024433890357613564
1771681651497316600,0.310316650390625,0.004046862944960594,-0.03245126083493233,0.006719320081174374
1771681651507674400,0.32067431640625,-0.002061609411612153,-0.012904148548841476,0.004275931045413017
1771681651518032100,0.3310322265625,0.0009926267666742206,-0.01901262067258358,-0.01588202826678753
1771681651528390000,0.341389892578125,0.0022143214009702206,-0.011071606539189816,0.006719320081174374
1771681651538747600,0.35174755859375,0.004657710436731577,-0.028786176815629005,0.0006108472589403391
1771681651549105400,0.36210546875,0.0064902519807219505,-0.03184041380882263,-0.011606098152697086
1771681651559463200,0.372463134765625,0.0028251686599105597,-0.012904148548841476,0.0018325417768210173
1771681651569821000,0.382821044921875,0.00038177953683771193,-0.00129805039614439,-0.010995250195264816
1771681651580178700,0.3931787109375,0.0034360159188508987,-0.006184828467667103,-0.022601349279284477
1771681651590536400,0.403536376953125,0.0028251686599105597,-0.00129805039614439,0.0024433890357613564
1771681651600894200,0.413894287109375,0.004657710436731577,-0.02023431472480297,-0.00916270911693573
1771681651611252000,0.424251953125,0.004657710436731577,-0.008017370477318764,-0.01588202826678753
1771681651621609700,0.434609619140625,-0.0038941511884331703,0.021303297951817513,-0.0036650835536420345
1771681651631967500,0.444967529296875,0.0009926267666742206,-0.007406522985547781,-0.020157959312200546
1771681651642325200,0.4553251953125,0.00038177953683771193,0.004810422193259001,-0.014049487188458443
1771681651652683000,0.46568310546875,0.0028251686599105597,-0.00862821750342846,0
1771681651663040800,0.476040771484375,0.0022143214009702206,-0.03733803704380989,-0.01038440316915512
1771681651673398500,0.4863984375,0.0009926267666742206,0.010308047756552696,-0.012216945178806782
1771681651683756300,0.49675634765625,-0.0032833039294928312,0.007253811229020357,-0.012827792204916477
1771681651694114000,0.507114013671875,-0.0051158457063138485,-0.009239064529538155,-0.01038440316915512
1771681651704471800,0.517471923828125,-0.002672456670552492,0.018249060958623886,-0.004886778071522713
1771681651714829600,0.52782958984375,-0.0008399150101467967,-0.028786176815629005,-0.006719320081174374
1771681651725187600,0.5381875,0.01748550310730934,-0.015958385542035103,-0.037261683493852615
1771681651735545300,0.54854541015625,0.0064902519807219505,0.006642963737249374,-0.01588202826678753
1771681651745903000,0.558903076171875,-0.0008399150101467967,0.0029778804164379835,-0.007941014133393764
1771681651756260900,0.5692607421875,-0.0008399150101467967,0.005421269219368696,0.0006108472589403391
1771681651766618600,0.57961865234375,0.0022143214009702206,-0.0031305921729654074,-0.004886778071522713
1771681651776976400,0.589976318359375,0.01748550310730934,-0.0165692325681448,-0.028098974376916885
1771681651797692000,0.61069189453125,0.0034360159188508987,-0.014736690558493137,0.0006108472589403391
1771681651808049700,0.621049560546875,0.004046862944960594,-0.01046075951308012,0
1771681651818407400,0.631407470703125,0.010766183026134968,-0.034283801913261414,-0.0018325417768210173
1771681651828765200,0.64176513671875,0.04130854457616806,-0.039170581847429276,-0.043981000781059265
1771681651839123000,0.652123046875,0.07246175408363342,-0.0019088976550847292,-0.021379653364419937
1771681651849480700,0.662480712890625,0.01748550310730934,-0.00007635590736754239,0.005497625097632408
1771681651859838500,0.67283837890625,0.0016034740256145597,-0.00862821750342846,0.009773556143045425
1771681651870196200,0.6831962890625,0.015652960166335106,-0.03306210786104202,-0.0397050715982914
1771681651880554000,0.693553955078125,0.06146650388836861,-0.09903360903263092,-0.0916270911693573
1771681651890911700,0.703911865234375,0.051082100719213486,-0.035505495965480804,-0.04886778071522713
1771681651901269500,0.71426953125,0.0034360159188508987,-0.0019088976550847292,0.0012216945178806782
1771681651911627300,0.724627197265625,0.00038177953683771193,0.0005344913806766272,0.0006108472589403391
1771681651921985000,0.734985107421875,0.008933641016483307,-0.024510245770215988,-0.03298575058579445
1771681651932342800,0.7453427734375,0.018096350133419037,-0.0019088976550847292,-0.06047387793660164
1771681651942700500,0.755700439453125,0.0064902519807219505,-0.004963133949786425,-0.010995250195264816
1771681651953058300,0.766058349609375,0.0064902519807219505,-0.0037414394319057465,-0.0018325417768210173
1771681651963416000,0.776416015625,0.012598725035786629,-0.015347537584602833,-0.012827792204916477
1771681651973773800,0.78677392578125,0.02298312820494175,-0.04772244393825531,-0.08612946420907974
1771681651984131600,0.797131591796875,0.033978380262851715,-0.044668205082416534,-0.06841489672660828
1771681651994489300,0.8074892578125,0.011377030052244663,0.0164165198802948,-0.004886778071522713
1771681652004847000,0.81784716796875,0.008933641016483307,0.005421269219368696,-0.0006108472589403391
1771681652015204900,0.828204833984375,0.022372281178832054,-0.03184041380882263,-0.028098974376916885
1771681652025562600,0.838562744140625,0.04619532451033592,-0.057496000081300735,-0.07635590434074402
1771681652035920400,0.84892041015625,0.04619532451033592,0.0005344913806766272,-0.024433890357613564
1771681652046278100,0.859278076171875,0.011377030052244663,0.0017561858985573053,0.007941014133393764
1771681652056636000,0.869635986328125,0.014431266114115715,-0.00129805039614439,0.0012216945178806782
1771681652066993700,0.87999365234375,0.04619532451033592,-0.01046075951308012,-0.042759306728839874
1771681652077351400,0.890351318359375,0.09506310522556305,-0.00862821750342846,-0.0397050715982914
1771681652087709200,0.900709228515625,0.11766445636749268,0.03168770298361778,0.009773556143045425
1771681652098067000,0.91106689453125,0.14515258371829987,0.05978667363524437,0.021990500390529633
1771681652108424700,0.9214248046875,0.1524827480316162,0.03779617324471474,-0.023212196305394173
1771681652118782500,0.931782470703125,0.1653105467557907,0.05184566229581833,-0.07452336698770523
1771681652129140200,0.94214013671875,0.14515258371829987,0.052456509321928024,-0.03176405653357506
1771681652139498000,0.952498046875,0.1005607321858406,0.0683385357260704,0.0018325417768210173
1771681652149855700,0.962855712890625,0.0755159929394722,0.011529741808772087,-0.022601349279284477
1771681652160213500,0.973213623046875,0.0889546349644661,-0.036727190017700195,-0.06413896381855011
1771681652170571300,0.9835712890625,0.11949699372053146,-0.015958385542035103,-0.0397050715982914
1771681652180929000,0.993928955078125,0.13537901639938354,0.08544225990772247,0.021379653364419937
1771681652191286800,1.004286865234375,0.14698512852191925,0.07444700598716736,0.020157959312200546
1771681652201644500,1.01464453125,0.14270919561386108,-0.0037414394319057465,-0.045202698558568954
1771681652212002300,1.025002197265625,0.21723255515098572,0.030466007068753242,-0.0647498071193695
1771681652222360000,1.035360107421875,0.16103461384773254,0.06284090876579285,-0.00916270911693573
1771681652232717800,1.0457177734375,0.13904410600662231,0.09399411827325821,0.03298575058579445
1771681652243075600,1.05607568359375,0.1139993667602539,0.04085041210055351,-0.01038440316915512
1771681652253433300,1.066433349609375,0.14576342701911926,0.034131091088056564,-0.05375456064939499
1771681652263791000,1.076791015625,0.12499462068080902,0.05428905040025711,-0.016492875292897224
1771681652274148900,1.08714892578125,0.09567394852638245,0.07566870748996735,0.044668205082416534
1771681652284506600,1.097506591796875,0.03703261539340019,0.020692450925707817,-0.007941014133393764
1771681652294864400,1.107864501953125,0.08162446320056915,0.0011453386396169662,-0.05741964280605316
1771681652305222100,1.11822216796875,0.11216682940721512,-0.00129805039614439,-0.031153209507465363
1771681652315580000,1.128579833984375,0.0626882016658783,0.022524992004036903,0.022601349279284477
1771681652325937700,1.138937744140625,0.03092414326965809,0.024968381971120834,0.012216945178806782
1771681652336295400,1.14929541015625,0.05596888065338135,-0.00129805039614439,-0.04337015375494957
1771681652346653200,1.159653076171875,0.11155597865581512,0.024968381971120834,-0.07207997888326645
1771681652357011000,1.170010986328125,0.04375193640589714,0.015805672854185104,0.005497625097632408
1771681652367368700,1.18036865234375,0.016874656081199646,0.02435753494501114,0.004275931045413017
1771681652377726500,1.1907265625,0.07368344813585281,-0.014736690558493137,-0.051922015845775604
1771681652388084200,1.201084228515625,0.12010784447193146,-0.00007635590736754239,-0.04947862774133682
1771681652398442000,1.21144189453125,0.04802786558866501,0.030466007068753242,0.03298575058579445
1771681652408799700,1.2217998046875,0.04619532451033592,0.04940227046608925,0.06849125027656555
1771681652419157500,1.232157470703125,0.07795938104391098,-0.025121092796325684,-0.028098974376916885
1771681652429515300,1.242515380859375,0.09933903813362122,-0.037948887795209885,-0.04703523963689804
1771681652439873000,1.252873046875,0.0889546349644661,0.010918894782662392,0.0489441379904747
1771681652450230800,1.263230712890625,0.13904410600662231,0.06711684167385101,0.10269869863986969
1771681652460588500,1.273588623046875,0.19096612930297852,0.07322531193494797,-0.006108472589403391
1771681652470946300,1.2839462890625,0.17080816626548767,-0.04283566400408745,-0.07024743407964706
1771681652481304000,1.294303955078125,0.12194038182497025,0.008475505746901035,0.02076880633831024
1771681652491661800,1.304661865234375,0.13843326270580292,0.08666395395994186,0.08437328040599823
1771681652502019600,1.31501953125,0.22517357766628265,0.0017561858985573053,-0.0397050715982914
1771681652512377300,1.32537744140625,0.30702710151672363,0.07933378964662552,-0.09956810623407364
1771681652522735000,1.335735107421875,0.27648472785949707,0.0689493864774704,0.03237490355968475
1771681652533092900,1.3460927734375,0.20196136832237244,0.07261446863412857,0.06543701142072678
1771681652543450600,1.35645068359375,0.11949699372053146,0.03779617324471474,-0.10873081535100937
1771681652553808400,1.366808349609375,0.18913358449935913,-0.00862821750342846,-0.12522368133068085
1771681652564166100,1.377166259765625,0.16042375564575195,0.03596363216638565,-0.051922015845775604
1771681652574524000,1.38752392578125,0.07979192584753036,-0.020845163613557816,0.007941014133393764
1771681652584881700,1.397881591796875,0.10544750839471817,0.07017108052968979,-0.06963659077882767
1771681652595239400,1.408239501953125,0.17569494247436523,0.24181915819644928,-0.12155860662460327
1771681652605597200,1.41859716796875,0.2068481594324112,0.027411770075559616,0.023212196305394173
1771681652615955000,1.428954833984375,0.17630578577518463,-0.06849125027656555,0.06910209357738495
1771681652626312700,1.439312744140625,0.09994988143444061,0.03229855000972748,-0.028098974376916885
1771681652636670500,1.44967041015625,0.11766445636749268,0.16668494045734406,-0.08246438205242157
1771681652647028200,1.4600283203125,0.10178242623806,0.004199574701488018,0.012827792204916477
1771681652657386000,1.470385986328125,0.05596888065338135,-0.026342788711190224,0.031153209507465363
1771681652667743700,1.48074365234375,0.10117157548666,0.06772769242525101,-0.05864133685827255
1771681652678101500,1.4911015625,0.2434989959001541,0.044515494257211685,-0.07574506103992462
1771681652688459300,1.501459228515625,0.21784339845180511,0.13919681310653687,-0.031153209507465363
1771681652698817000,1.511817138671875,0.15981291234493256,0.09338327497243881,-0.01588202826678753
1771681652709174800,1.5221748046875,0.22822780907154083,0.04085041210055351,-0.02870982140302658
1771681652719532500,1.532532470703125,0.24288813769817352,0.19050799310207367,-0.0397050715982914
1771681652729890300,1.542890380859375,0.22395187616348267,-0.025731941685080528,0.03855973482131958
1771681652740248000,1.553248046875,0.23433628678321838,0.06650599837303162,-0.029320668429136276
1771681652750605800,1.563605712890625,0.2838149070739746,0.1343100368976593,-0.09468132257461548
1771681652760963600,1.573963623046875,0.22456271946430206,0.052456509321928024,-0.024433890357613564
1771681652771321300,1.5843212890625,0.13537901639938354,0.022524992004036903,0.007941014133393764
1771681652781679000,1.59467919921875,0.10666920244693756,0.2503710091114044,-0.11911521852016449
1771681652792036900,1.605036865234375,0.14515258371829987,0.23509983718395233,-0.14110571146011353
1771681652802394600,1.61539453125,0.0761268362402916,0.044515494257211685,-0.007330167107284069
1771681652812752400,1.62575244140625,0.010766183026134968,0.02680092304944992,0.0006108472589403391
1771681652823110100,1.636110107421875,0.02542651630938053,0.02435753494501114,-0.012216945178806782
1771681652833468000,1.646468017578125,0.009544488042593002,0.00908635277301073,0.0006108472589403391
1771681652843825700,1.65682568359375,0.004046862944960594,0.013973130844533443,0.006108472589403391
1771681652854183400,1.667183349609375,0.024815669283270836,0.00908635277301073,-0.005497625097632408
1771681652864541200,1.677541259765625,0.02542651630938053,-0.0031305921729654074,-0.006719320081174374
1771681652874899000,1.68789892578125,0.0028251686599105597,0.0017561858985573053,-0.005497625097632408
1771681652885256700,1.698256591796875,-0.00022906772210262716,0.0029778804164379835,-0.006108472589403391
1771681652895614500,1.708614501953125,-0.002061609411612153,-0.000687203137204051,-0.010995250195264816
1771681652905972200,1.71897216796875,-0.00022906772210262716,-0.01046075951308012,-0.014660334214568138
1771681652916330000,1.729330078125,0.0016034740256145597,-0.006184828467667103,-0.0036650835536420345
1771681652926687700,1.739687744140625,-0.00022906772210262716,0.0011453386396169662,-0.006108472589403391
1771681652937045500,1.75004541015625,0.004046862944960594,-0.009239064529538155,-0.01588202826678753
1771681652947403300,1.7604033203125,0.005879404954612255,-0.004963133949786425,-0.004275931045413017
1771681652957761000,1.770760986328125,0.007711946498602629,0.013973130844533443,-0.0036650835536420345
1771681652968118800,1.781118896484375,0.01626380905508995,0.011529741808772087,-0.01832541823387146
1771681652978476500,1.7914765625,0.012598725035786629,-0.009849912486970425,-0.0030542362947016954
1771681652988834300,1.801834228515625,0.007101099472492933,0.014583977870643139,-0.0018325417768210173
1771681652999192000,1.812192138671875,0.004657710436731577,0.015805672854185104,-0.011606098152697086
1771681653009549800,1.8225498046875,0.0028251686599105597,0.013362283818423748,-0.015271181240677834
1771681653019907600,1.832907470703125,0.004046862944960594,0.0023670331574976444,-0.0006108472589403391
1771681653030265300,1.843265380859375,0.004046862944960594,0.007253811229020357,0.0024433890357613564
1771681653040623000,1.853623046875,0.0022143214009702206,0.0029778804164379835,-0.007941014133393764
1771681653050980900,1.86398095703125,0.004046862944960594,0.0023670331574976444,0.0012216945178806782
1771681653061338600,1.874338623046875,0.007711946498602629,-0.004352286923676729,0.007941014133393764
1771681653071696400,1.8846962890625,0.008322793990373611,-0.000687203137204051,0.0006108472589403391
1771681653082054100,1.89505419921875,0.005268557462841272,-0.0031305921729654074,0.0012216945178806782
1771681653092412000,1.905411865234375,0.008322793990373611,-0.009239064529538155,0.0006108472589403391
1771681653102769700,1.915769775390625,0.009544488042593002,-0.0031305921729654074,0.0030542362947016954
1771681653113127400,1.92612744140625,0.008322793990373611,-0.00862821750342846,-0.0024433890357613564
1771681653123485200,1.936485107421875,0.008322793990373611,-0.01046075951308012,0.0030542362947016954
1771681653133843000,1.946843017578125,0.0064902519807219505,-0.00862821750342846,0.007330167107284069
1771681653144200700,1.95720068359375,0.005268557462841272,-0.011071606539189816,-0.0006108472589403391
1771681653154558500,1.967558349609375,0.004046862944960594,-0.006184828467667103,0.004275931045413017
1771681653164916200,1.977916259765625,0.0028251686599105597,-0.009849912486970425,0.009773556143045425
1771681653175274000,1.98827392578125,0.005879404954612255,-0.00862821750342846,0.0036650835536420345
1771681653185631700,1.9986318359375,0.004657710436731577,-0.0019088976550847292,-0.0018325417768210173
1771681653195989500,2.008989501953125,0.0034360159188508987,0.004199574701488018,0.00916270911693573
1771681653206347300,2.01934716796875,0.0028251686599105597,0.008475505746901035,0
1771681653216705000,2.029705078125,0.007101099472492933,-0.000687203137204051,-0.0018325417768210173
1771681653227062800,2.040062744140625,0.010155336000025272,-0.00007635590736754239,0.0012216945178806782
1771681653237420500,2.050420654296875,0.013209572061896324,-0.004963133949786425,0.0006108472589403391
1771681653247778300,2.0607783203125,0.011987877078354359,-0.00862821750342846,-0.008551862090826035
1771681653258136000,2.071135986328125,0.015042114071547985,-0.008017370477318764,-0.0012216945178806782
1771681653268493800,2.081493896484375,0.016874656081199646,-0.004352286923676729,0.0006108472589403391
1771681653278851600,2.0918515625,0.024815669283270836,-0.02145601063966751,-0.012216945178806782
1771681653289209300,2.102209228515625,0.03336753323674202,-0.018401773646473885,-0.007941014133393764
1771681653299567000,2.112567138671875,0.007101099472492933,-0.008017370477318764,-0.006108472589403391
1771681653309924900,2.1229248046875,0.009544488042593002,-0.014736690558493137,-0.020157959312200546
1771681653320282600,2.13328271484375,0.010155336000025272,-0.03061871975660324,-0.021379653364419937
1771681653330640400,2.143640380859375,0.010155336000025272,-0.011682453565299511,-0.012216945178806782
1771681653340998100,2.153998046875,0.015652960166335106,-0.004963133949786425,-0.022601349279284477
1771681653351356000,2.16435595703125,0.01626380905508995,-0.03306210786104202,-0.022601349279284477
1771681653361713700,2.174713623046875,0.012598725035786629,-0.03061871975660324,0
1771681653372071400,2.185071533203125,0.01748550310730934,0.021914144977927208,-0.01954711228609085
1771681653382429400,2.195429443359375,0.04741701856255531,-0.03367295488715172,-0.01954711228609085
1771681653392787200,2.205787109375,0.04008685052394867,-0.06665870547294617,0.012216945178806782
1771681653403144700,2.216144775390625,0.014431266114115715,0.044515494257211685,-0.02626643143594265
1771681653413502700,2.226502685546875,0.0364217683672905,0.024968381971120834,-0.04703523963689804
1771681653423860500,2.236860595703125,0.023593975231051445,-0.026342788711190224,-0.0036650835536420345
1771681653434218200,2.24721826171875,0.005879404954612255,-0.0031305921729654074,-0.007941014133393764
1771681653444576000,2.257575927734375,0.014431266114115715,-0.00007635590736754239,-0.033596597611904144
1771681653454933800,2.267933837890625,0.007101099472492933,-0.031229566782712936,-0.0024433890357613564
1771681653465291500,2.27829150390625,0.005879404954612255,-0.0025197449140250683,-0.006719320081174374
1771681653475649300,2.288649169921875,0.01626380905508995,0.010308047756552696,-0.029320668429136276
1771681653486007000,2.299007080078125,0.014431266114115715,-0.05810684710741043,0.010995250195264816
1771681653496364800,2.30936474609375,0.012598725035786629,-0.0025197449140250683,0.005497625097632408
1771681653506722600,2.31972265625,0.02542651630938053,0.1074327602982521,-0.06658235192298889
1771681653517080300,2.330080322265625,0.03703261539340019,-0.00862821750342846,-0.006719320081174374
1771681653527438000,2.34043798828125,0.02176143415272236,-0.049554985016584396,0.03176405653357506
1771681653537795800,2.3507958984375,0.03214583545923233,0.06284090876579285,-0.04031591862440109
1771681653548153600,2.361153564453125,0.030313294380903244,0.0005344913806766272,-0.008551862090826035
1771681653558511400,2.371511474609375,0.02176143415272236,-0.03367295488715172,0.024433890357613564
1771681653568869000,2.381869140625,0.08040276914834976,0.11476293206214905,-0.0653606578707695
1771681653579227000,2.392226806640625,0.17569494247436523,0.16301986575126648,-0.09040539711713791
1771681653589584600,2.402584716796875,0.22456271946430206,-0.009239064529538155,0.01832541823387146
1771681653599942400,2.4129423828125,0.2068481594324112,0.07933378964662552,-0.034818295389413834
1771681653610300200,2.423300048828125,0.20073968172073364,0.05673243850469589,-0.034818295389413834
1771681653620658000,2.433657958984375,0.22883865237236023,-0.011682453565299511,0.007330167107284069
1771681653631015700,2.444015625,0.2868691384792328,0.11048699915409088,-0.06719319522380829
1771681653641373400,2.45437353515625,0.3015294671058655,0.1587439328432083,-0.07207997888326645
1771681653651731200,2.464731201171875,0.2966426908969879,0.03779617324471474,-0.023823043331503868
1771681653662089000,2.4750888671875,0.33207184076309204,-0.011682453565299511,-0.02748812735080719
1771681653672446700,2.48544677734375,0.4017084240913391,-0.08987089991569519,0.004275931045413017
1771681653682804500,2.495804443359375,0.4291965663433075,0.02435753494501114,-0.02748812735080719
1771681653693162200,2.506162353515625,0.4065952003002167,0.11720632016658783,-0.08002099394798279
1771681653703520000,2.51652001953125,0.3503972589969635,0.05734328553080559,-0.054365407675504684
1771681653713877800,2.526877685546875,0.308859646320343,0.2656421959400177,-0.11300674080848694
1771681653724235500,2.537235595703125,0.2612135708332062,0.463556706905365,-0.22662433981895447
1771681653734593300,2.54759326171875,0.20012883841991425,0.3823140263557434,-0.17470231652259827
1771681653744951000,2.557950927734375,0.24166645109653473,0.3077906668186188,-0.16798299551010132
1771681653755308800,2.568308837890625,0.38399386405944824,0.28763270378112793,-0.19363857805728912
1771681653765666600,2.57866650390625,0.3736094534397125,0.1624090075492859,-0.07146912813186646
1771681653776024300,2.5890244140625,0.4139253795146942,0.0952158197760582,-0.07207997888326645
1771681653786382000,2.599382080078125,0.47806432843208313,0.250981867313385,-0.1185043677687645
1771681653796739800,2.60973974609375,0.4536304473876953,0.044515494257211685,-0.014049487188458443
1771681653807097600,2.62009765625,0.46401485800743103,0.22838051617145538,-0.13316470384597778
1771681653817455400,2.630455322265625,0.48905959725379944,0.3187859058380127,-0.17897824943065643
1771681653827813000,2.640813232421875,0.4035409688949585,0.09032903611660004,-0.038483377546072006
1771681653838171000,2.6511708984375,0.34551048278808594,0.1740151196718216,-0.06902574002742767
1771681653848528600,2.661528564453125,0.34551048278808594,0.2656421959400177,-0.12827792763710022
1771681653858886400,2.671886474609375,0.2208976447582245,0.08483141660690308,-0.021379653364419937
1771681653869244200,2.682244140625,0.1396549493074417,0.15630054473876953,-0.043981000781059265
1771681653879602000,2.692601806640625,0.1408766508102417,0.04756972938776016,-0.021379653364419937
1771681653889959700,2.702959716796875,0.10483665764331818,-0.03733803704380989,0.026877280324697495
1771681653900317400,2.7133173828125,0.1530935913324356,0.07566870748996735,-0.025655584409832954
1771681653910675200,2.72367529296875,0.19524206221103668,0.05428905040025711,-0.02076880633831024
1771681653921033000,2.734032958984375,0.1543152928352356,0.03840702027082443,-0.004886778071522713
1771681653931390700,2.744390625,0.13110309839248657,0.08971819281578064,-0.04886778071522713
1771681653941748500,2.75474853515625,0.0749051421880722,0.0561215914785862,-0.020157959312200546
1771681653952106200,2.765106201171875,0.033978380262851715,0.0420721061527729,-0.017714571207761765
1771681653962464000,2.775464111328125,0.01748550310730934,0.04695888236165047,-0.013438640162348747
1771681653972821800,2.78582177734375,0.008933641016483307,0.017027366906404495,0.018936265259981155
1771681653983179500,2.796179443359375,0.03092414326965809,0.05795413255691528,-0.014660334214568138
1771681653993537300,2.806537353515625,0.026037365198135376,0.010308047756552696,0.007941014133393764
1771681654003895000,2.81689501953125,0.0028251686599105597,0.009697199799120426,0.006719320081174374
1771681654014252800,2.827252685546875,-0.008780929259955883,-0.008017370477318764,-0.014049487188458443
1771681654024610600,2.837610595703125,-0.018554486334323883,-0.019623467698693275,-0.015271181240677834
1771681654034968300,2.84796826171875,-0.0008399150101467967,-0.047111593186855316,-0.012827792204916477
1771681654045326000,2.858326171875,0.0064902519807219505,-0.027564482763409615,-0.026877280324697495
1771681654055683800,2.868683837890625,-0.006337540224194527,-0.05016583204269409,0.014049487188458443
1771681654066041600,2.87904150390625,-0.002061609411612153,-0.007406522985547781,-0.0036650835536420345
1771681654076399400,2.8893994140625,0.004657710436731577,-0.0025197449140250683,-0.01832541823387146
1771681654086757000,2.899757080078125,0.009544488042593002,-0.031229566782712936,0.0012216945178806782
1771681654097115000,2.910114990234375,0.04558447748422623,-0.015958385542035103,-0.012216945178806782
1771681654107472600,2.92047265625,0.09323056042194366,0.007253811229020357,-0.009773556143045425
1771681654117830400,2.930830322265625,0.08406785130500793,0.02680092304944992,-0.020157959312200546
1771681654128188200,2.941188232421875,0.05169294774532318,0.0035887276753783226,-0.022601349279284477
1771681654138546000,2.9515458984375,0.010766183026134968,-0.04222481697797775,-0.0036650835536420345
1771681654148903700,2.961903564453125,0.007101099472492933,-0.05444176122546196,-0.0024433890357613564
1771681654159261400,2.972261474609375,0.010766183026134968,-0.040392275899648666,-0.014049487188458443
1771681654169619200,2.982619140625,0.01626380905508995,-0.05444176122546196,0.009773556143045425
1771681654179977200,2.992977294921875,0.015042114071547985,-0.03367295488715172,0.0030542362947016954
1771681654190335000,3.0033349609375,0.011377030052244663,-0.022677704691886902,0.005497625097632408
1771681654200692700,3.013692626953125,0.021150587126612663,-0.028786176815629005,0.014660334214568138
1771681654211050500,3.024050537109375,0.0761268362402916,0.013362283818423748,-0.004275931045413017
1771681654221408300,3.034408203125,0.08223531395196915,-0.01046075951308012,0.021379653364419937
1771681654231766000,3.04476611328125,0.09200886636972427,0.06345175951719284,0
1771681654242123800,3.055123779296875,0.11277767270803452,0.04512634128332138,0
1771681654252481500,3.0654814453125,0.09200886636972427,0.0683385357260704,0.008551862090826035
1771681654262839300,3.07583935546875,0.06085565686225891,0.028633465990424156,0.008551862090826035
1771681654273197000,3.086197021484375,0.009544488042593002,0.018249060958623886,0.023212196305394173
1771681654283554800,3.096554931640625,0.00038177953683771193,0.0420721061527729,0.011606098152697086
1771681654293912600,3.10691259765625,-0.0008399150101467967,0.031076854094862938,0.005497625097632408
1771681654304270300,3.117270263671875,-0.0038941511884331703,0.024968381971120834,0.023212196305394173
1771681654314628000,3.127628173828125,-0.0008399150101467967,0.0164165198802948,0.006719320081174374
1771681654324985900,3.13798583984375,-0.002672456670552492,0.01763821393251419,0.008551862090826035
1771681654335343600,3.148343505859375,-0.005726693198084831,0.006642963737249374,0.009773556143045425
1771681654345701400,3.158701416015625,-0.0032833039294928312,-0.000687203137204051,0.0030542362947016954
1771681654356059100,3.16905908203125,-0.006337540224194527,0.013973130844533443,0.00916270911693573
1771681654366417000,3.1794169921875,-0.004504998680204153,0.029855160042643547,-0.01832541823387146
1771681654376774700,3.189774658203125,-0.002061609411612153,-0.014736690558493137,0.007330167107284069
1771681654387132400,3.20013232421875,0.004657710436731577,0.006642963737249374,0.006108472589403391
1771681654397490200,3.210490234375,0.028480753302574158,0.06406260281801224,-0.03542914241552353
1771681654407848000,3.220847900390625,0.021150587126612663,0.029855160042643547,-0.016492875292897224
1771681654418205700,3.231205810546875,0.02176143415272236,0.012140588834881783,0.005497625097632408
1771681654428563500,3.2415634765625,0.06757497787475586,0.023746687918901443,0.005497625097632408
1771681654438921200,3.251921142578125,0.09628479927778244,0.06528430432081223,-0.023212196305394173
1771681654449279000,3.262279052734375,0.1274380087852478,0.10621106624603271,-0.053143709897994995
1771681654459636700,3.27263671875,0.09750649333000183,-0.0165692325681448,-0.0006108472589403391
1771681654469994500,3.282994384765625,0.05291464552283287,0.0017561858985573053,-0.02626643143594265
1771681654480352300,3.293352294921875,0.011987877078354359,0.006032116711139679,0.006719320081174374
1771681654490710000,3.3037099609375,0.007101099472492933,-0.004963133949786425,0.006108472589403391
1771681654501067800,3.31406787109375,0.013209572061896324,0.0035887276753783226,-0.0006108472589403391
1771681654511425500,3.324425537109375,0.012598725035786629,0.007253811229020357,0.017714571207761765
1771681654521783300,3.334783203125,0.012598725035786629,-0.0165692325681448,0.004275931045413017
1771681654532141000,3.34514111328125,0.044362783432006836,0.018249060958623886,0.0006108472589403391
1771681654542498800,3.355498779296875,0.12132953852415085,-0.009849912486970425,0.012827792204916477
1771681654552856600,3.365856689453125,0.13293562829494476,0.0231358390301466,-0.0024433890357613564
1771681654563214300,3.37621435546875,0.04253023862838745,-0.02145601063966751,0.018936265259981155
1771681654573572400,3.386572265625,0.019928891211748123,-0.023899398744106293,-0.02504473738372326
1771681654583930000,3.39693017578125,0.026037365198135376,-0.018401773646473885,-0.01954711228609085
1771681654594287900,3.407287841796875,0.026037365198135376,-0.049554985016584396,-0.006719320081174374
1771681654604645600,3.417645751953125,0.005879404954612255,0.015194825828075409,0.006108472589403391
1771681654615016000,3.428015869140625,0.012598725035786629,-0.049554985016584396,0.00916270911693573
1771681654625361200,3.438361083984375,0.035200074315071106,0.026190076023340225,-0.0018325417768210173
1771681654635739400,3.448739501953125,0.05413633957505226,-0.015347537584602833,0.039170581847429276
1771681654646076700,3.45907666015625,0.09994988143444061,-0.057496000081300735,-0.061084724962711334
1771681654656463000,3.469463134765625,0.18852274119853973,-0.027564482763409615,-0.06780404597520828
1771681654666792200,3.479792236328125,0.15065020322799683,0.006032116711139679,-0.02076880633831024
1771681654677156400,3.49015625,0.16408884525299072,-0.012293301522731781,-0.045202698558568954
1771681654687507700,3.5005078125,0.18180342018604279,0.010308047756552696,-0.004275931045413017
1771681654697879800,3.5108798828125,0.13110309839248657,0.0231358390301466,0.025655584409832954
1771681654708223200,3.52122314453125,0.05230379477143288,0.008475505746901035,0.008551862090826035
1771681654718603500,3.531603515625,0.03214583545923233,-0.05688514932990074,-0.020157959312200546
1771681654728938800,3.541938720703125,0.11888615041971207,0.028633465990424156,0.0006108472589403391
1771681654739296500,3.552296630859375,0.14576342701911926,0.013973130844533443,0.03733803704380989
1771681654749654300,3.562654296875,0.1927986592054367,0.044515494257211685,-0.025655584409832954
1771681654760012000,3.573011962890625,0.25143998861312866,0.08483141660690308,-0.02626643143594265
1771681654770369800,3.583369873046875,0.1799708753824234,-0.009849912486970425,0.025655584409832954
1771681654780727600,3.5937275390625,0.0755159929394722,-0.011682453565299511,0.0489441379904747
1771681654791085300,3.604085205078125,0.005879404954612255,-0.0031305921729654074,0.02748812735080719
1771681654801443000,3.614443115234375,-0.0032833039294928312,-0.005573981441557407,0.028098974376916885
1771681654811800800,3.62480078125,-0.0008399150101467967,0.0029778804164379835,0.03489464893937111
1771681654822158600,3.63515869140625,0.03825430944561958,0.019470756873488426,0.040392275899648666
1771681654832516400,3.645516357421875,0.13843326270580292,0.04512634128332138,0.02748812735080719
1771681654842874000,3.6558740234375,0.18546849489212036,0.10498937219381332,0.008551862090826035
1771681654853231900,3.66623193359375,0.11949699372053146,0.07139277458190918,0.02504473738372326
1771681654863589600,3.676589599609375,0.06085565686225891,0.04085041210055351,0.023212196305394173
1771681654873947400,3.686947509765625,-0.006337540224194527,0.0005344913806766272,0.02993151545524597
1771681654884305200,3.69730517578125,-0.019776180386543274,-0.011071606539189816,0.023212196305394173
1771681654894663000,3.707662841796875,-0.016111096367239952,-0.0067956759594380856,0.024433890357613564
1771681654905020700,3.718020751953125,-0.010002624243497849,-0.02817532978951931,0.036727190017700195
1771681654915378400,3.72837841796875,-0.008170082233846188,-0.011071606539189816,0.004275931045413017
1771681654925736200,3.738736083984375,-0.009391776286065578,-0.02695363573729992,0.016492875292897224
1771681654936094000,3.749093994140625,0.02053973823785782,-0.02695363573729992,0.006108472589403391
1771681654946451700,3.75945166015625,0.039476003497838974,-0.022677704691886902,-0.009773556143045425
1771681654956809500,3.7698095703125,-0.023441264405846596,-0.044668205082416534,-0.004886778071522713
1771681654967167200,3.780167236328125,-0.02710634656250477,-0.028786176815629005,-0.0024433890357613564
1771681654977525200,3.790525146484375,-0.026495499536395073,-0.039170581847429276,-0.009773556143045425
1771681654987883000,3.800883056640625,-0.024662958458065987,-0.02695363573729992,-0.009773556143045425
1771681654998240800,3.81124072265625,-0.008780929259955883,-0.03061871975660324,0.006719320081174374
1771681655008598500,3.8215986328125,0.033978380262851715,-0.01901262067258358,-0.016492875292897224
1771681655018956300,3.831956298828125,0.04680617153644562,-0.006184828467667103,-0.015271181240677834
1771681655029314000,3.84231396484375,0.051082100719213486,-0.000687203137204051,-0.008551862090826035
1771681655039671800,3.852671875,0.09628479927778244,0.03474193811416626,-0.018936265259981155
1771681655050029600,3.863029541015625,0.07979192584753036,0.0035887276753783226,-0.016492875292897224
1771681655060387300,3.87338720703125,0.02542651630938053,0.024968381971120834,0.0012216945178806782
1771681655070745000,3.8837451171875,0.026037365198135376,0.01763821393251419,0.04161396995186806
1771681655081102800,3.894102783203125,0.029091600328683853,0.03290939703583717,0.016492875292897224
1771681655091460600,3.904460693359375,0.009544488042593002,0.02557922899723053,-0.01038440316915512
1771681655101818400,3.914818359375,0.010766183026134968,0.034131091088056564,0.0024433890357613564
1771681655112176000,3.925176025390625,0.0364217683672905,0.029855160042643547,0.024433890357613564
1771681655122534000,3.935533935546875,0.0626882016658783,0.06650599837303162,-0.04092676565051079
1771681655132891600,3.9458916015625,0.10178242623806,0.0231358390301466,-0.015271181240677834
1771681655143249400,3.95624951171875,0.06085565686225891,-0.00862821750342846,0.00916270911693573
1771681655153607200,3.966607177734375,0.018707197159528732,0.01885990984737873,-0.014049487188458443
1771681655163965000,3.97696484375,-0.02283041551709175,0.03229855000972748,-0.03542914241552353
1771681655174322700,3.98732275390625,-0.048486001789569855,0.02557922899723053,-0.007330167107284069
1771681655184680400,3.997680419921875,-0.05031854286789894,0.009697199799120426,-0.004275931045413017
1771681655195038200,4.0080380859375,-0.04909684881567955,0.02557922899723053,-0.02504473738372326
1771681655205396000,4.01839599609375,-0.05154023692011833,0.009697199799120426,-0.014049487188458443
1771681655215753700,4.028753662109375,-0.06131379306316376,0.006642963737249374,-0.014660334214568138
1771681655226111500,4.039111572265625,-0.056427016854286194,-0.004352286923676729,-0.016492875292897224
1771681655236469200,4.04946923828125,-0.058870404958724976,-0.025731941685080528,-0.01710372418165207
1771681655246827000,4.059826904296875,-0.0552053228020668,-0.0067956759594380856,-0.018936265259981155
1771681655257184800,4.070184814453125,-0.05337277799844742,-0.023899398744106293,-0.018936265259981155
1771681655267542500,4.08054248046875,-0.049707695841789246,-0.00007635590736754239,-0.020157959312200546
1771681655277900300,4.090900390625,-0.048486001789569855,-0.023288551717996597,-0.014049487188458443
1771681655288258000,4.101258056640625,-0.049707695841789246,0.0023670331574976444,-0.009773556143045425
1771681655298615800,4.11161572265625,-0.04787515476346016,-0.03245126083493233,-0.008551862090826035
1771681655308973600,4.1219736328125,-0.05459447205066681,0.004810422193259001,-0.007330167107284069
1771681655319331300,4.132331298828125,-0.0552053228020668,-0.009849912486970425,0.0036650835536420345
1771681655329689300,4.142689453125,-0.057648710906505585,-0.01046075951308012,-0.0012216945178806782
1771681655340047000,4.153047119140625,-0.056427016854286194,-0.0019088976550847292,-0.004886778071522713
1771681655350404900,4.16340478515625,-0.056427016854286194,-0.0019088976550847292,-0.006108472589403391
1771681655360762600,4.1737626953125,-0.05459447205066681,0.0029778804164379835,-0.0006108472589403391
1771681655371120400,4.184120361328125,-0.04909684881567955,0.0035887276753783226,-0.009773556143045425
1771681655381478100,4.19447802734375,-0.05276193097233772,0.02435753494501114,-0.00916270911693573
1771681655391836000,4.2048359375,-0.05215108394622803,0.009697199799120426,-0.0024433890357613564
1771681655402193700,4.215193603515625,-0.05703786388039589,0.02008160389959812,-0.007330167107284069
1771681655412551400,4.225551513671875,-0.05276193097233772,0.007253811229020357,-0.006719320081174374
1771681655422909200,4.2359091796875,-0.058870404958724976,0.008475505746901035,-0.0012216945178806782
1771681655433267000,4.246266845703125,-0.05337277799844742,0.004810422193259001,-0.007330167107284069
1771681655443624700,4.256624755859375,-0.053983625024557114,0.00908635277301073,-0.0030542362947016954
1771681655453982500,4.266982421875,-0.05276193097233772,-0.007406522985547781,0.0006108472589403391
1771681655464340200,4.27734033203125,-0.05215108394622803,0.007253811229020357,-0.02076880633831024
1771681655474698000,4.287697998046875,-0.04909684881567955,-0.00862821750342846,-0.006108472589403391
1771681655485055700,4.2980556640625,-0.05031854286789894,-0.004352286923676729,0.0018325417768210173
1771681655495413500,4.30841357421875,-0.05154023692011833,-0.005573981441557407,-0.00916270911693573
1771681655505771300,4.318771240234375,-0.053983625024557114,-0.007406522985547781,-0.006719320081174374
1771681655516129000,4.32912890625,-0.049707695841789246,-0.0165692325681448,0.012216945178806782
1771681655526486800,4.33948681640625,-0.050929389894008636,-0.004352286923676729,-0.0006108472589403391
1771681655536844500,4.349844482421875,-0.050929389894008636,0.0035887276753783226,0.0024433890357613564
1771681655547202300,4.360202392578125,-0.04909684881567955,-0.0025197449140250683,0.008551862090826035
1771681655557560000,4.37056005859375,-0.05276193097233772,-0.011682453565299511,0.0018325417768210173
1771681655567917800,4.380917724609375,-0.06131379306316376,-0.03367295488715172,-0.0006108472589403391
1771681655578275600,4.391275634765625,-0.11690089106559753,-0.16378341615200043,0.030542362481355667
1771681655588633300,4.40163330078125,-0.26961269974708557,-0.17355698347091675,0.03176405653357506
1771681655598991400,4.411991455078125,-0.5060105919837952,-0.1674485057592392,0.05688514932990074
1771681655609349000,4.42234912109375,-0.7779139876365662,-0.3244362473487854,0.15645325183868408
1771681655619707000,4.432706787109375,-1.0094250440597534,-0.44965994358062744,0.16134002804756165
1771681655630064600,4.443064697265625,-1.1022738218307495,-0.4514924883842468,0.15034478902816772
1771681655640422400,4.45342236328125,-1.1798515319824219,-0.39895960688591003,0.13446275889873505
1771681655650780200,4.4637802734375,-1.2604832649230957,-0.29145050048828125,0.08742751181125641
1771681655661138000,4.474137939453125,-1.3270657062530518,-0.27617931365966797,0.08498412370681763
1771681655671495700,4.48449560546875,-1.294690728187561,-0.11552648991346359,0.08620581775903702
1771681655681853400,4.494853515625,-1.2134480476379395,-0.2315874695777893,0.06910209357738495
1771681655692211200,4.505211181640625,-1.0753966569900513,-0.03855973482131958,0.04100312292575836
1771681655702569000,4.51556884765625,-0.984991192817688,-0.5058578848838806,0.2205922156572342
1771681655712926700,4.5259267578125,-0.9403993487358093,-0.49913856387138367,0.2193705290555954
1771681655723284500,4.536284423828125,-0.8322793841362,-0.2047101855278015,0.11186140775680542
1771681655733642200,4.546642333984375,-0.7332457900047302,-0.2578538954257965,0.14851224422454834
1771681655744000000,4.557,-0.6758261322975159,-0.3384857475757599,0.22364644706249237
1771681655754357800,4.567357666015625,-0.6269583702087402,-0.2627406716346741,0.15950748324394226
1771681655764715500,4.577715576171875,-0.5854207277297974,-0.11980241537094116,0.08620581775903702
1771681655775073300,4.5880732421875,-0.5689278841018677,-0.3128301501274109,0.1424037665128708
1771681655785431000,4.59843115234375,-0.5322770476341248,-0.33298811316490173,0.16500511765480042
1771681655795788800,4.608788818359375,-0.49562618136405945,-0.13140851259231567,0.07337802648544312
1771681655806146600,4.619146484375,-0.4235462248325348,-0.01901262067258358,0.04100312292575836
1771681655816504300,4.62950439453125,-0.27266693115234375,-0.08559497445821762,0.05077667906880379
1771681655826862000,4.639862060546875,-0.06192464008927345,0.07994463294744492,0.023212196305394173
1771681655837219800,4.6502197265625,-0.040544986724853516,0.05428905040025711,0.021990500390529633
1771681655847577600,4.66057763671875,-0.03993413969874382,0.008475505746901035,0.006719320081174374
1771681655857935400,4.670935302734375,-0.03993413969874382,0.04756972938776016,0.004275931045413017
1771681655868293000,4.681293212890625,-0.038101598620414734,-0.000687203137204051,0.026877280324697495
1771681655878651000,4.69165087890625,-0.03321481868624687,0.0689493864774704,-0.007330167107284069
1771681655889008600,4.702008544921875,-0.03871244564652443,0.035352785140275955,-0.006108472589403391
1771681655899366400,4.712366455078125,-0.0680331140756607,0.04146125912666321,0.0012216945178806782
1771681655909724200,4.72272412109375,-0.11018157750368118,-0.004963133949786425,0.005497625097632408
1771681655920082000,4.73308203125,-0.08025006204843521,0.018249060958623886,0
1771681655930440000,4.74343994140625,-0.07841751724481583,0.0029778804164379835,0.014049487188458443
1771681655940797700,4.753797607421875,-0.06620056927204132,-0.018401773646473885,0.015271181240677834
1771681655951155500,4.764155517578125,-0.08025006204843521,0.011529741808772087,0.004886778071522713
1771681655961513200,4.77451318359375,-0.15599511563777924,-0.006184828467667103,0.0361163429915905
1771681655971871000,4.78487109375,-0.267169326543808,-0.1533990204334259,0.06055023521184921
1771681655982228700,4.795228759765625,-0.3465794622898102,-0.09109259396791458,0.02748812735080719
1771681655992586500,4.80558642578125,-0.33986014127731323,-0.14729054272174835,0.10697462409734726
1771681656002944300,4.8159443359375,-0.3050418496131897,-0.1668376624584198,0.1259108930826187
1771681656013302000,4.826302001953125,-0.2934357523918152,-0.13324105739593506,0.06665870547294617
1771681656023659800,4.83665966796875,-0.18042901158332825,-0.025731941685080528,0.03176405653357506
1771681656034017500,4.847017578125,-0.12606360018253326,-0.03978142887353897,0.037948887795209885
1771681656044375300,4.857375244140625,-0.1340046226978302,0.0035887276753783226,-0.00916270911693573
1771681656054733000,4.867733154296875,-0.04115583375096321,-0.012293301522731781,0.014660334214568138
1771681656065090800,4.8780908203125,0.024815669283270836,0.02008160389959812,-0.007330167107284069
1771681656075448600,4.888448486328125,0.0620773509144783,0.09338327497243881,-0.04703523963689804
1771681656085806300,4.898806396484375,0.17691664397716522,0.13186664879322052,-0.07146912813186646
1771681656096164000,4.9091640625,0.31863319873809814,0.21677441895008087,-0.11178504675626755
1771681656106521900,4.91952197265625,0.4017084240913391,0.2558686435222626,-0.16553960740566254
1771681656116879600,4.929879638671875,0.4316399395465851,0.16607409715652466,-0.17714570462703705
1771681656127237400,4.9402373046875,0.4560738205909729,0.15263545513153076,-0.2608317732810974
1771681656137595100,4.95059521484375,0.5098283886909485,0.27419406175613403,-0.29565006494522095
1771681656147953000,4.960952880859375,0.5281538367271423,0.2112767994403839,-0.3268032968044281
1771681656158310700,4.971310546875,0.5061632990837097,0.15446799993515015,-0.4037700295448303
1771681656168668400,4.98166845703125,0.47806432843208313,0.12881241738796234,-0.5674771070480347
1771681656179026200,4.992026123046875,0.4572955369949341,-0.03245126083493233,-0.6041279435157776
1771681656189384000,5.002384033203125,0.33146098256111145,-0.9853729605674744,-0.5015056133270264
1771681656199741700,5.01274169921875,0.16042375564575195,-1.0934929847717285,-0.5570927262306213
1771681656210099500,5.023099365234375,-0.07353074103593826,-1.031186580657959,-0.5564818382263184
1771681656220457200,5.033457275390625,-0.22074492275714874,-0.7807391285896301,-0.4416425824165344
1771681656230815000,5.04381494140625,-0.373456746339798,-0.5449520945549011,-0.34573954343795776
1771681656241172700,5.0541728515625,-0.4492017924785614,0.14225105941295624,-0.021379653364419937
1771681656251530800,5.06453076171875,-0.4608078896999359,0.03474193811416626,-0.06169557198882103
1771681656261888500,5.074888427734375,-0.44187164306640625,-0.22425730526447296,-0.17592400312423706
1771681656272246300,5.085246337890625,-0.4620296061038971,0.0817771777510643,-0.08612946420907974
1771681656282604000,5.09560400390625,-0.48279839754104614,-0.07704310864210129,-0.13744063675403595
1771681656292961800,5.1059619140625,-0.5218926072120667,0.10682191699743271,-0.07207997888326645
1771681656303319600,5.116319580078125,-0.5921400785446167,-0.23525254428386688,-0.13438639044761658
1771681656313677300,5.12667724609375,-0.5976377129554749,-0.06421531736850739,-0.06902574002742767
1771681656324035000,5.13703515625,-0.5780905485153198,0.13125580549240112,-0.042759306728839874
1771681656334392800,5.147392822265625,-0.5249468684196472,-0.17783290147781372,-0.10323318839073181
1771681656344750600,5.15775048828125,-0.5084539651870728,-0.3745257258415222,-0.07574506103992462
1771681656355108400,5.1681083984375,-0.5689278841018677,-0.3739148676395416,-0.07146912813186646
1771681656365466000,5.178466064453125,-0.6281800270080566,-0.33176642656326294,-0.07757759839296341
1771681656375824000,5.188823974609375,-0.759512186050415,0.17951273918151855,-0.04886778071522713
1771681656386181600,5.199181640625,-0.8310576677322388,0.18073442578315735,-0.05619794875383377
1771681656396539400,5.209539306640625,-0.7760814428329468,0.05123481526970863,-0.09956810623407364
1771681656406897200,5.219897216796875,-0.7387434244155884,-0.030007870867848396,-0.10995250940322876
1771681656417255000,5.2302548828125,-0.634899377822876,-0.10941801220178604,-0.09345962852239609
1771681656427612700,5.24061279296875,-0.5493807792663574,-0.004963133949786425,-0.10323318839073181
1771681656437970400,5.250970458984375,-0.4064424932003021,-0.09964445978403091,-0.055587101727724075
1771681656448328200,5.261328125,-0.26045000553131104,-0.11858072131872177,-0.09834641218185425
1771681656458686000,5.27168603515625,-0.14194563031196594,-0.2193705290555954,-0.08612946420907974
1771681656469043700,5.282043701171875,-0.09307785332202911,-0.14729054272174835,-0.06291726976633072
1771681656479401500,5.2924013671875,-0.07475243508815765,-0.18577392399311066,-0.051922015845775604
1771681656489759500,5.302759521484375,-0.06375718116760254,-0.08620581775903702,-0.07452336698770523
1771681656500117200,5.3131171875,-0.03077143058180809,-0.014125842601060867,-0.023212196305394173
1771681656510475000,5.32347509765625,-0.014889402315020561,0.009697199799120426,-0.014049487188458443
1771681656520832800,5.333832763671875,-0.03626905754208565,-0.018401773646473885,-0.01038440316915512
1771681656531190500,5.3441904296875,-0.05337277799844742,-0.005573981441557407,-0.009773556143045425
1771681656541548300,5.35454833984375,-0.04543176665902138,-0.03245126083493233,-0.005497625097632408
1771681656551906000,5.364906005859375,-0.039323292672634125,-0.017180079594254494,-0.012216945178806782
1771681656562263800,5.375263916015625,-0.03871244564652443,-0.0031305921729654074,-0.004886778071522713
1771681656572621600,5.38562158203125,-0.040544986724853516,-0.02695363573729992,-0.0036650835536420345
1771681656582979300,5.395979248046875,-0.04115583375096321,-0.02023431472480297,0.0012216945178806782
1771681656593337000,5.406337158203125,-0.04359922185540199,-0.031229566782712936,0.012216945178806782
1771681656603694800,5.41669482421875,-0.047264307737350464,-0.012904148548841476,0.024433890357613564
1771681656614052600,5.427052490234375,-0.05031854286789894,0.012140588834881783,0.026877280324697495
1771681656624410400,5.437410400390625,-0.049707695841789246,-0.0037414394319057465,0.03489464893937111
1771681656634768100,5.44776806640625,-0.04421006888151169,0.05306735634803772,0.028098974376916885
1771681656645126000,5.4581259765625,-0.03871244564652443,0.006642963737249374,0.044668205082416534
1771681656655483600,5.468483642578125,-0.038101598620414734,0.018249060958623886,0.03298575058579445
1771681656665841400,5.47884130859375,-0.048486001789569855,-0.02145601063966751,0.03176405653357506
1771681656676199200,5.48919921875,-0.05276193097233772,0.03718532621860504,0.03733803704380989
1771681656686557000,5.499556884765625,-0.056427016854286194,0.04085041210055351,0.039170581847429276
1771681656696914700,5.509914794921875,-0.06070294603705406,-0.004963133949786425,0.01588202826678753
1771681656707272400,5.5202724609375,-0.04787515476346016,0.03290939703583717,0.03176405653357506
1771681656717630200,5.530630126953125,-0.028938889503479004,0.026190076023340225,0.058717694133520126
1771681656727988000,5.540988037109375,-0.02405211143195629,-0.05810684710741043,0.01710372418165207
1771681656738345700,5.551345703125,0.015042114071547985,-0.06543701142072678,0.0018325417768210173
1771681656748703500,5.561703369140625,-0.0032833039294928312,0.11964970827102661,0.06482616811990738
1771681656759061200,5.572061279296875,-0.08330429345369339,-0.009849912486970425,0.015271181240677834
1771681656769419000,5.5824189453125,-0.1211768239736557,-0.1808871477842331,-0.05008947476744652
1771681656779776800,5.59277685546875,-0.1211768239736557,-0.036727190017700195,-0.010995250195264816
1771681656790134500,5.603134521484375,-0.09918632358312607,0.004810422193259001,0.021990500390529633
1771681656800492300,5.6134921875,-0.08513683825731277,-0.000687203137204051,0.007330167107284069
1771681656810850300,5.623850341796875,-0.06681142002344131,-0.013514995574951172,0.0036650835536420345
1771681656821208000,5.6342080078125,-0.0692548081278801,-0.013514995574951172,0.01588202826678753
1771681656831565800,5.64456591796875,-0.07780666649341583,-0.012904148548841476,0.02504473738372326
1771681656841923600,5.654923583984375,-0.06253548711538315,-0.0031305921729654074,0.01038440316915512
1771681656852281300,5.66528125,-0.057648710906505585,-0.009849912486970425,0.007941014133393764
1771681656862639000,5.67563916015625,-0.04543176665902138,-0.00007635590736754239,0.0030542362947016954
1771681656872996900,5.685996826171875,-0.04359922185540199,0.02435753494501114,0
1771681656883354600,5.696354736328125,-0.04115583375096321,0.011529741808772087,-0.0012216945178806782
1771681656893712400,5.70671240234375,-0.04421006888151169,0.011529741808772087,-0.01832541823387146
1771681656904070100,5.717070068359375,-0.04359922185540199,0.005421269219368696,0.0018325417768210173
1771681656914428000,5.727427978515625,-0.05215108394622803,0.009697199799120426,-0.017714571207761765
1771681656924785700,5.73778564453125,-0.05276193097233772,-0.00007635590736754239,-0.0018325417768210173
1771681656935143400,5.748143310546875,-0.05154023692011833,0.03290939703583717,-0.004886778071522713
1771681656945501200,5.758501220703125,-0.03993413969874382,-0.0031305921729654074,-0.012827792204916477
1771681656955859000,5.76885888671875,-0.03504735976457596,0.01885990984737873,-0.012827792204916477
1771681656966216700,5.779216796875,-0.03626905754208565,-0.004963133949786425,-0.01588202826678753
1771681656976574500,5.789574462890625,-0.057648710906505585,-0.00129805039614439,-0.02993151545524597
1771681656986932200,5.79993212890625,-0.07658497244119644,0.008475505746901035,-0.007941014133393764
1771681656997290000,5.8102900390625,-0.0680331140756607,0.012751436792314053,0.010995250195264816
1771681657007647700,5.820647705078125,-0.03749075159430504,-0.014736690558493137,-0.007941014133393764
1771681657018005500,5.831005615234375,-0.025273805484175682,-0.004963133949786425,0.013438640162348747
1771681657028363300,5.84136328125,-0.0429883748292923,0.009697199799120426,-0.004275931045413017
1771681657038721000,5.851720947265625,-0.024662958458065987,-0.014736690558493137,-0.006719320081174374
1771681657049078800,5.862078857421875,-0.025273805484175682,-0.026342788711190224,-0.047646086663007736
1771681657059436500,5.8724365234375,-0.07108735293149948,-0.022677704691886902,-0.03176405653357506
1771681657069794300,5.882794189453125,-0.16760121285915375,0.02924431301653385,-0.015271181240677834
1771681657080152000,5.893152099609375,-0.1981435865163803,-0.004963133949786425,-0.04825693368911743
1771681657090509800,5.903509765625,-0.19447849690914154,0.03901786729693413,-0.02626643143594265
1771681657100867600,5.91386767578125,-0.12789614498615265,0.031076854094862938,-0.02748812735080719
1771681657111225300,5.924225341796875,-0.12850698828697205,0.013973130844533443,-0.034818295389413834
1771681657121583400,5.934583251953125,-0.16882291436195374,0.02557922899723053,-0.037261683493852615
1771681657131941000,5.944941162109375,-0.22990763187408447,0.04756972938776016,-0.02748812735080719
1771681657142299000,5.955298828125,-0.2384594976902008,0.024968381971120834,-0.023823043331503868
1771681657152656600,5.96565673828125,-0.1847049444913864,0.03474193811416626,-0.020157959312200546
1771681657163014400,5.976014404296875,-0.09307785332202911,0.045737188309431076,-0.006719320081174374
1771681657173372200,5.9863720703125,-0.05703786388039589,0.030466007068753242,-0.022601349279284477
1771681657183730000,5.99672998046875,-0.05703786388039589,0.0561215914785862,-0.021990500390529633
1771681657194087700,6.007087646484375,-0.057648710906505585,0.0695602297782898,0.006108472589403391
1771681657204445400,6.017445556640625,-0.06742226332426071,0.06772769242525101,0.004275931045413017
1771681657214803200,6.02780322265625,-0.09185615926980972,0.05673243850469589,-0.03237490355968475
1771681657225161000,6.038160888671875,-0.11140327155590057,0.0555107444524765,-0.006108472589403391
1771681657235518700,6.048518798828125,-0.05154023692011833,0.05062396824359894,0.021990500390529633
1771681657245876500,6.05887646484375,-0.06375718116760254,0.08483141660690308,-0.05741964280605316
1771681657256234200,6.069234130859375,-0.082082599401474,0.10376767814159393,-0.07391251623630524
1771681657266592000,6.079592041015625,-0.06681142002344131,0.07811209559440613,-0.03542914241552353
1771681657276949800,6.08994970703125,-0.10040801763534546,0.19722731411457062,-0.12278030067682266
1771681657287307500,6.1003076171875,-0.17126630246639252,0.34871742129325867,-0.20524467527866364
1771681657297665300,6.110665283203125,-0.18042901158332825,0.28518930077552795,-0.1301104724407196
1771681657308023000,6.12102294921875,-0.07414158433675766,-0.00007635590736754239,0.007330167107284069
1771681657318380800,6.131380859375,-0.03565821051597595,0.04085041210055351,0.01710372418165207
1771681657328738600,6.141738525390625,-0.02832804247736931,0.05978667363524437,0.020157959312200546
1771681657339096300,6.152096435546875,-0.01794363744556904,0.04879142343997955,0.015271181240677834
1771681657349454000,6.1624541015625,-0.013667707331478596,0.01763821393251419,0.009773556143045425
1771681657359811800,6.172811767578125,-0.05276193097233772,-0.09292513877153397,0.02870982140302658
1771681657370169600,6.183169677734375,-0.09307785332202911,0.024968381971120834,0.02870982140302658
1771681657380527600,6.193527587890625,-0.07719582319259644,0.021303297951817513,-0.0006108472589403391
1771681657390885400,6.203885498046875,-0.020997874438762665,-0.012904148548841476,0.008551862090826035
1771681657401243100,6.2142431640625,0.030313294380903244,0.04695888236165047,0.023212196305394173
1771681657411601000,6.224600830078125,0.14576342701911926,0.029855160042643547,0.014660334214568138
1771681657421958700,6.234958740234375,0.3106921911239624,-0.057496000081300735,0.0036650835536420345
1771681657432316400,6.24531640625,0.41148197650909424,0.05856497958302498,-0.0024433890357613564
1771681657442674200,6.255674072265625,0.3626142144203186,0.05062396824359894,0.009773556143045425
1771681657453032000,6.266031982421875,0.20135052502155304,0.03962871432304382,-0.01710372418165207
1771681657463389700,6.2763896484375,0.11277767270803452,0.021303297951817513,-0.03787253051996231
1771681657473747500,6.28674755859375,0.05169294774532318,0.06345175951719284,-0.013438640162348747
1771681657484105200,6.297105224609375,0.02970244735479355,0.03352024406194687,-0.02748812735080719
1771681657494463000,6.307462890625,0.018707197159528732,-0.020845163613557816,-0.04031591862440109
1771681657504820700,6.31782080078125,-0.008170082233846188,0.054899897426366806,-0.022601349279284477
1771681657515178500,6.328178466796875,-0.02710634656250477,0.04940227046608925,-0.031153209507465363
1771681657525536300,6.338536376953125,-0.015500249341130257,0.03840702027082443,-0.038483377546072006
1771681657535894000,6.34889404296875,-0.0038941511884331703,0.09216158092021942,-0.021379653364419937
1771681657546251800,6.359251708984375,0.007101099472492933,0.029855160042643547,-0.013438640162348747
1771681657556609500,6.369609619140625,0.0022143214009702206,0.04512634128332138,-0.025655584409832954
1771681657566967300,6.37996728515625,-0.0014507622690871358,0.034131091088056564,-0.037261683493852615
1771681657577325000,6.390324951171875,-0.01916533336043358,0.0561215914785862,-0.018936265259981155
1771681657587682800,6.400682861328125,-0.07291989028453827,0.1080436110496521,-0.024433890357613564
1771681657598040600,6.41104052734375,-0.13889139890670776,0.0817771777510643,-0.03298575058579445
1771681657608398300,6.4213984375,-0.25861746072769165,0.10437852889299393,-0.04214845970273018
1771681657618756000,6.431756103515625,-0.32581067085266113,0.10682191699743271,-0.053143709897994995
1771681657629113900,6.44211376953125,-0.2659476399421692,0.1080436110496521,-0.06352811306715012
1771681657639471600,6.4524716796875,-0.24701136350631714,0.023746687918901443,-0.033596597611904144
1771681657649829400,6.462829345703125,-0.23540526628494263,-0.05199837312102318,-0.011606098152697086
1771681657660187100,6.473187255859375,-0.17004460096359253,0.16363070905208588,-0.020157959312200546
1771681657670545000,6.483544921875,-0.18226155638694763,0.04879142343997955,-0.016492875292897224
1771681657680902700,6.493902587890625,-0.24640052020549774,-0.18638476729393005,0.04161396995186806
1771681657691260400,6.504260498046875,-0.3294757306575775,-0.09842276573181152,0.014049487188458443
1771681657701618400,6.514618408203125,-0.35085538029670715,-0.09842276573181152,0.018936265259981155
1771681657711976200,6.52497607421875,-0.2928248941898346,-0.03245126083493233,0.030542362481355667
1771681657722334000,6.535333984375,-0.2256316989660263,-0.045889899134635925,0.03237490355968475
1771681657732691700,6.545691650390625,-0.12606360018253326,0.05184566229581833,0.02626643143594265
1771681657743049500,6.556049560546875,-0.10162971168756485,-0.13385190069675446,0.14667969942092896
1771681657753407200,6.5664072265625,-0.11445750296115875,-0.38002336025238037,0.27801185846328735
1771681657763765000,6.576764892578125,-0.07963921129703522,-0.15217731893062592,0.17477867007255554
1771681657774122800,6.587122802734375,-0.10590564459562302,-0.1271325796842575,0.15767495334148407
1771681657784480500,6.59748046875,-0.11018157750368118,-0.044668205082416534,0.08987089991569519
1771681657794838300,6.60783837890625,-0.05215108394622803,-0.034283801913261414,0.06360447406768799
1771681657805196000,6.618196044921875,-0.025273805484175682,-0.025121092796325684,0.07765395939350128
1771681657815553800,6.6285537109375,-0.00022906772210262716,0.009697199799120426,0.057496000081300735
1771681657825911600,6.63891162109375,0.010766183026134968,0.009697199799120426,0.03237490355968475
1771681657836269300,6.649269287109375,0.03336753323674202,-0.0019088976550847292,0.04772244393825531
1771681657846627000,6.659626953125,0.07734853774309158,-0.009849912486970425,0.06116108223795891
1771681657856984800,6.66998486328125,0.08467870205640793,-0.04405735805630684,0.10819631814956665
1771681657867342600,6.680342529296875,0.03764346241950989,-0.026342788711190224,0.11308310180902481
1771681657877700400,6.690700439453125,0.013209572061896324,-0.018401773646473885,0.09292513877153397
1771681657888058000,6.70105810546875,-0.016111096367239952,0.007253811229020357,0.07826480269432068
1771681657898415900,6.711415771484375,-0.07963921129703522,0.006032116711139679,0.0745997205376625
1771681657908773600,6.721773681640625,-0.0955212414264679,0.0035887276753783226,0.05016583204269409
1771681657919131400,6.73213134765625,-0.04665346071124077,0.0005344913806766272,0.05199837312102318
1771681657929489200,6.7424892578125,0.049860406666994095,0.05428905040025711,0.13873867690563202
1771681657939847000,6.752846923828125,0.0749051421880722,0.13003410398960114,0.14790138602256775
1771681657950204700,6.76320458984375,0.044362783432006836,0.3334462344646454,0.04405735805630684
1771681657960562400,6.7735625,0.0749051421880722,0.3444415032863617,0.12285665422677994
1771681657970920200,6.783920166015625,0.10483665764331818,0.17951273918151855,0.10941801220178604
1771681657981278000,6.79427783203125,0.07307260483503342,-0.013514995574951172,-0.01038440316915512
1771681657991635700,6.8046357421875,0.06818582862615585,0.022524992004036903,0.047111593186855316
1771681658001993500,6.814993408203125,0.04619532451033592,-0.07032378762960434,0.08437328040599823
1771681658012351500,6.8253515625,0.08528954535722733,-0.28045526146888733,0.04650074616074562
1771681658022709200,6.835709228515625,0.10850174725055695,-0.2981698215007782,0.09170344471931458
1771681658033067000,6.84606689453125,0.09811734408140182,-0.2205922156572342,0.17050273716449738
1771681658043424800,6.8564248046875,0.09872818738222122,-0.21020781993865967,0.11552648991346359
1771681658053782500,6.866782470703125,0.07429429888725281,0.09338327497243881,-0.016492875292897224
1771681658064140300,6.877140380859375,0.05596888065338135,0.2015032321214676,0.04283566400408745
1771681658074498000,6.887498046875,0.013209572061896324,-0.01901262067258358,0.16928105056285858
1771681658084855800,6.897855712890625,-0.028938889503479004,-0.1271325796842575,0.11125055700540543
1771681658095213600,6.908213623046875,0.018096350133419037,-0.031229566782712936,0.006719320081174374
1771681658105571300,6.9185712890625,0.07062921673059464,0.0561215914785862,-0.02076880633831024
1771681658115929000,6.92892919921875,0.2074590027332306,-0.0037414394319057465,0.009773556143045425
1771681658126286800,6.939286865234375,0.3076379597187042,-0.011071606539189816,0.11186140775680542
1771681658136644600,6.94964453125,0.23067119717597961,0.030466007068753242,0.12163496017456055
1771681658147002400,6.96000244140625,0.17080816626548767,-0.017180079594254494,0.09353598952293396
1771681658157360000,6.970360107421875,0.18607935309410095,-0.022066857665777206,0.08376242965459824
1771681658167718000,6.9807177734375,0.22822780907154083,0.13797512650489807,0.05322006717324257
1771681658178075600,6.99107568359375,0.25266170501708984,0.17890189588069916,0.03733803704380989
1771681658188433400,7.001433349609375,0.26426780223846436,0.04940227046608925,0.09048175066709518
1771681658198791200,7.011791259765625,0.259991854429245,0.2381540685892105,0.13079766929149628
1771681658209149000,7.02214892578125,0.2874799966812134,0.5515187382698059,0.04772244393825531
1771681658219506700,7.032506591796875,0.3375694751739502,0.33955472707748413,-0.034818295389413834
1771681658229864400,7.042864501953125,0.3076379597187042,0.36398860812187195,-0.0659715011715889
1771681658240222200,7.05322216796875,0.2722088098526001,0.28396761417388916,-0.08124268800020218
1771681658250580000,7.063580078125,0.20318306982517242,0.16546325385570526,-0.0659715011715889
1771681658260937700,7.073937744140625,0.13171394169330597,0.09949174523353577,-0.08857285231351852
1771681658271295500,7.08429541015625,0.13171394169330597,0.23204560577869415,-0.11606097966432571
1771681658281653500,7.094653564453125,0.1940203607082367,0.4085804522037506,-0.18875180184841156
1771681658292011300,7.10501123046875,0.19524206221103668,0.5252522826194763,-0.27121618390083313
1771681658302369000,7.115369140625,0.16225630044937134,0.3206184506416321,-0.23884128034114838
1771681658312726800,7.125726806640625,0.18546849489212036,0.14102935791015625,-0.23945212364196777
1771681658323084500,7.13608447265625,0.19707459211349487,0.21738526225090027,-0.237008735537529
1771681658333442300,7.1464423828125,0.2581593096256256,0.2253262847661972,-0.26938363909721375
1771681658343800000,7.156800048828125,0.285647451877594,-0.18394137918949127,-0.1459924876689911
1771681658354157800,7.16715771484375,0.2697654068470001,-0.40873315930366516,-0.08368607610464096
1771681658364515600,7.177515625,0.27587389945983887,-0.3372640311717987,-0.08429691940546036
1771681658374873300,7.187873291015625,0.36750099062919617,-0.33054471015930176,-0.07513421028852463
1771681658385231000,7.198231201171875,0.32779592275619507,-0.4722612798213959,-0.08429691940546036
1771681658395588900,7.2085888671875,0.31985488533973694,-0.5211290717124939,-0.042759306728839874
1771681658405946600,7.218946533203125,0.24227729439735413,-0.09659022092819214,-0.05803048983216286
1771681658416304400,7.229304443359375,0.12499462068080902,-0.04772244393825531,-0.012216945178806782
1771681658426662100,7.239662109375,0.041919391602277756,0.01763821393251419,-0.021379653364419937
1771681658437020000,7.25002001953125,0.049860406666994095,0.0695602297782898,-0.007941014133393764
1771681658447377700,7.260377685546875,0.03886515647172928,-0.022066857665777206,0.0024433890357613564
1771681658457735400,7.2707353515625,0.021150587126612663,-0.0293970238417387,-0.013438640162348747
1771681658468093200,7.28109326171875,0.01626380905508995,-0.011071606539189816,0.007330167107284069
1771681658478451000,7.291450927734375,0.02053973823785782,0.02435753494501114,0.01954711228609085
1771681658488808700,7.30180859375,0.018707197159528732,-0.0361163429915905,0.014049487188458443
1771681658499166500,7.31216650390625,0.019928891211748123,-0.023288551717996597,0.006108472589403391
1771681658509524200,7.322524169921875,0.015652960166335106,-0.022677704691886902,0.016492875292897224
1771681658519882000,7.332882080078125,0.014431266114115715,0.0029778804164379835,0.007330167107284069
1771681658530239700,7.34323974609375,0.011377030052244663,0.006032116711139679,0.012216945178806782
1771681658540597500,7.353597412109375,0.015652960166335106,0.0164165198802948,0.029320668429136276
1771681658550955300,7.363955322265625,0.008933641016483307,0.01763821393251419,0.030542362481355667
1771681658561313000,7.37431298828125,0.011377030052244663,0.006032116711139679,0.031153209507465363
1771681658571670800,7.3846708984375,0.010766183026134968,0.007253811229020357,0.026877280324697495
1771681658582028500,7.395028564453125,0.015042114071547985,0.0005344913806766272,0.021990500390529633
1771681658592386300,7.40538623046875,0.012598725035786629,-0.00007635590736754239,0.021990500390529633
1771681658602744000,7.415744140625,0.014431266114115715,0.0011453386396169662,0.009773556143045425
1771681658613102000,7.42610205078125,0.011987877078354359,-0.0025197449140250683,0.023212196305394173
1771681658623459800,7.4364599609375,0.012598725035786629,0.004199574701488018,0.007941014133393764
1771681658633817600,7.446817626953125,0.01382041908800602,-0.004963133949786425,0.02076880633831024
1771681658644175400,7.45717529296875,0.009544488042593002,0.004199574701488018,0.01038440316915512
1771681658654533000,7.467533203125,0.011377030052244663,-0.017180079594254494,0.00916270911693573
1771681658664891000,7.477890869140625,0.009544488042593002,-0.012293301522731781,0.014660334214568138
1771681658675248600,7.48824853515625,0.011987877078354359,-0.006184828467667103,0.005497625097632408
1771681658685606400,7.4986064453125,0.011987877078354359,-0.009239064529538155,0.011606098152697086
1771681658695964200,7.508964111328125,0.011377030052244663,-0.0037414394319057465,0.004886778071522713
1771681658706322000,7.519322021484375,0.012598725035786629,0.004199574701488018,0.009773556143045425
1771681658716679700,7.5296796875,0.008322793990373611,0.004810422193259001,0
1771681658727037400,7.540037353515625,0.010766183026134968,0.010308047756552696,-0.0018325417768210173
1771681658737395200,7.550395263671875,0.007101099472492933,0.012751436792314053,-0.0036650835536420345
1771681658747753000,7.5607529296875,0.007101099472492933,0.021914144977927208,-0.011606098152697086
1771681658758110700,7.57111083984375,0.0028251686599105597,0.022524992004036903,-0.018936265259981155
1771681658768468500,7.581468505859375,0.0034360159188508987,0.018249060958623886,-0.014049487188458443
1771681658778826200,7.591826171875,0.0028251686599105597,0.018249060958623886,-0.01588202826678753
1771681658789184000,7.60218408203125,0.007711946498602629,0.01763821393251419,-0.01954711228609085
1771681658799541800,7.612541748046875,0.005879404954612255,0.007253811229020357,-0.014049487188458443
1771681658809899500,7.6228994140625,0.008322793990373611,0.017027366906404495,-0.030542362481355667
1771681658820257300,7.63325732421875,0.016874656081199646,0.0035887276753783226,-0.018936265259981155
1771681658830615000,7.643614990234375,0.018096350133419037,-0.017180079594254494,-0.014049487188458443
1771681658840972800,7.653972900390625,0.015042114071547985,-0.022677704691886902,-0.017714571207761765
1771681658851330600,7.66433056640625,0.014431266114115715,-0.024510245770215988,-0.004886778071522713
1771681658861688300,7.674688232421875,0.015652960166335106,-0.012293301522731781,-0.012827792204916477
1771681658872046000,7.685046142578125,0.014431266114115715,-0.022677704691886902,-0.007330167107284069
1771681658882403800,7.69540380859375,0.008322793990373611,0.014583977870643139,-0.022601349279284477
1771681658892761600,7.70576171875,0.009544488042593002,-0.004963133949786425,-0.005497625097632408
1771681658903119400,7.716119384765625,0.0064902519807219505,0.026190076023340225,-0.006719320081174374
1771681658913477000,7.72647705078125,0.007101099472492933,0.013362283818423748,-0.008551862090826035
1771681658923835000,7.7368349609375,0.005879404954612255,0.013973130844533443,0.006108472589403391
1771681658934192600,7.747192626953125,0.0034360159188508987,0.012751436792314053,-0.0030542362947016954
1771681658944550400,7.75755029296875,0.008322793990373611,0.029855160042643547,-0.008551862090826035
1771681658954908400,7.767908447265625,0.0064902519807219505,0.019470756873488426,0.0006108472589403391
1771681658965266200,7.77826611328125,0.0064902519807219505,0.0426829531788826,-0.014049487188458443
1771681658975624000,7.7886240234375,0.005268557462841272,0.03229855000972748,-0.0012216945178806782
1771681658985981700,7.798981689453125,0.005879404954612255,0.03596363216638565,-0.01038440316915512
1771681658996339500,7.80933935546875,0.007101099472492933,0.013973130844533443,0.01038440316915512
1771681659006697200,7.819697265625,0.0034360159188508987,0.023746687918901443,-0.005497625097632408
1771681659017055000,7.830054931640625,0.009544488042593002,-0.0037414394319057465,0.012216945178806782
1771681659027412700,7.840412841796875,0.007101099472492933,0.0023670331574976444,0.011606098152697086
1771681659037770500,7.8507705078125,0.011377030052244663,-0.014736690558493137,0.015271181240677834
1771681659048128300,7.861128173828125,0.0064902519807219505,0.0023670331574976444,0.010995250195264816
1771681659058486000,7.871486083984375,0.010155336000025272,0.009697199799120426,0.01588202826678753
1771681659068843800,7.88184375,0.008322793990373611,-0.0025197449140250683,0.012827792204916477
1771681659079201500,7.892201416015625,0.005879404954612255,0.01763821393251419,0.004275931045413017
1771681659089559300,7.902559326171875,0.005268557462841272,0.008475505746901035,0.01832541823387146
1771681659099917000,7.9129169921875,0.0016034740256145597,0.021914144977927208,0.014660334214568138
1771681659110274800,7.92327490234375,0.0016034740256145597,0.020692450925707817,0.011606098152697086
1771681659120632600,7.933632568359375,0.00038177953683771193,0.006032116711139679,0.020157959312200546
1771681659130990300,7.943990234375,0.0009926267666742206,0.031076854094862938,0.012216945178806782
1771681659141348000,7.95434814453125,0.0022143214009702206,0.015194825828075409,0.007941014133393764
1771681659151705900,7.964705810546875,0.0016034740256145597,0.027411770075559616,0.012216945178806782
1771681659162063600,7.975063720703125,0.0009926267666742206,0.027411770075559616,0.007330167107284069
1771681659172421400,7.98542138671875,-0.00022906772210262716,0.02435753494501114,-0.0012216945178806782
1771681659182779100,7.995779052734375,0.005268557462841272,0.018249060958623886,0.0018325417768210173
1771681659193137000,8.006136962890626,0.0034360159188508987,0.022524992004036903,0.008551862090826035
1771681659203494700,8.01649462890625,0.005268557462841272,0.018249060958623886,0
1771681659213852400,8.026852294921875,0.004657710436731577,0.013362283818423748,0.015271181240677834
1771681659224210200,8.037210205078125,0.005879404954612255,0.026190076023340225,0.0030542362947016954
1771681659234568000,8.04756787109375,0.005268557462841272,0.023746687918901443,0.008551862090826035
1771681659244926000,8.057926025390625,0.005879404954612255,0.031076854094862938,0.004886778071522713
1771681659255283700,8.06828369140625,0.0028251686599105597,0.02557922899723053,0.0006108472589403391
1771681659265641500,8.078641357421875,0.0022143214009702206,0.04390464723110199,-0.007330167107284069
1771681659275999200,8.088999267578124,0.007711946498602629,0.052456509321928024,-0.004275931045413017
1771681659286357000,8.09935693359375,-0.00022906772210262716,0.07505785673856735,-0.007330167107284069
1771681659296714800,8.10971484375,0.01382041908800602,0.0426829531788826,-0.011606098152697086
1771681659307072500,8.120072509765626,0.02298312820494175,0.04146125912666321,0.008551862090826035
1771681659317430300,8.13043017578125,0.011987877078354359,0.06650599837303162,-0.0036650835536420345
1771681659327788000,8.1407880859375,0.016874656081199646,-0.052609220147132874,-0.007941014133393764
1771681659338145800,8.151145751953125,0.02176143415272236,0.12575818598270416,-0.024433890357613564
1771681659348503600,8.161503662109375,0.04741701856255531,0.05856497958302498,0.0006108472589403391
1771681659358861300,8.171861328125,0.011377030052244663,0.03168770298361778,-0.021990500390529633
1771681659369219000,8.182218994140625,0.015042114071547985,0.004810422193259001,-0.021990500390529633
1771681659379576800,8.192576904296875,0.012598725035786629,-0.007406522985547781,-0.009773556143045425
1771681659389934600,8.2029345703125,0.014431266114115715,-0.00007635590736754239,-0.026877280324697495
1771681659400292400,8.213292236328124,0.018096350133419037,-0.0019088976550847292,-0.0018325417768210173
1771681659410650000,8.223650146484376,0.011377030052244663,-0.04222481697797775,-0.007941014133393764
1771681659421008000,8.2340078125,0.0064902519807219505,-0.012293301522731781,-0.008551862090826035
1771681659431365600,8.24436572265625,0.0064902519807219505,-0.028786176815629005,-0.007330167107284069
1771681659441723400,8.254723388671875,0.005268557462841272,-0.005573981441557407,-0.01832541823387146
1771681659452081200,8.2650810546875,0.0022143214009702206,-0.012904148548841476,-0.01038440316915512
1771681659462439000,8.27543896484375,0.0009926267666742206,-0.00007635590736754239,-0.031153209507465363
1771681659472796700,8.285796630859375,-0.0008399150101467967,0.005421269219368696,-0.021379653364419937
1771681659483154400,8.296154541015625,-0.0014507622690871358,0.0164165198802948,-0.009773556143045425
1771681659493512200,8.30651220703125,-0.00022906772210262716,0.0164165198802948,-0.010995250195264816
1771681659503870000,8.316869873046874,0.00038177953683771193,0.01885990984737873,-0.006108472589403391
1771681659514227700,8.327227783203124,-0.0008399150101467967,0.026190076023340225,-0.0006108472589403391
1771681659524585500,8.33758544921875,0.005268557462841272,0.015194825828075409,-0.005497625097632408
1771681659534943200,8.347943115234376,0.0034360159188508987,0.03290939703583717,0.0030542362947016954
1771681659545301000,8.358301025390626,-0.0038941511884331703,0.053678203374147415,-0.014660334214568138
1771681659555658800,8.36865869140625,0.0028251686599105597,0.020692450925707817,-0.013438640162348747
1771681659566016500,8.3790166015625,0.01626380905508995,-0.0293970238417387,-0.01832541823387146
1771681659576374300,8.389374267578125,0.022372281178832054,0.06100837141275406,-0.021379653364419937
1771681659586732000,8.39973193359375,0.032756682485342026,0.05795413255691528,0.012216945178806782
1771681659597090000,8.410090087890625,0.01382041908800602,0.0164165198802948,-0.0030542362947016954
1771681659607447800,8.42044775390625,0.02542651630938053,-0.022677704691886902,0.0030542362947016954
1771681659617805600,8.4308056640625,0.013209572061896324,-0.004352286923676729,-0.004275931045413017
1771681659628163300,8.441163330078124,0.008322793990373611,-0.005573981441557407,-0.0030542362947016954
1771681659638521000,8.45152099609375,0.0022143214009702206,0.0017561858985573053,-0.008551862090826035
1771681659648878800,8.46187890625,0.007101099472492933,-0.0037414394319057465,-0.018936265259981155
1771681659659236600,8.472236572265626,0.01626380905508995,0.03779617324471474,-0.011606098152697086
1771681659669594400,8.482594482421876,0.007711946498602629,-0.04772244393825531,-0.0018325417768210173
1771681659679952100,8.4929521484375,0.0034360159188508987,0.015805672854185104,-0.024433890357613564
1771681659690310000,8.503309814453125,0.012598725035786629,0.03290939703583717,-0.004275931045413017
1771681659700667600,8.513667724609375,0.007711946498602629,-0.0025197449140250683,-0.0006108472589403391
1771681659711025400,8.524025390625,-0.00022906772210262716,0.014583977870643139,-0.014049487188458443
1771681659721383200,8.534383056640625,-0.0014507622690871358,0.0017561858985573053,-0.014049487188458443
1771681659731741000,8.544740966796875,0.010155336000025272,0.0017561858985573053,-0.00916270911693573
1771681659742098700,8.5550986328125,0.007711946498602629,-0.0067956759594380856,-0.01832541823387146
1771681659752456400,8.56545654296875,0.004657710436731577,-0.0019088976550847292,-0.03665083646774292
1771681659762814200,8.575814208984376,0.010155336000025272,-0.019623467698693275,-0.03176405653357506
1771681659773172000,8.586171875,0.013209572061896324,-0.015958385542035103,-0.02748812735080719
1771681659783529700,8.59652978515625,0.010155336000025272,-0.02023431472480297,-0.031153209507465363
1771681659793887500,8.606887451171875,0.008322793990373611,-0.03184041380882263,-0.03176405653357506
1771681659804245200,8.617245361328125,0.015042114071547985,-0.043446511030197144,-0.017714571207761765
1771681659814603000,8.62760302734375,0.015652960166335106,-0.05566345527768135,-0.012827792204916477
1771681659824960800,8.637960693359375,0.013209572061896324,-0.03245126083493233,-0.02748812735080719
1771681659835318500,8.648318603515625,0.011377030052244663,-0.03306210786104202,-0.024433890357613564
1771681659845676300,8.65867626953125,0.01382041908800602,-0.014736690558493137,-0.023823043331503868
1771681659856034000,8.669033935546874,0.011987877078354359,-0.019623467698693275,-0.026877280324697495
1771681659866391800,8.679391845703124,0.008933641016483307,-0.007406522985547781,-0.033596597611904144
1771681659876749600,8.68974951171875,0.012598725035786629,-0.019623467698693275,-0.01038440316915512
1771681659887107300,8.700107421875,0.013209572061896324,-0.008017370477318764,-0.008551862090826035
1771681659897465000,8.710465087890626,0.013209572061896324,-0.017180079594254494,-0.01038440316915512
1771681659907822800,8.72082275390625,0.011377030052244663,0.007253811229020357,-0.007941014133393764
1771681659918180600,8.7311806640625,0.010766183026134968,0.0029778804164379835,-0.0018325417768210173
1771681659928538400,8.741538330078125,0.011987877078354359,0.0029778804164379835,-0.0018325417768210173
1771681659938896100,8.751896240234375,0.008933641016483307,0.006642963737249374,-0.0024433890357613564
1771681659949254000,8.76225390625,0.010155336000025272,-0.00862821750342846,0.00916270911693573
1771681659959611600,8.772611572265625,0.010155336000025272,-0.014125842601060867,0.007330167107284069
1771681659969969400,8.782969482421874,0.015652960166335106,-0.0019088976550847292,0.006108472589403391
1771681659980327200,8.7933271484375,0.019318044185638428,-0.01046075951308012,0.023823043331503868
1771681659990685200,8.803685302734374,0.01382041908800602,-0.004352286923676729,0.03176405653357506
1771681660001043000,8.81404296875,0.019318044185638428,-0.019623467698693275,0.030542362481355667
1771681660011400700,8.824400634765626,0.013209572061896324,-0.035505495965480804,0.04772244393825531
1771681660021758500,8.834758544921876,0.01382041908800602,-0.012293301522731781,0.03855973482131958
1771681660032116200,8.8451162109375,0.010766183026134968,-0.023899398744106293,0.04161396995186806
1771681660042474000,8.855473876953125,0.007711946498602629,-0.0031305921729654074,0.024433890357613564
1771681660052831700,8.865831787109375,0.004657710436731577,-0.004963133949786425,0.03237490355968475
1771681660063189500,8.876189453125,0.0022143214009702206,-0.00862821750342846,0.023212196305394173
1771681660073547300,8.88654736328125,0.004046862944960594,0.011529741808772087,0.018936265259981155
1771681660083905000,8.896905029296875,0.0028251686599105597,-0.00862821750342846,0.04100312292575836
1771681660094262800,8.9072626953125,0.0028251686599105597,0.021914144977927208,0.026877280324697495
1771681660104620500,8.91762060546875,0.005268557462841272,0.0035887276753783226,0.03733803704380989
1771681660114978300,8.927978271484376,0.007711946498602629,0.023746687918901443,0.044668205082416534
1771681660125336000,8.938336181640626,0.007101099472492933,0.013362283818423748,0.0361163429915905
1771681660135693800,8.94869384765625,0.010155336000025272,0.0231358390301466,0.023212196305394173
1771681660146051600,8.959051513671875,0.010766183026134968,0.007253811229020357,0.04405735805630684
1771681660156409300,8.969409423828125,0.013209572061896324,0.012140588834881783,0.03237490355968475
1771681660166767000,8.97976708984375,0.010766183026134968,0.013362283818423748,0.02504473738372326
1771681660177124900,8.990124755859375,0.018707197159528732,0.022524992004036903,0.04283566400408745
1771681660187482600,9.000482666015625,0.009544488042593002,0.0023670331574976444,0.05138752609491348
1771681660197840400,9.01084033203125,0.009544488042593002,0.0035887276753783226,0.02626643143594265
1771681660208198100,9.0211982421875,0.015042114071547985,-0.00129805039614439,0.036727190017700195
1771681660218556000,9.031555908203124,0.023593975231051445,-0.018401773646473885,0.03855973482131958
1771681660228913700,9.04191357421875,0.04130854457616806,-0.20409934222698212,-0.0018325417768210173
1771681660239271400,9.052271484375,0.04253023862838745,-0.08498412370681763,0.014660334214568138
1771681660249629200,9.062629150390626,0.028480753302574158,0.12331479042768478,0.05810684710741043
1771681660259987000,9.072987060546875,0.019928891211748123,-0.053830914199352264,0.0361163429915905
1771681660270344700,9.0833447265625,0.02420482225716114,-0.10575293004512787,0.03176405653357506
1771681660280702500,9.093702392578125,0.03336753323674202,0.20577916502952576,0.05566345527768135
1771681660291060200,9.104060302734375,0.02053973823785782,-0.007406522985547781,0.04405735805630684
1771681660301418000,9.11441796875,0.021150587126612663,-0.11125055700540543,0.00916270911693573
1771681660311775700,9.124775634765625,0.027259059250354767,0.1483595222234726,0.037948887795209885
1771681660322133800,9.1351337890625,0.02420482225716114,0.04023956134915352,0.023823043331503868
1771681660332491500,9.145491455078124,0.026037365198135376,-0.2187596708536148,-0.01954711228609085
1771681660342849300,9.155849365234374,0.02053973823785782,-0.004352286923676729,-0.0024433890357613564
1771681660353207000,9.16620703125,0.02420482225716114,0.04390464723110199,0.020157959312200546
1771681660363564800,9.176564697265626,0.021150587126612663,-0.055052608251571655,0.0036650835536420345
1771681660373922600,9.186922607421875,0.03214583545923233,0.03596363216638565,0.01588202826678753
1771681660384280300,9.1972802734375,0.03092414326965809,0.05428905040025711,0.03237490355968475
1771681660394638000,9.20763818359375,0.019928891211748123,-0.08498412370681763,0.004886778071522713
1771681660404995800,9.217995849609375,0.024815669283270836,0.022524992004036903,0.01038440316915512
1771681660415353600,9.228353515625,0.02542651630938053,0.0817771777510643,0.004886778071522713
1771681660425711400,9.23871142578125,0.02420482225716114,-0.1540098637342453,-0.007330167107284069
1771681660436069000,9.249069091796875,0.03336753323674202,0.013362283818423748,-0.01588202826678753
1771681660446427000,9.259427001953124,0.029091600328683853,0.11354123055934906,0.014049487188458443
1771681660456784600,9.26978466796875,0.018707197159528732,-0.07765395939350128,-0.016492875292897224
1771681660467142400,9.280142333984376,0.02298312820494175,-0.14301460981369019,-0.031153209507465363
1771681660477500200,9.290500244140626,0.02298312820494175,0.18317782878875732,0.006719320081174374
1771681660487858000,9.30085791015625,0.008933641016483307,0.015805672854185104,0.00916270911693573
1771681660498215700,9.311215576171875,0.011987877078354359,-0.05322006717324257,-0.01832541823387146
1771681660508573400,9.321573486328125,0.019318044185638428,0.019470756873488426,0.006719320081174374
1771681660518931200,9.33193115234375,0.008933641016483307,-0.024510245770215988,0.0018325417768210173
1771681660529289000,9.3422890625,0.007101099472492933,-0.04100312292575836,-0.015271181240677834
1771681660539646700,9.352646728515625,0.007101099472492933,0.013973130844533443,-0.007941014133393764
1771681660550004500,9.36300439453125,0.02420482225716114,-0.01779092662036419,-0.009773556143045425
1771681660560362200,9.3733623046875,0.023593975231051445,-0.2456369549036026,-0.034818295389413834
1771681660570720000,9.383719970703124,0.019928891211748123,-0.008017370477318764,-0.017714571207761765
1771681660581077800,9.394077880859374,0.023593975231051445,0.24731677770614624,0.0361163429915905
1771681660591435500,9.404435546875,0.0064902519807219505,-0.1674485057592392,-0.011606098152697086
1771681660601793300,9.414793212890626,0.018707197159528732,-0.08742751181125641,-0.022601349279284477
1771681660612151000,9.425151123046875,0.019318044185638428,0.2503710091114044,0.043446511030197144
1771681660622508800,9.4355087890625,0.010766183026134968,-0.1527881771326065,0.01038440316915512
1771681660632866600,9.445866455078125,0.026037365198135376,-0.15950748324394226,-0.03176405653357506
1771681660643224300,9.456224365234375,0.024815669283270836,0.008475505746901035,0.025655584409832954
1771681660653582000,9.46658203125,0.011987877078354359,0.11781716346740723,0
1771681660663939800,9.47693994140625,0.015652960166335106,-0.2071535736322403,0.008551862090826035
1771681660674297600,9.487297607421874,0.02970244735479355,0.226547971367836,0.022601349279284477
1771681660684655400,9.4976552734375,0.014431266114115715,0.06223006546497345,0.02076880633831024
1771681660695013000,9.50801318359375,0.007711946498602629,-0.12407834827899933,-0.01038440316915512
1771681660705371000,9.518370849609376,0.016874656081199646,-0.005573981441557407,0.005497625097632408
1771681660715728600,9.528728759765626,0.005268557462841272,0.06284090876579285,-0.014660334214568138
1771681660726086400,9.53908642578125,-0.025273805484175682,-0.35497862100601196,-0.05375456064939499
1771681660736444200,9.549444091796875,0.012598725035786629,0.1343100368976593,0.004886778071522713
1771681660746802000,9.559802001953125,0.03764346241950989,0.20700086653232574,0.08254073560237885
1771681660757160000,9.570159912109375,0.03214583545923233,-0.1289651244878769,0.015271181240677834
1771681660767517700,9.580517578125,0.06390989571809769,-0.10880716890096664,0.03237490355968475
1771681660777875500,9.59087548828125,0.11094513535499573,0.13919681310653687,0.06971294432878494
1771681660788233200,9.601233154296875,0.10728005319833755,-0.14790138602256775,0.007941014133393764
1771681660798591000,9.611591064453124,0.05535803362727165,-0.15767495334148407,-0.007941014133393764
1771681660808948700,9.62194873046875,0.04375193640589714,0.18501035869121552,0.05688514932990074
1771681660819306500,9.632306396484376,0.051082100719213486,-0.049554985016584396,0
1771681660829664300,9.642664306640626,0.041919391602277756,-0.2456369549036026,-0.033596597611904144
1771681660840022000,9.65302197265625,0.05291464552283287,0.2522035539150238,0.04222481697797775
1771681660850379800,9.6633798828125,0.05963396281003952,0.026190076023340225,-0.012827792204916477
1771681660860737500,9.673737548828125,0.03886515647172928,-0.32993388175964355,-0.09284878522157669
1771681660871095300,9.68409521484375,-0.023441264405846596,0.14897038042545319,-0.03542914241552353
1771681660881453000,9.694453125,-0.02038702741265297,0.08666395395994186,-0.010995250195264816
1771681660891810800,9.704810791015625,-0.0429883748292923,-0.062993623316288,-0.005497625097632408
1771681660902168600,9.71516845703125,-0.06558972597122192,0.024968381971120834,0.0024433890357613564
1771681660912526300,9.7255263671875,-0.03504735976457596,-0.04100312292575836,-0.012827792204916477
1771681660922884000,9.735884033203124,-0.053983625024557114,-0.2731250822544098,-0.10078980028629303
1771681660933241900,9.746241943359376,-0.06986565887928009,-0.06971294432878494,-0.09712471067905426
1771681660943599600,9.756599609375,-0.08941277116537094,0.2937411665916443,-0.021379653364419937
1771681660953957400,9.766957275390626,-0.03871244564652443,0.03229855000972748,-0.08063183724880219
1771681660964315100,9.777315185546875,0.023593975231051445,-0.06910209357738495,-0.08185353130102158
1771681660974673000,9.7876728515625,0.032756682485342026,0.19172967970371246,-0.01832541823387146
1771681660985030700,9.79803076171875,0.007101099472492933,0.0823880210518837,-0.03420744836330414
1771681660995388400,9.808388427734375,0.004046862944960594,-0.052609220147132874,-0.05986303091049194
1771681661005746200,9.81874609375,-0.0051158457063138485,-0.0293970238417387,-0.06841489672660828
1771681661016104000,9.82910400390625,-0.004504998680204153,0.0811663269996643,-0.09773556143045425
1771681661026461700,9.839461669921874,-0.004504998680204153,-0.07765395939350128,-0.06963659077882767
1771681661036819500,9.8498193359375,-0.0051158457063138485,0.07444700598716736,-0.09407047927379608
1771681661047177200,9.86017724609375,-0.010613471269607544,-0.0489441379904747,-0.06169557198882103
1771681661057535000,9.870534912109376,-0.007559234742075205,0.06528430432081223,-0.06169557198882103
1771681661067892700,9.880892822265626,0.004046862944960594,0.18928629159927368,-0.0397050715982914
1771681661078250500,9.89125048828125,0.015652960166335106,-0.16989189386367798,-0.05986303091049194
1771681661088608300,9.901608154296875,0.010766183026134968,-0.004963133949786425,-0.06719319522380829
1771681661098966000,9.911966064453125,-0.0051158457063138485,0.2259371280670166,0.01038440316915512
1771681661109323800,9.92232373046875,-0.002061609411612153,0.0952158197760582,-0.010995250195264816
1771681661119681500,9.932681640625,0.008933641016483307,-0.13812783360481262,0.005497625097632408
1771681661130039300,9.943039306640625,0.010155336000025272,0.27113983035087585,0.01710372418165207
1771681661140397000,9.95339697265625,0.0364217683672905,-0.00007635590736754239,0.036727190017700195
1771681661150754800,9.9637548828125,0.032756682485342026,-0.42156097292900085,-0.07085828483104706
1771681661161112800,9.97411279296875,-0.025273805484175682,-0.17294612526893616,-0.03542914241552353
1771681661171470600,9.984470703125,-0.0423775278031826,0.13125580549240112,0.05993938818573952
1771681661181828400,9.994828369140626,0.004046862944960594,0.03718532621860504,0.040392275899648666
1771681661192186000,10.00518603515625,0.011377030052244663,0.10071343928575516,0.07032378762960434
1771681661202543900,10.0155439453125,0.004046862944960594,0.09704835712909698,0.08681666851043701
1771681661212901600,10.025901611328125,0.007101099472492933,-0.05322006717324257,0.08315158635377884
1771681661223259400,10.03625927734375,0.011377030052244663,-0.008017370477318764,0.0752105712890625
1771681661233617200,10.0466171875,0.009544488042593002,-0.01901262067258358,0.08681666851043701
1771681661243975000,10.056974853515625,0.01382041908800602,0.010308047756552696,0.08254073560237885
1771681661254332700,10.067332763671875,0.010155336000025272,0.02680092304944992,0.10697462409734726
1771681661264690400,10.0776904296875,0.009544488042593002,0.011529741808772087,0.1014770045876503
1771681661275048200,10.088048095703124,0.015042114071547985,0.06467345356941223,0.10514208674430847
1771681661285406000,10.098406005859376,0.004046862944960594,-0.022677704691886902,0.11613733321428299
1771681661295763700,10.108763671875,0.0022143214009702206,-0.0880383625626564,0.09964445978403091
1771681661306121500,10.11912158203125,0.01626380905508995,0.012751436792314053,0.10697462409734726
1771681661316479200,10.129479248046875,0.01382041908800602,0.16973918676376343,0.11919157207012177
1771681661326837000,10.1398369140625,-0.0130568603053689,-0.27984440326690674,0.07704310864210129
1771681661337194800,10.15019482421875,-0.0295497365295887,-0.18394137918949127,0.03237490355968475
1771681661347552500,10.160552490234375,-0.0051158457063138485,0.09216158092021942,0.09414683282375336
1771681661357910300,10.17091015625,-0.019776180386543274,0.0023670331574976444,0.06604786217212677
1771681661368268000,10.18126806640625,-0.024662958458065987,-0.17294612526893616,0.034283801913261414
1771681661378625800,10.191625732421874,-0.00022906772210262716,0.1617981642484665,0.10636378079652786
1771681661388983600,10.201983642578124,0.005879404954612255,0.27236151695251465,0.09170344471931458
1771681661399341300,10.21234130859375,-0.030160583555698395,-0.3470376133918762,0.01710372418165207
1771681661409699000,10.222698974609376,-0.016721943393349648,-0.00007635590736754239,0.025655584409832954
1771681661420056800,10.233056884765626,-0.00022906772210262716,0.2112767994403839,0.061771929264068604
1771681661430414600,10.24341455078125,-0.04359922185540199,-0.2890070974826813,-0.042759306728839874
1771681661440772400,10.2537724609375,-0.0686439573764801,-0.28045526146888733,-0.08857285231351852
1771681661451130000,10.264130126953125,-0.03443651273846626,0.24609509110450745,0.01832541823387146
1771681661461487900,10.27448779296875,-0.03504735976457596,-0.09475768357515335,-0.042759306728839874
1771681661471845600,10.284845703125,-0.0552053228020668,-0.2609081268310547,-0.04947862774133682
1771681661482203400,10.295203369140625,-0.02283041551709175,0.3157316744327545,0.03978142887353897
1771681661492561200,10.30556103515625,-0.025273805484175682,-0.09048175066709518,0.0036650835536420345
1771681661502919000,10.3159189453125,0.011377030052244663,-0.03489464893937111,-0.033596597611904144
1771681661513276700,10.326276611328124,0.0028251686599105597,0.029855160042643547,-0.014660334214568138
1771681661523634400,10.336634521484376,0.0028251686599105597,-0.037948887795209885,-0.053143709897994995
1771681661533992200,10.3469921875,0.016874656081199646,-0.015347537584602833,-0.046424392610788345
1771681661544350000,10.357349853515625,0.022372281178832054,0.15141376852989197,-0.03420744836330414
1771681661554707700,10.367707763671875,0.008322793990373611,-0.036727190017700195,-0.0653606578707695
1771681661565065500,10.3780654296875,0.022372281178832054,0.06284090876579285,-0.03787253051996231
1771681661575423200,10.38842333984375,0.026037365198135376,0.17035003006458282,-0.02748812735080719
1771681661585781000,10.398781005859375,0.012598725035786629,-0.07826480269432068,-0.04825693368911743
1771681661596138800,10.409138671875,0.019928891211748123,0.06100837141275406,-0.01954711228609085
1771681661606496500,10.41949658203125,0.053525492548942566,0.31206658482551575,0.004886778071522713
1771681661616854300,10.429854248046874,0.040697697550058365,-0.07765395939350128,-0.02748812735080719
1771681661627212000,10.4402119140625,0.029091600328683853,0.004199574701488018,-0.04214845970273018
1771681661637569800,10.45056982421875,0.043141089379787445,0.2387649267911911,-0.018936265259981155
1771681661647927600,10.460927490234376,0.03703261539340019,-0.17172443866729736,-0.04886778071522713
1771681661658285300,10.471285400390625,0.05719057470560074,-0.07337802648544312,-0.05741964280605316
1771681661668643000,10.48164306640625,0.07673768699169159,0.17584764957427979,0.009773556143045425
1771681661679000800,10.492000732421875,0.04375193640589714,-0.031229566782712936,-0.0024433890357613564
1771681661689358600,10.502358642578125,0.03703261539340019,0.027411770075559616,-0.008551862090826035
1771681661699716400,10.51271630859375,0.05841226875782013,0.10071343928575516,0.016492875292897224
1771681661710074000,10.52307421875,0.05535803362727165,-0.23586340248584747,-0.021379653364419937
1771681661720431900,10.533431884765625,0.05169294774532318,-0.057496000081300735,-0.01954711228609085
1771681661730789600,10.54378955078125,0.053525492548942566,0.11048699915409088,0.024433890357613564
1771681661741147400,10.5541474609375,0.03825430944561958,-0.014736690558493137,0.0012216945178806782
1771681661751505400,10.56450537109375,0.03336753323674202,-0.012293301522731781,0.0030542362947016954
1771681661761863200,10.57486328125,0.035200074315071106,0.07933378964662552,0.016492875292897224
1771681661772221000,10.585220947265626,0.028480753302574158,-0.07032378762960434,0.014660334214568138
1771681661782578700,10.59557861328125,0.035200074315071106,0.06467345356941223,0.012827792204916477
1771681661792936400,10.6059365234375,0.0364217683672905,0.07322531193494797,0.02748812735080719
1771681661803294200,10.616294189453125,0.029091600328683853,-0.08620581775903702,0.023823043331503868
1771681661813652000,10.62665185546875,0.031534988433122635,0.07994463294744492,0.01038440316915512
1771681661824009700,10.637009765625,0.02542651630938053,0.012751436792314053,0.02993151545524597
1771681661834367500,10.647367431640625,0.02970244735479355,-0.19982340931892395,0
1771681661844725200,10.657725341796874,0.05291464552283287,0.010918894782662392,0.02993151545524597
1771681661855083000,10.6680830078125,0.06940752267837524,0.16301986575126648,0.0623827762901783
1771681661865440800,10.678440673828124,0.04375193640589714,-0.09842276573181152,0.023823043331503868
1771681661875798500,10.688798583984376,0.05413633957505226,0.09216158092021942,0.03367295488715172
1771681661886156300,10.69915625,0.04802786558866501,0.06528430432081223,0.05566345527768135
1771681661896514000,10.70951416015625,0.04130854457616806,-0.21631628274917603,-0.01710372418165207
1771681661906871800,10.719871826171875,0.04619532451033592,-0.06788039952516556,0.022601349279284477
1771681661917229600,10.7302294921875,0.048638712614774704,0.1868429034948349,0.058717694133520126
1771681661927587300,10.74058740234375,0.033978380262851715,-0.06055023521184921,0.021990500390529633
1771681661937945000,10.750945068359375,0.04497363045811653,0.0420721061527729,0.05810684710741043
1771681661948302800,10.761302734375,0.04741701856255531,0.16851748526096344,0.07032378762960434
1771681661958660600,10.77166064453125,0.01382041908800602,-0.21448373794555664,-0.006108472589403391
1771681661969018400,10.782018310546874,0.018096350133419037,-0.007406522985547781,0.026877280324697495
1771681661979376000,10.792376220703124,-0.002672456670552492,0.18012358248233795,0.07704310864210129
1771681661989734000,10.80273388671875,0.005879404954612255,-0.026342788711190224,0.009773556143045425
1771681662000091600,10.813091552734376,0.013209572061896324,-0.03733803704380989,0.020157959312200546
1771681662010449400,10.823449462890625,-0.017332790419459343,0.1330883502960205,0.05566345527768135
1771681662020807200,10.83380712890625,-0.020997874438762665,-0.04527905210852623,0.030542362481355667
1771681662031165000,10.8441650390625,0.02420482225716114,0.019470756873488426,0.028098974376916885
1771681662041522700,10.854522705078125,0.019928891211748123,-0.011071606539189816,0.04405735805630684
1771681662051880400,10.86488037109375,0.026037365198135376,-0.0019088976550847292,0.014660334214568138
1771681662062238200,10.87523828125,0.02542651630938053,-0.006184828467667103,0.026877280324697495
1771681662072596000,10.885595947265625,0.024815669283270836,-0.025731941685080528,0.023823043331503868
1771681662082953700,10.89595361328125,0.030313294380903244,-0.004352286923676729,-0.0006108472589403391
1771681662093311500,10.9063115234375,0.028480753302574158,0.0005344913806766272,0.012827792204916477
1771681662103669200,10.916669189453126,0.027259059250354767,-0.000687203137204051,0.014049487188458443
1771681662114027000,10.927027099609376,0.027869906276464462,-0.0037414394319057465,-0.010995250195264816
1771681662124384800,10.937384765625,0.02970244735479355,0.014583977870643139,0.0036650835536420345
1771681662134742500,10.947742431640625,0.030313294380903244,-0.05199837312102318,-0.010995250195264816
1771681662145100300,10.958100341796875,0.044362783432006836,-0.000687203137204051,-0.006719320081174374
1771681662155458000,10.9684580078125,0.04802786558866501,0.08849649876356125,0.01954711228609085
1771681662165815800,10.97881591796875,0.03458922728896141,-0.05322006717324257,-0.008551862090826035
1771681662176173600,10.989173583984375,0.040697697550058365,-0.04161396995186806,-0.042759306728839874
1771681662186531300,10.99953125,0.04802786558866501,0.031076854094862938,-0.0018325417768210173
1771681662196889000,11.00988916015625,0.041919391602277756,-0.03855973482131958,-0.034818295389413834
1771681662207246800,11.020246826171874,0.04802786558866501,0.023746687918901443,-0.029320668429136276
1771681662217604600,11.0306044921875,0.05169294774532318,0.08666395395994186,0.007330167107284069
1771681662227962400,11.04096240234375,0.03886515647172928,-0.10025530308485031,-0.05008947476744652
1771681662238320000,11.051320068359376,0.048638712614774704,-0.03184041380882263,-0.034818295389413834
1771681662248678000,11.061677978515625,0.06940752267837524,0.1984490007162094,0.03298575058579445
1771681662259035600,11.07203564453125,0.05719057470560074,-0.10025530308485031,-0.03665083646774292
1771681662269393400,11.082393310546875,0.04680617153644562,-0.04650074616074562,-0.051922015845775604
1771681662279751200,11.092751220703125,0.04497363045811653,0.10376767814159393,0.01038440316915512
1771681662290109000,11.10310888671875,0.03214583545923233,-0.0623827762901783,-0.056808795779943466
1771681662300466700,11.113466796875,0.043141089379787445,-0.06421531736850739,-0.043981000781059265
1771681662310824400,11.123824462890624,0.04619532451033592,0.15691138803958893,0.0018325417768210173
1771681662321182200,11.13418212890625,0.0364217683672905,0.015805672854185104,-0.022601349279284477
1771681662331540000,11.1445400390625,0.043141089379787445,0.04818057641386986,-0.006108472589403391
1771681662341897700,11.154897705078126,0.04253023862838745,0.10010259598493576,0.01588202826678753
1771681662352255500,11.16525537109375,0.026037365198135376,-0.03733803704380989,-0.022601349279284477
1771681662362613200,11.17561328125,0.02664821222424507,0.008475505746901035,-0.0024433890357613564
1771681662372971300,11.18597119140625,0.0358109213411808,-0.00129805039614439,0.018936265259981155
1771681662383329000,11.1963291015625,0.03703261539340019,0.006032116711139679,-0.007941014133393764
1771681662393686800,11.206686767578125,0.033978380262851715,0.012140588834881783,0.00916270911693573
1771681662404044500,11.21704443359375,0.030313294380903244,-0.004352286923676729,0.0024433890357613564
1771681662414402300,11.22740234375,0.033978380262851715,-0.01901262067258358,-0.017714571207761765
1771681662424760000,11.237760009765625,0.049860406666994095,0.14408360421657562,0.03733803704380989
1771681662435117800,11.248117919921874,0.05474718660116196,-0.05077667906880379,0.0018325417768210173
1771681662445475600,11.2584755859375,0.029091600328683853,-0.04650074616074562,-0.04031591862440109
1771681662455833300,11.268833251953126,0.02970244735479355,0.04695888236165047,0.021990500390529633
1771681662466191000,11.279191162109376,0.02176143415272236,-0.015347537584602833,-0.0006108472589403391
1771681662476548900,11.289548828125,0.02298312820494175,-0.023899398744106293,-0.017714571207761765
1771681662486906600,11.29990673828125,0.02298312820494175,0.11659546941518784,0.021990500390529633
1771681662497264400,11.310264404296875,0.01748550310730934,-0.008017370477318764,-0.011606098152697086
1771681662507622100,11.3206220703125,0.02298312820494175,0.004810422193259001,-0.025655584409832954
1771681662517980000,11.33097998046875,0.019318044185638428,0.06528430432081223,0.0018325417768210173
1771681662528337700,11.341337646484375,0.014431266114115715,-0.03184041380882263,-0.030542362481355667
1771681662538695400,11.3516953125,0.009544488042593002,0.0231358390301466,-0.023212196305394173
1771681662549053200,11.36205322265625,0.033978380262851715,0.05428905040025711,0.020157959312200546
1771681662559411000,11.372410888671874,0.02970244735479355,-0.08009734749794006,-0.04581354558467865
1771681662569768700,11.382768798828126,0.032756682485342026,0.00908635277301073,-0.017714571207761765
1771681662580126500,11.39312646484375,0.03886515647172928,0.04756972938776016,0.017714571207761765
1771681662590484200,11.403484130859376,0.02970244735479355,-0.14851224422454834,-0.07085828483104706
1771681662600842000,11.413842041015625,0.021150587126612663,-0.07643226534128189,-0.042759306728839874
1771681662611199700,11.42419970703125,0.019928891211748123,0.13675342500209808,0.007941014133393764
1771681662621557500,11.4345576171875,0.028480753302574158,-0.025121092796325684,-0.03665083646774292
1771681662631915300,11.444915283203125,0.029091600328683853,0.007253811229020357,-0.01588202826678753
1771681662642273000,11.45527294921875,0.01748550310730934,0.02557922899723053,-0.0036650835536420345
1771681662652630800,11.465630859375,0.022372281178832054,0.004810422193259001,-0.02504473738372326
1771681662662988500,11.475988525390624,0.033978380262851715,0.050013117492198944,0.007330167107284069
1771681662673346300,11.48634619140625,0.021150587126612663,0.012140588834881783,0.0018325417768210173
1771681662683704000,11.4967041015625,0.01748550310730934,-0.00007635590736754239,-0.020157959312200546
1771681662694061800,11.507061767578126,0.02298312820494175,0.045737188309431076,0.005497625097632408
1771681662704419600,11.517419677734376,0.02542651630938053,-0.0019088976550847292,-0.007941014133393764
1771681662714777300,11.52777734375,0.029091600328683853,0.005421269219368696,-0.017714571207761765
1771681662725135000,11.538135009765625,0.029091600328683853,0.02924431301653385,0.01832541823387146
1771681662735492900,11.548492919921875,0.02420482225716114,0.010918894782662392,0.008551862090826035
1771681662745850600,11.5588505859375,0.027869906276464462,0.021303297951817513,0.010995250195264816
1771681662756208400,11.56920849609375,0.0364217683672905,0.034131091088056564,0.04650074616074562
1771681662766566100,11.579566162109375,0.02970244735479355,-0.014736690558493137,0.00916270911693573
1771681662776924000,11.589923828125,0.032756682485342026,0.05306735634803772,0.02870982140302658
1771681662787281700,11.60028173828125,0.03092414326965809,0.02680092304944992,0.05199837312102318
1771681662797639400,11.610639404296874,0.02664821222424507,-0.01901262067258358,-0.010995250195264816
1771681662807997200,11.6209970703125,0.02664821222424507,0.034131091088056564,0.01710372418165207
1771681662818355000,11.63135498046875,0.019318044185638428,-0.004352286923676729,0.01710372418165207
1771681662828712700,11.641712646484375,0.03092414326965809,0.022524992004036903,-0.0024433890357613564
1771681662839070500,11.652070556640625,0.048638712614774704,0.09704835712909698,0.06665870547294617
1771681662849428200,11.66242822265625,0.04497363045811653,0.010918894782662392,0.052609220147132874
1771681662859786000,11.672785888671875,0.027259059250354767,0.00908635277301073,0.01038440316915512
1771681662870143700,11.683143798828125,0.05291464552283287,0.045737188309431076,0.05444176122546196
1771681662880501500,11.69350146484375,0.059023115783929825,-0.05138752609491348,0.014049487188458443
1771681662890859300,11.703859375,0.04497363045811653,-0.037948887795209885,0.010995250195264816
1771681662901217000,11.714217041015624,0.03214583545923233,0.027411770075559616,0.031153209507465363
1771681662911574800,11.72457470703125,0.02053973823785782,-0.02023431472480297,0.014660334214568138
1771681662921932500,11.7349326171875,0.02298312820494175,0.011529741808772087,0.014660334214568138
1771681662932290300,11.745290283203126,0.02542651630938053,0.015194825828075409,0.037948887795209885
1771681662942648000,11.75564794921875,0.018707197159528732,-0.009239064529538155,0.014660334214568138
1771681662953005800,11.766005859375,0.018707197159528732,0.004199574701488018,0.01954711228609085
1771681662963363600,11.776363525390625,0.019928891211748123,-0.017180079594254494,0.03489464893937111
1771681662973721300,11.786721435546875,0.02053973823785782,-0.0025197449140250683,0.011606098152697086
1771681662984079000,11.7970791015625,0.016874656081199646,0.0023670331574976444,0.017714571207761765
1771681662994436900,11.807436767578125,0.01626380905508995,0.010308047756552696,0.01588202826678753
1771681663004794600,11.817794677734375,0.026037365198135376,0.010918894782662392,0.0024433890357613564
1771681663015152400,11.82815234375,0.019928891211748123,-0.006184828467667103,0.01588202826678753
1771681663025510100,11.83851025390625,0.01748550310730934,-0.0489441379904747,-0.021990500390529633
1771681663035868000,11.848867919921876,0.02970244735479355,0.026190076023340225,0.007330167107284069
1771681663046225700,11.8592255859375,0.05413633957505226,0.06223006546497345,0.0623827762901783
1771681663056583400,11.86958349609375,0.049860406666994095,-0.07948649674654007,-0.024433890357613564
1771681663066941200,11.879941162109375,0.04741701856255531,-0.03061871975660324,-0.006719320081174374
1771681663077299000,11.890298828125,0.03458922728896141,-0.00129805039614439,0.026877280324697495
1771681663087656700,11.90065673828125,0.008933641016483307,-0.061771929264068604,-0.03542914241552353
1771681663098014500,11.911014404296875,0.024815669283270836,0.022524992004036903,0.012216945178806782
1771681663108372200,11.921372314453125,0.02176143415272236,-0.025121092796325684,0.004275931045413017
1771681663118730000,11.93172998046875,0.024815669283270836,-0.06116108223795891,-0.04337015375494957
1771681663129087700,11.942087646484374,0.028480753302574158,0.03840702027082443,0.012216945178806782
1771681663139445500,11.952445556640624,0.011987877078354359,-0.009239064529538155,0.0006108472589403391
1771681663149803300,11.96280322265625,0.011987877078354359,-0.03367295488715172,-0.03787253051996231
1771681663160161000,11.9731611328125,0.01382041908800602,0.006032116711139679,-0.00916270911693573
1771681663170518800,11.983518798828126,0.011377030052244663,-0.011682453565299511,-0.012827792204916477
1771681663180876500,11.99387646484375,0.02053973823785782,0.004810422193259001,-0.023212196305394173
1771681663191234300,12.004234375,0.011377030052244663,-0.005573981441557407,-0.009773556143045425
1771681663201592000,12.014592041015625,0.010766183026134968,-0.0165692325681448,-0.028098974376916885
1771681663211949800,12.02494970703125,0.027259059250354767,0.04695888236165047,0.004275931045413017
1771681663222307600,12.0353076171875,0.032756682485342026,0.017027366906404495,0.006719320081174374
1771681663232665300,12.045665283203125,0.023593975231051445,-0.05566345527768135,-0.04153761267662048
1771681663243023000,12.056023193359374,0.02664821222424507,-0.022677704691886902,-0.013438640162348747
1771681663253380900,12.066380859375,0.008322793990373611,-0.008017370477318764,-0.004886778071522713
1771681663263738600,12.076738525390626,0.012598725035786629,-0.03306210786104202,-0.013438640162348747
1771681663274096400,12.087096435546876,0.012598725035786629,-0.043446511030197144,0.0024433890357613564
1771681663284454100,12.0974541015625,0.009544488042593002,-0.03489464893937111,0.0012216945178806782
1771681663294812000,12.10781201171875,0.012598725035786629,-0.023288551717996597,-0.012216945178806782
1771681663305169700,12.118169677734375,0.004046862944960594,-0.013514995574951172,0.006719320081174374
1771681663315527400,12.12852734375,0.004046862944960594,-0.0025197449140250683,-0.010995250195264816
1771681663325885200,12.13888525390625,0.007711946498602629,-0.0025197449140250683,-0.007941014133393764
1771681663336243000,12.149242919921875,0.0034360159188508987,-0.015347537584602833,0.004886778071522713
1771681663346600700,12.1596005859375,0.005879404954612255,-0.0067956759594380856,-0.01038440316915512
1771681663356958500,12.16995849609375,0.01382041908800602,0.03168770298361778,0.026877280324697495
1771681663367316200,12.180316162109374,-0.0008399150101467967,-0.0623827762901783,-0.0006108472589403391
1771681663377674000,12.190674072265624,0.00038177953683771193,-0.08192989230155945,-0.04092676565051079
1771681663388031700,12.20103173828125,0.02176143415272236,0.08544225990772247,0.062993623316288
1771681663398389500,12.211389404296876,0.015042114071547985,-0.00007635590736754239,0.03176405653357506
1771681663408747300,12.221747314453125,0.007711946498602629,-0.08192989230155945,-0.02626643143594265
1771681663419105000,12.23210498046875,-0.0008399150101467967,-0.020845163613557816,0.004275931045413017
1771681663429462800,12.242462890625,-0.002672456670552492,-0.004963133949786425,0.0036650835536420345
1771681663439820500,12.252820556640625,-0.0014507622690871358,-0.009239064529538155,-0.0036650835536420345
1771681663450178600,12.263178466796875,-0.002061609411612153,-0.014125842601060867,0.004275931045413017
1771681663460536000,12.2735361328125,-0.002061609411612153,-0.011682453565299511,0.0036650835536420345
1771681663470894000,12.28389404296875,-0.002061609411612153,-0.012904148548841476,-0.0036650835536420345
1771681663481251600,12.29425146484375,-0.007559234742075205,-0.014736690558493137,0.0018325417768210173
1771681663491609600,12.304609619140624,-0.0014507622690871358,-0.009239064529538155,-0.011606098152697086
1771681663501967400,12.31496728515625,0.0009926267666742206,-0.01046075951308012,-0.007330167107284069
1771681663512325000,12.3253251953125,-0.0014507622690871358,-0.006184828467667103,-0.011606098152697086
1771681663522683000,12.335682861328126,-0.0038941511884331703,0.005421269219368696,-0.014660334214568138
1771681663533040600,12.34604052734375,-0.0032833039294928312,-0.005573981441557407,-0.0036650835536420345
1771681663543398400,12.3563984375,-0.0038941511884331703,0.005421269219368696,-0.012827792204916477
1771681663553756200,12.366756103515625,0.00038177953683771193,-0.004352286923676729,-0.009773556143045425
1771681663564114000,12.377114013671875,-0.005726693198084831,-0.011682453565299511,-0.007941014133393764
1771681663574471700,12.3874716796875,-0.005726693198084831,0.010308047756552696,-0.01954711228609085
1771681663584829400,12.397829345703125,-0.002672456670552492,-0.0037414394319057465,-0.006719320081174374
1771681663595187200,12.408187255859374,-0.008170082233846188,-0.000687203137204051,-0.008551862090826035
1771681663605545000,12.418544921875,-0.0051158457063138485,0.017027366906404495,-0.020157959312200546
1771681663615902700,12.42890283203125,-0.0032833039294928312,0.02557922899723053,-0.0024433890357613564
1771681663626260500,12.439260498046876,-0.004504998680204153,0.0017561858985573053,-0.014660334214568138
1771681663636618200,12.4496181640625,-0.002672456670552492,0.012140588834881783,-0.029320668429136276
1771681663646976000,12.45997607421875,-0.009391776286065578,0.021914144977927208,-0.014660334214568138
1771681663657333800,12.470333740234375,-0.0051158457063138485,0.013973130844533443,-0.012827792204916477
1771681663667691500,12.48069140625,-0.0014507622690871358,-0.0025197449140250683,-0.02076880633831024
1771681663678049300,12.49104931640625,-0.006337540224194527,-0.00129805039614439,-0.015271181240677834
1771681663688407000,12.501406982421875,-0.008780929259955883,0.00786465872079134,-0.01710372418165207
1771681663698764800,12.511764892578125,-0.006337540224194527,-0.015347537584602833,-0.014049487188458443
1771681663709122600,12.52212255859375,-0.006337540224194527,-0.0019088976550847292,-0.004886778071522713
1771681663719480300,12.532480224609374,-0.0051158457063138485,-0.0067956759594380856,-0.008551862090826035
1771681663729838000,12.542838134765624,-0.009391776286065578,-0.009849912486970425,-0.008551862090826035
1771681663740195800,12.55319580078125,-0.005726693198084831,0.004199574701488018,-0.009773556143045425
