time,seconds_elapsed,z,y,x
1771681651303019300,0.116019287109375,9.044869422912598,0,-0.031106693670153618
1771681651313377000,0.126376953125,9.133403778076172,1.5290136337280273,0.24885354936122894
1771681651334092500,0.147092529296875,9.32722282409668,1.2634103298187256,0.01196411345154047
1771681651344450300,0.1574501953125,9.480362892150879,1.9525432586669922,-1.1030912399291992
1771681651354808000,0.16780810546875,9.882357597351074,2.66560435295105,-0.5838487148284912
1771681651365165800,0.178165771484375,9.059226989746094,-0.1698904037475586,0.7322037220001221
1771681651385881300,0.19888134765625,12.31107234954834,5.675775527954102,-0.3158525824546814
1771681651406596900,0.219596923828125,10.269994735717773,1.6773686408996582,-1.0049854516983032
1771681651416954600,0.22995458984375,10.937592506408691,2.1607189178466797,0.064606212079525
1771681651427312400,0.2403125,8.609375953674316,1.1174482107162476,0.8063812255859375
1771681651437670100,0.250670166015625,9.111868858337402,3.8428730964660645,0.4546363055706024
1771681651448028000,0.26102783203125,12.08614730834961,4.110869407653809,-0.5647061467170715
1771681651458385700,0.2713857421875,7.767102241516113,0.7824530005455017,-0.11485548317432404
1771681651468743400,0.281743408203125,9.722038269042969,0.6101697683334351,-0.7752745151519775
1771681651479101200,0.29210107421875,10.8969144821167,2.500499725341797,-0.11246266216039658
1771681651489459000,0.302458984375,7.1856465339660645,1.1054840087890625,1.160519003868103
1771681651499816700,0.312816650390625,10.990234375,5.111069202423096,0.1818545162677765
1771681651510174500,0.323174560546875,10.258030891418457,2.4574289321899414,0.4666004180908203
1771681651520532200,0.3335322265625,7.793423175811768,0.6293123364448547,-0.4498506486415863
1771681651530890000,0.343889892578125,10.707880973815918,1.3878371715545654,-0.8063812255859375
1771681651541247700,0.354247802734375,9.66939640045166,1.5337992906570435,0.4091726839542389
1771681651551605500,0.36460546875,7.3292155265808105,2.6464617252349854,1.196411371231079
1771681651561963300,0.37496337890625,11.85165023803711,4.321437835693359,0.0933200865983963
1771681651572321000,0.385321044921875,9.506684303283691,1.430907964706421,0.03349951654672623
1771681651582678800,0.3956787109375,8.051848411560059,-0.040677983313798904,-0.30149564146995544
1771681651593036500,0.40603662109375,11.818151473999023,2.5938198566436768,0.1986042857170105
1771681651603394300,0.416394287109375,8.937192916870117,2.861815929412842,0.794417142868042
1771681651613752000,0.426751953125,8.81515884399414,3.0340991020202637,1.0097711086273193
1771681651624109800,0.43710986328125,12.0335054397583,2.5052852630615234,-0.2512463629245758
1771681651634467600,0.447467529296875,8.300702095031738,1.0097711086273193,-0.11724831163883209
1771681651644825300,0.457825439453125,9.183652877807617,-0.12921242415905,-0.5479564070701599
1771681651655183000,0.46818310546875,11.641081809997559,4.015156269073486,0.29431718587875366
1771681651665540900,0.478540771484375,7.791030406951904,4.091726779937744,0.5910272002220154
1771681651675898600,0.488898681640625,11.12901782989502,1.3256237506866455,0.7561319470405579
1771681651686256400,0.49925634765625,8.568697929382324,1.7850457429885864,0.08135596662759781
1771681651696614100,0.5096142578125,9.712467193603516,-0.06699903309345245,0.15314064919948578
1771681651706972000,0.519971923828125,10.626524925231934,2.6943182945251465,-0.19142581522464752
1771681651717329700,0.53032958984375,9.119047164916992,4.029513359069824,-0.4211367964744568
1771681651727687400,0.5406875,9.992427825927734,2.715853691101074,0.48095735907554626
1771681651738045200,0.551045166015625,10.370492935180664,1.28255295753479,-0.22492532432079315
1771681651748403000,0.56140283203125,8.997013092041016,0.6101697683334351,0.23210379481315613
1771681651758760700,0.5717607421875,10.875378608703613,3.1824541091918945,0.062213387340307236
1771681651769118500,0.582118408203125,8.839086532592773,3.366701364517212,-0.3613162338733673
1771681651779476200,0.592476318359375,10.38485050201416,2.4358935356140137,-0.33738797903060913
1771681651789834000,0.602833984375,9.633503913879395,1.4524433612823486,-0.4331009089946747
1771681651800191700,0.613191650390625,9.391828536987305,0.6508477330207825,-0.1866401731967926
1771681651810549500,0.623549560546875,10.202995300292969,2.830709218978882,0.062213387340307236
1771681651820907300,0.6339072265625,10.013962745666504,3.1034910678863525,-0.08614161610603333
1771681651831265000,0.64426513671875,9.937392234802246,2.2229323387145996,0.30149564146995544
1771681651841622800,0.654622802734375,8.528019905090332,1.7587246894836426,0.8685946464538574
1771681651851980500,0.66498046875,9.159725189208984,0.06699903309345245,0.10767702013254166
1771681651862338300,0.67533837890625,8.678768157958984,3.0795626640319824,-0.15553347766399384
1771681651872696000,0.685696044921875,9.750752449035645,2.8450660705566406,-0.3206382393836975
1771681651883053800,0.6960537109375,9.681360244750977,2.6081767082214355,0.5048855543136597
1771681651893411600,0.70641162109375,8.846264839172363,1.7754744291305542,0.04307080805301666
1771681651903769300,0.716769287109375,10.183853149414062,1.1485549211502075,0.0526420995593071
1771681651914127000,0.727127197265625,9.363115310668945,3.6681971549987793,0.08135596662759781
1771681651924484900,0.73748486328125,10.061819076538086,2.9144580364227295,0.12921242415905
1771681651934842600,0.747842529296875,9.7938232421875,1.8185452222824097,-0.9499505758285522
1771681651945200400,0.758200439453125,8.171489715576172,1.184447169303894,-0.064606212079525
1771681651955558100,0.76855810546875,10.813165664672852,1.97407865524292,-0.10289137065410614
1771681651965916000,0.778916015625,8.82951545715332,2.761317253112793,-0.14117653667926788
1771681651976273700,0.789273681640625,10.96630573272705,2.9288148880004883,0.1339980661869049
1771681651986631400,0.79963134765625,8.922835350036621,1.6295121908187866,1.2873386144638062
1771681651996989200,0.8099892578125,9.92542839050293,1.129412293434143,0.26560330390930176
1771681652007347000,0.820346923828125,10.26760196685791,3.610769271850586,-0.6699903607368469
1771681652017704700,0.83070458984375,10.092926025390625,2.9216363430023193,-0.23449662327766418
1771681652028062500,0.8410625,10.420742988586426,2.823530673980713,0.10289137065410614
1771681652038420200,0.851420166015625,8.403593063354492,0.4331009089946747,0.5575276613235474
1771681652048778000,0.861778076171875,10.380064964294434,1.7012969255447388,0.7848458290100098
1771681652059135700,0.8721357421875,10.217352867126465,3.864408493041992,0.20338992774486542
1771681652069493500,0.882493408203125,9.243474006652832,2.706282377243042,0.19621145725250244
1771681652079851300,0.892851318359375,9.111868858337402,1.4189438819885254,-0.12681959569454193
1771681652090209000,0.903208984375,9.32722282409668,1.368694543838501,0.07896314561367035
1771681652100566800,0.91356689453125,10.612168312072754,2.5531418323516846,0.12681959569454193
1771681652110924500,0.923924560546875,8.96112060546875,2.3306093215942383,0.21774685382843018
1771681652121282300,0.9342822265625,10.932806968688965,2.5076780319213867,0.48813581466674805
1771681652131640000,0.94464013671875,7.386643409729004,1.00259268283844,0.16271193325519562
1771681652141997800,0.954997802734375,10.573883056640625,2.194218397140503,-0.42831525206565857
1771681652152355800,0.96535595703125,9.121439933776855,3.046063184738159,-0.6173482537269592
1771681652162713300,0.97571337890625,10.183853149414062,3.5222349166870117,-0.3852444589138031
1771681652173071000,0.986071044921875,8.226524353027344,1.332802176475525,-0.24646073579788208
1771681652183428900,0.996428955078125,10.360921859741211,0.6221339106559753,-0.2392822653055191
1771681652193786600,1.00678662109375,9.822537422180176,1.8137595653533936,-0.13639089465141296
1771681652204144600,1.01714453125,11.437692642211914,3.9601213932037354,-0.4666004180908203
1771681652214502400,1.02750244140625,8.8438720703125,2.2157537937164307,0.7800601720809937
1771681652224860200,1.037860107421875,8.556734085083008,0.9834501147270203,0.17228323221206665
1771681652235218000,1.048218017578125,10.671989440917969,1.5002998113632202,1.038485050201416
1771681652245575700,1.05857568359375,10.808380126953125,3.3930225372314453,-0.07896314561367035
1771681652255933200,1.06893310546875,9.367900848388672,2.4023938179016113,0.6317051649093628
1771681652266291200,1.079291259765625,8.059026718139648,0.6795616149902344,0.5790630578994751
1771681652276648700,1.089648681640625,10.415956497192383,0.6221339106559753,1.6701902151107788
1771681652287006700,1.1000068359375,10.475777626037598,3.153740167617798,-0.48574298620224
1771681652297364500,1.110364501953125,9.205188751220703,2.478964328765869,-0.16749759018421173
1771681652307722000,1.120721923828125,8.817551612854004,0.8183453679084778,-0.2105683982372284
1771681652318079700,1.131079833984375,10.315458297729492,0.7824530005455017,0.1818545162677765
1771681652328437800,1.141437744140625,10.179067611694336,3.460021495819092,-0.2871387302875519
1771681652338795500,1.15179541015625,8.8438720703125,2.6943182945251465,-0.5335994362831116
1771681652349153300,1.1621533203125,8.819944381713867,0.8231309652328491,1.0504491329193115
1771681652359511000,1.172510986328125,9.040083885192871,0.6340979933738708,0.3158525824546814
1771681652369868800,1.182868896484375,10.643275260925293,3.6921253204345703,-0.35413774847984314
1771681652380226600,1.1932265625,10.231709480285645,3.6155550479888916,0.10049854964017868
1771681652390584300,1.203584228515625,8.578269004821777,1.6007983684539795,0.7992027401924133
1771681652400942000,1.213942138671875,9.509077072143555,0.6149554252624512,0.4019941985607147
1771681652411299800,1.2242998046875,10.607382774353027,2.2636101245880127,0.059820566326379776
1771681652421657600,1.23465771484375,9.963713645935059,3.761517286300659,0.33738797903060913
1771681652432015400,1.245015380859375,8.848658561706543,2.2372891902923584,0.37088751792907715
1771681652442373000,1.255373046875,9.020941734313965,0.9930213689804077,0.28235307335853577
1771681652452731000,1.26573095703125,9.69093132019043,2.0099709033966064,-0.12921242415905
1771681652463088600,1.276088623046875,9.674181938171387,2.4981069564819336,0.5000999569892883
1771681652473446400,1.2864462890625,10.521241188049316,2.2325034141540527,0.064606212079525
1771681652483804200,1.29680419921875,7.527820110321045,1.2610175609588623,0.6891329288482666
1771681652494162000,1.307161865234375,10.351350784301758,1.9692929983139038,-0.27038896083831787
1771681652504519700,1.317519775390625,8.15234661102295,2.720639228820801,-0.26560330390930176
1771681652514877400,1.32787744140625,9.65503978729248,2.344966173171997,-0.24406790733337402
1771681652525235200,1.338235107421875,11.92343521118164,-0.7537391185760498,-0.641276478767395
1771681652535593000,1.348593017578125,10.61695384979248,1.7611174583435059,-1.057627558708191
1771681652545950700,1.35895068359375,11.519047737121582,3.3954153060913086,-0.8733802437782288
1771681652556308500,1.36930859375,8.717052459716797,1.7084753513336182,0.6747759580612183
1771681652566666200,1.379666259765625,10.561919212341309,0.40677985548973083,0.698704183101654
1771681652577024000,1.39002392578125,9.791430473327637,2.9455647468566895,-0.3158525824546814
1771681652587381800,1.4003818359375,10.193424224853516,3.3930225372314453,-0.031106693670153618
1771681652597739500,1.410739501953125,9.705288887023926,1.6558332443237305,0.46899324655532837
1771681652608097300,1.42109716796875,9.573683738708496,0.35413774847984314,0.5216353535652161
1771681652618455000,1.431455078125,10.296316146850586,2.9934210777282715,-0.08853443711996078
1771681652628812800,1.441812744140625,9.978070259094238,3.16331148147583,-0.20338992774486542
1771681652639170600,1.452170654296875,9.10229778289795,0.8877372145652771,0.37088751792907715
1771681652649528300,1.4625283203125,9.954142570495605,0.42831525206565857,0.5910272002220154
1771681652659886000,1.472885986328125,10.080962181091309,3.4815568923950195,-0.7776673436164856
1771681652670243800,1.483243896484375,10.454241752624512,2.3234307765960693,-1.0528420209884644
1771681652680601600,1.4936015625,9.013762474060059,1.0241280794143677,0.576670229434967
1771681652690959400,1.50395947265625,10.679167747497559,1.5720844268798828,0.576670229434967
1771681652701317000,1.514317138671875,10.542776107788086,3.730410575866699,-0.6101697683334351
1771681652711675000,1.5246748046875,8.219346046447754,2.069791555404663,0.20338992774486542
1771681652722032600,1.53503271484375,12.141181945800781,-0.4139583110809326,1.0145567655563354
1771681652732390400,1.545390380859375,10.358529090881348,2.5770699977874756,0.33499518036842346
1771681652742748200,1.555748046875,9.937392234802246,2.2851455211639404,0.33020952343940735
1771681652753106000,1.56610595703125,10.076175689697266,1.4021940231323242,1.404586911201477
1771681652763463700,1.576463623046875,8.810373306274414,1.1437692642211914,1.1389836072921753
1771681652773821400,1.586821533203125,8.987442016601562,2.902493953704834,0.35413774847984314
1771681652784179200,1.59717919921875,9.305686950683594,2.2372891902923584,-0.2153540402650833
1771681652794537000,1.607536865234375,9.499505996704102,1.8664016723632812,0.8039883971214294
1771681652804894700,1.617894775390625,10.435099601745605,2.0099709033966064,0.3038884699344635
1771681652815252500,1.62825244140625,9.734002113342285,3.3379876613616943,-0.21774685382843018
1771681652825610200,1.6386103515625,8.702695846557617,0.8159525394439697,0.40677985548973083
1771681652835968000,1.648968017578125,9.049654960632324,1.155733346939087,-0.1866401731967926
1771681652846325800,1.65932568359375,9.511469841003418,3.397808074951172,-0.031106693670153618
1771681652856683500,1.66968359375,9.57607650756836,2.1367905139923096,0.4043870270252228
1771681652867041300,1.680041259765625,8.784051895141602,0.8781659007072449,0.09810572862625122
1771681652877399000,1.69039892578125,9.970891952514648,2.2540390491485596,0.2799602448940277
1771681652887756800,1.7007568359375,9.083154678344727,3.0005996227264404,-0.6101697683334351
1771681652898114600,1.711114501953125,9.597611427307129,1.794616937637329,0.02153540402650833
1771681652908472300,1.721472412109375,8.975478172302246,0.5886343717575073,-0.13639089465141296
1771681652918830000,1.731830078125,10.607382774353027,2.878565549850464,-0.4953143000602722
1771681652929187800,1.742187744140625,10.133604049682617,2.794816732406616,-0.6819544434547424
1771681652939545600,1.752545654296875,9.442078590393066,-0.18903298676013947,0.04785645380616188
1771681652949903400,1.7629033203125,10.00439167022705,2.3186452388763428,-0.31345975399017334
1771681652960261000,1.77326123046875,10.497312545776367,4.139583110809326,0.02392822690308094
1771681652970619000,1.783618896484375,8.678768157958984,0.5455635786056519,0.36610186100006104
1771681652980976600,1.7939765625,9.162117958068848,1.0169496536254883,0.28953152894973755
1771681652991334400,1.80433447265625,10.590633392333984,3.326023578643799,0.059820566326379776
1771681653001692200,1.814692138671875,9.91107177734375,2.2325034141540527,-0.275174617767334
1771681653012050000,1.8250498046875,9.56889820098877,0.3924229145050049,0.14117653667926788
1771681653022407700,1.83540771484375,10.188638687133789,2.172683000564575,0.4211367964744568
1771681653032765400,1.845765380859375,10.023533821105957,2.63449764251709,-0.22492532432079315
1771681653043123200,1.856123291015625,8.941978454589844,1.0432707071304321,-0.4019941985607147
1771681653053481000,1.86648095703125,9.561718940734863,1.6103696823120117,-0.47617170214653015
1771681653063838700,1.876838623046875,10.396814346313477,2.478964328765869,-0.11724831163883209
1771681653074196500,1.887196533203125,9.138189315795898,1.8807586431503296,0
1771681653084554200,1.89755419921875,9.609575271606445,0.9690931439399719,-0.5790630578994751
1771681653094912000,1.907912109375,9.726823806762695,2.2995026111602783,-0.2871387302875519
1771681653105269800,1.918269775390625,10.162318229675293,2.720639228820801,-0.34217363595962524
1771681653115627500,1.92862744140625,9.449256896972656,0.9834501147270203,0.11006984114646912
1771681653125985300,1.9389853515625,9.528220176696777,2.0171494483947754,0.22971096634864807
1771681653136343000,1.949343017578125,9.891928672790527,2.526820659637451,0.23449662327766418
1771681653146700800,1.95970068359375,9.166903495788574,1.124626636505127,-0.2679961323738098
1771681653157058600,1.97005859375,9.698110580444336,1.9812572002410889,-0.02871387079358101
1771681653167416300,1.980416259765625,9.659825325012207,3.5533416271209717,-0.13160525262355804
1771681653177774000,1.990774169921875,9.375079154968262,1.454836130142212,0.727418065071106
1771681653188131800,2.0011318359375,8.903693199157715,1.1030912399291992,-0.08374879509210587
1771681653198489600,2.011489501953125,9.463613510131836,2.837887763977051,-0.4163511395454407
1771681653208847400,2.021847412109375,9.90149974822998,2.218146562576294,-0.035892341285943985
1771681653219205000,2.032205078125,9.190832138061523,1.5481562614440918,-0.7369893789291382
1771681653229563000,2.04256298828125,9.994820594787598,2.366501569747925,-0.33499518036842346
1771681653239920600,2.052920654296875,9.719645500183105,2.9527430534362793,-0.09810572862625122
1771681653250278400,2.0632783203125,9.164510726928711,0.17228323221206665,-0.5168496966362
1771681653260636200,2.07363623046875,9.93978500366211,3.1752755641937256,0.004785645287483931
1771681653270994000,2.083993896484375,10.296316146850586,3.1034910678863525,0.5264210104942322
1771681653281351700,2.0943515625,8.9850492477417,0.5838487148284912,0.8111668825149536
1771681653291709400,2.10470947265625,8.623732566833496,2.043470621109009,-0.6604190468788147
1771681653302067200,2.115067138671875,11.071590423583984,3.428914785385132,-0.12442677468061447
1771681653312425000,2.125425048828125,8.724231719970703,1.6366907358169556,0.10049854964017868
1771681653322782700,2.13578271484375,10.02592658996582,0.3038884699344635,-0.40677985548973083
1771681653333140500,2.146140380859375,10.40638542175293,4.108476638793945,-0.31106695532798767
1771681653343498200,2.156498291015625,10.078569412231445,2.0482561588287354,0.18424734473228455
1771681653353856000,2.16685595703125,9.032905578613281,-0.7992027401924133,-0.5168496966362
1771681653364213800,2.1772138671875,9.604789733886719,3.4576287269592285,-0.45942193269729614
1771681653374571500,2.187571533203125,10.820343971252441,3.273381471633911,0.31824541091918945
1771681653384929300,2.19792919921875,8.7505521774292,-0.16031911969184875,1.007378339767456
1771681653395287000,2.208287109375,10.320243835449219,2.7110681533813477,0.007178467698395252
1771681653405644800,2.218644775390625,10.892128944396973,3.524627685546875,0.17946170270442963
1771681653416002600,2.22900244140625,9.05444049835205,0.5048855543136597,0.882951557636261
1771681653426360300,2.2393603515625,10.466206550598145,2.4023938179016113,-0.2967100143432617
1771681653436718000,2.249718017578125,10.435099601745605,3.6993038654327393,0.16510476171970367
1771681653447075800,2.260075927734375,8.798408508300781,-0.1698904037475586,0.1698904037475586
1771681653457433600,2.27043359375,10.480563163757324,2.6273193359375,-0.8374879360198975
1771681653467791400,2.280791259765625,10.511670112609863,3.9218363761901855,-0.19621145725250244
1771681653478149000,2.291149169921875,9.231510162353516,-0.21296121180057526,-0.08135596662759781
1771681653488507000,2.3015068359375,9.535398483276367,0.7896314859390259,-0.5694918036460876
1771681653498864600,2.31186474609375,10.85862922668457,3.893122434616089,-0.8183453679084778
1771681653509222400,2.322222412109375,9.791430473327637,1.5026925802230835,0.3445664644241333
1771681653519580200,2.332580078125,10.171889305114746,-0.30149564146995544,0.5670989751815796
1771681653529938000,2.34293798828125,10.808380126953125,3.500699520111084,-0.4259224236011505
1771681653540295700,2.353295654296875,10.25324535369873,2.1056840419769287,0.035892341285943985
1771681653550653400,2.3636533203125,10.214960098266602,0.550349235534668,0.014356935396790504
1771681653561011200,2.37401123046875,10.119247436523438,3.2063822746276855,-0.6436693072319031
1771681653571369000,2.384368896484375,8.228917121887207,1.6582261323928833,-0.5886343717575073
1771681653581726700,2.394726806640625,8.34855842590332,0.6532405614852905,0.3565305769443512
1771681653592084500,2.40508447265625,8.468199729919434,2.8905298709869385,0.1986042857170105
1771681653602442200,2.415442138671875,9.44447135925293,2.56510591506958,-0.4211367964744568
1771681653612800000,2.425800048828125,9.997213363647461,0.9116654396057129,-0.12442677468061447
1771681653623157800,2.43615771484375,9.052047729492188,1.8041882514953613,-0.3756731450557709
1771681653633515500,2.446515625,9.181260108947754,2.392822742462158,0.09571290761232376
1771681653643873300,2.456873291015625,8.805587768554688,2.53399920463562,0.08374879509210587
1771681653654231000,2.46723095703125,8.74337387084961,2.3186452388763428,-0.07896314561367035
1771681653664588800,2.4775888671875,9.355937004089355,1.7204394340515137,-0.10289137065410614
1771681653674946600,2.487946533203125,9.463613510131836,2.9288148880004883,0.3517449200153351
1771681653685304300,2.49830419921875,9.284152030944824,2.0889341831207275,0.5216353535652161
1771681653695662000,2.508662109375,8.11406135559082,0.5383850932121277,1.0001999139785767
1771681653706019800,2.519019775390625,10.219745635986328,2.2061824798583984,0.6819544434547424
1771681653716377600,2.529377685546875,8.49452018737793,1.8951154947280884,0.16271193325519562
1771681653726735400,2.5397353515625,10.109675407409668,1.734796404838562,0.9427721500396729
1771681653737093000,2.550093017578125,9.394221305847168,2.289931297302246,-0.5694918036460876
1771681653747451000,2.560450927734375,9.623932838439941,1.9262222051620483,-1.3926228284835815
1771681653757808600,2.57080859375,8.405985832214355,1.8400806188583374,-0.2560320198535919
1771681653768166700,2.581166748046875,10.155138969421387,2.8737800121307373,-1.1054840087890625
1771681653778524400,2.5915244140625,11.399407386779785,2.076970100402832,-0.1818545162677765
1771681653788882200,2.601882080078125,10.64088249206543,0.13639089465141296,0.9427721500396729
1771681653799240000,2.612239990234375,9.994820594787598,1.919043779373169,0.05024927482008934
1771681653809597700,2.62259765625,10.207781791687012,2.3952155113220215,-0.3038884699344635
1771681653819955500,2.63295556640625,8.082955360412598,0.605384111404419,0.46899324655532837
1771681653830313200,2.643313232421875,10.870593070983887,3.3786656856536865,0.059820566326379776
1771681653840671000,2.6536708984375,8.15234661102295,2.438286304473877,-0.33738797903060913
1771681653851028700,2.66402880859375,9.719645500183105,0.6197410821914673,1.1222338676452637
1771681653861386500,2.674386474609375,9.903892517089844,2.7278177738189697,-0.004785645287483931
1771681653871744300,2.684744140625,11.662617683410645,2.572284460067749,0.2847459018230438
1771681653882102000,2.69510205078125,10.387243270874023,0.4259224236011505,0.576670229434967
1771681653892459800,2.705459716796875,10.126425743103027,2.6727828979492188,-0.07417750358581543
1771681653902817500,2.715817626953125,10.006784439086914,1.8831514120101929,0.26081767678260803
1771681653913175300,2.72617529296875,8.819944381713867,0.7680960893630981,0.607776939868927
1771681653923533000,2.736532958984375,9.554540634155273,2.122433662414551,-0.0023928226437419653
1771681653933890800,2.746890869140625,10.293923377990723,1.3351950645446777,0.4570291340351105
1771681653944248600,2.75724853515625,10.86580753326416,2.2540390491485596,-0.43549370765686035
1771681653954606300,2.7676064453125,10.356136322021484,1.7012969255447388,-0.14835500717163086
1771681653964964000,2.777964111328125,10.904092788696289,1.6295121908187866,-0.8614161610603333
1771681653975321900,2.78832177734375,10.643275260925293,3.3332018852233887,-0.4211367964744568
1771681653985679600,2.7986796875,8.83669376373291,0.9188438653945923,0.38763725757598877
1771681653996037400,2.809037353515625,8.382058143615723,1.9836499691009521,0.23449662327766418
1771681654006395100,2.81939501953125,9.32004451751709,2.7517459392547607,0.20817556977272034
1771681654016753000,2.8297529296875,8.640482902526855,1.2370892763137817,-1.0719845294952393
1771681654027110700,2.840110595703125,11.557332992553711,2.667997360229492,-0.973878800868988
1771681654037468400,2.850468505859375,11.119446754455566,3.1250264644622803,0.12921242415905
1771681654047826200,2.860826171875,10.262816429138184,-0.397208571434021,0.062213387340307236
1771681654058184000,2.871183837890625,10.837093353271484,2.287538528442383,-0.6556333899497986
1771681654068541700,2.881541748046875,8.209774017333984,2.6081767082214355,-0.851844847202301
1771681654078899500,2.8918994140625,9.757930755615234,0.4570291340351105,-0.8207381963729858
1771681654089257200,2.90225732421875,8.889336585998535,3.1920254230499268,-0.2799602448940277
1771681654099615000,2.912614990234375,9.889535903930664,0.727418065071106,0.397208571434021
1771681654109972700,2.92297265625,9.114261627197266,2.122433662414551,0.19142581522464752
1771681654120330500,2.93333056640625,9.578469276428223,2.3258235454559326,0.19621145725250244
1771681654130688300,2.943688232421875,9.990034103393555,0.2392822653055191,-0.607776939868927
1771681654141046000,2.9540458984375,10.590633392333984,2.998206853866577,-0.4618147611618042
1771681654151403800,2.96440380859375,10.87298583984375,1.7228323221206665,-0.6340979933738708
1771681654161761500,2.974761474609375,9.600004196166992,0.7345965504646301,-1.093519926071167
1771681654172119300,2.985119384765625,9.604789733886719,2.5076780319213867,0.30628129839897156
1771681654182477000,2.99547705078125,8.563912391662598,0.6652047038078308,-0.7704889178276062
1771681654192834800,3.005834716796875,9.245866775512695,2.675175666809082,-0.4259224236011505
1771681654203192600,3.016192626953125,9.152546882629395,2.517249345779419,-0.08853443711996078
1771681654213550300,3.02655029296875,9.80817985534668,0.031106693670153618,0.8135597109794617
1771681654223908000,3.036908203125,9.90149974822998,2.3976082801818848,0.2799602448940277
1771681654234265900,3.047265869140625,10.722238540649414,1.5912270545959473,0.4977070987224579
1771681654244623600,3.05762353515625,10.53799057006836,1.7730815410614014,0.5910272002220154
1771681654254981400,3.0679814453125,10.403992652893066,2.4430718421936035,0.6508477330207825
1771681654265339100,3.078339111328125,8.769695281982422,-0.22971096634864807,0.9379864931106567
1771681654275697000,3.08869677734375,8.927620887756348,2.806781053543091,-0.13639089465141296
1771681654286055000,3.099054931640625,9.279366493225098,1.332802176475525,-0.3326023519039154
1771681654296412700,3.10941259765625,8.48016357421875,1.1940184831619263,-0.3613162338733673
1771681654306770400,3.1197705078125,9.877572059631348,2.3880369663238525,0.3924229145050049
1771681654317128200,3.130128173828125,9.097511291503906,1.0360921621322632,0.08135596662759781
1771681654327486000,3.14048583984375,10.722238540649414,2.799602508544922,0.062213387340307236
1771681654337843700,3.15084375,9.353543281555176,0.9667003750801086,0.7585247755050659
1771681654348201500,3.161201416015625,10.083354949951172,1.5433706045150757,0.41156548261642456
1771681654358559200,3.171559326171875,9.76989459991455,3.326023578643799,-0.8901300430297852
1771681654368917000,3.1819169921875,9.241081237792969,-0.11246266216039658,-0.5312066078186035
1771681654379274800,3.192274658203125,10.241280555725098,1.0719845294952393,-1.038485050201416
1771681654389632500,3.202632568359375,10.478170394897461,3.376272678375244,-0.6508477330207825
1771681654399990300,3.212990234375,10.669595718383789,1.9621145725250244,-0.016749758273363113
1771681654410348000,3.22334814453125,9.9469633102417,1.4931213855743408,0.02153540402650833
1771681654420705800,3.233705810546875,10.100104331970215,1.160519003868103,0.09810572862625122
1771681654431063600,3.2440634765625,11.533405303955078,2.117648124694824,-0.035892341285943985
1771681654441421300,3.25442138671875,8.520841598510742,1.4931213855743408,-0.17946170270442963
1771681654451779000,3.264779052734375,9.994820594787598,1.275374412536621,0.48095735907554626
1771681654462136800,3.27513671875,8.8438720703125,2.3976082801818848,-0.11246266216039658
1771681654472494600,3.28549462890625,9.688538551330566,1.9597218036651611,-0.5886343717575073
1771681654482852400,3.295852294921875,10.980663299560547,3.19441819190979,-0.9499505758285522
1771681654493210000,3.306210205078125,9.17886734008789,1.8544375896453857,-0.519242525100708
1771681654503568000,3.31656787109375,9.686145782470703,0.3326023519039154,-0.5096712112426758
1771681654513925600,3.326925537109375,9.832108497619629,2.902493953704834,-1.1629117727279663
1771681654524283400,3.337283447265625,9.832108497619629,1.1413763761520386,0.12442677468061447
1771681654534641200,3.34764111328125,10.8969144821167,1.6965112686157227,-0.1459621787071228
1771681654544999000,3.3579990234375,9.475577354431152,1.9836499691009521,0.11724831163883209
1771681654555356700,3.368356689453125,9.571290969848633,0.46899324655532837,0.33738797903060913
1771681654565714400,3.37871435546875,9.056833267211914,2.854637384414673,-0.6532405614852905
1771681654576072200,3.389072265625,10.435099601745605,2.2396819591522217,-0.11964113265275955
1771681654586430000,3.399429931640625,9.482755661010742,1.5984054803848267,-1.3902299404144287
1771681654596787700,3.40978759765625,9.667003631591797,1.4859428405761719,0.10289137065410614
1771681654607145500,3.4201455078125,13.01216983795166,2.6943182945251465,-0.7513462901115417
1771681654617515800,3.430515869140625,7.599604606628418,2.0985054969787598,-0.02392822690308094
1771681654627861000,3.440861083984375,11.418549537658691,0.4043870270252228,-0.18903298676013947
1771681654638239500,3.451239501953125,7.288537979125977,2.0865414142608643,-0.6197410821914673
1771681654648576500,3.461576416015625,9.023334503173828,1.6606189012527466,-0.6269195079803467
1771681654658963200,3.471963134765625,7.621140003204346,2.1032910346984863,0.16031911969184875
1771681654669292000,3.4822919921875,10.588240623474121,3.0173492431640625,-0.08853443711996078
1771681654679656200,3.49265625,10.712666511535645,1.7156537771224976,0.064606212079525
1771681654690007600,3.503007568359375,9.475577354431152,0.36610186100006104,0.2392822653055191
1771681654700380000,3.5133798828125,11.420942306518555,1.1054840087890625,0.4019941985607147
1771681654710723000,3.52372314453125,10.119247436523438,3.0077781677246094,-0.5862415432929993
1771681654721103600,3.534103515625,8.595019340515137,1.9645073413848877,-0.3397808074951172
1771681654731438600,3.5444384765625,10.088140487670898,0.2584248483181,0.05024927482008934
1771681654741796600,3.554796630859375,9.506684303283691,1.911865234375,-0.6005984544754028
1771681654752154400,3.565154296875,11.58126163482666,2.7732813358306885,0.031106693670153618
1771681654762512100,3.57551220703125,8.8438720703125,0.9212366938591003,0.7106683254241943
1771681654772870000,3.585869873046875,10.576275825500488,0.9284151792526245,0.8039883971214294
1771681654783227600,3.5962275390625,11.054841041564941,1.2299108505249023,0.5096712112426758
1771681654793585400,3.60658544921875,11.274980545043945,2.03629207611084,0.24167509377002716
1771681654803943200,3.616943115234375,10.760523796081543,0.8087740540504456,-0.5048855543136597
1771681654814301000,3.627301025390625,9.621540069580078,0.9667003750801086,0.3852444589138031
1771681654824658700,3.63765869140625,10.76530933380127,2.273181438446045,0.1698904037475586
1771681654835016400,3.648016357421875,9.473184585571289,2.6536402702331543,0.2512463629245758
1771681654845374200,3.658374267578125,9.183652877807617,0.7680960893630981,0.8638089895248413
1771681654855732000,3.66873193359375,10.224531173706055,1.057627558708191,0.5958128571510315
1771681654866089700,3.67908984375,10.12881851196289,1.7276179790496826,0.5886343717575073
1771681654876447500,3.689447509765625,11.44247817993164,2.926422119140625,-0.6317051649093628
1771681654886805200,3.69980517578125,9.004191398620605,0.4498506486415863,-0.6963114142417908
1771681654897163000,3.7101630859375,9.183652877807617,2.2157537937164307,-0.7369893789291382
1771681654907520800,3.720520751953125,9.640682220458984,3.1202406883239746,0.43549370765686035
1771681654917878500,3.73087841796875,8.659625053405762,0.30149564146995544,0.2392822653055191
1771681654928236300,3.741236328125,9.370293617248535,2.706282377243042,0.4378865361213684
1771681654938594000,3.751593994140625,10.293923377990723,1.9716858863830566,0.8446664214134216
1771681654948951800,3.761951904296875,9.159725189208984,1.430907964706421,0.01196411345154047
1771681654959309600,3.7723095703125,9.717252731323242,1.6414763927459717,0.16031911969184875
1771681654969667300,3.782667236328125,11.545369148254395,2.3258235454559326,-0.7657032608985901
1771681654980025000,3.793025146484375,8.539983749389648,0.5790630578994751,-0.7513462901115417
1771681654990382800,3.8033828125,9.731609344482422,1.1868400573730469,-0.18424734473228455
1771681655000740600,3.81374072265625,10.645668029785156,3.342773199081421,0.5623133182525635
1771681655011098400,3.824098388671875,9.19561767578125,1.0145567655563354,0.6939185857772827
1771681655021456100,3.8344560546875,9.004191398620605,1.3830515146255493,0.41874396800994873
1771681655031814000,3.84481396484375,9.394221305847168,1.1102696657180786,0.3038884699344635
1771681655042171600,3.855171630859375,10.090533256530762,2.0673987865448,0.4426721930503845
1771681655052529400,3.865529296875,8.831908226013184,1.1341979503631592,0.46420758962631226
1771681655062887200,3.87588720703125,10.480563163757324,0.8327022790908813,0.08374879509210587
1771681655073245000,3.886244873046875,9.868000984191895,0.9260223507881165,0.33020952343940735
1771681655083602700,3.896602783203125,11.248659133911133,3.098705291748047,0.5934200286865234
1771681655093960400,3.90696044921875,8.82233715057373,1.031306505203247,0.46899324655532837
1771681655104318200,3.917318115234375,9.839286804199219,-0.038285162299871445,0.33020952343940735
1771681655114676000,3.927676025390625,9.879964828491211,2.352144718170166,0.46420758962631226
1771681655125034000,3.938033935546875,9.722038269042969,2.2061824798583984,0.28953152894973755
1771681655135391700,3.948391845703125,8.523234367370605,0.7920243144035339,0.9499505758285522
1771681655145749500,3.95874951171875,10.612168312072754,1.0671988725662231,1.184447169303894
1771681655156107300,3.969107177734375,10.411170959472656,3.3332018852233887,0.6939185857772827
1771681655166465000,3.979465087890625,9.841679573059082,0.4713860750198364,-0.1866401731967926
1771681655176822800,3.98982275390625,10.760523796081543,0.1986042857170105,-0.26081767678260803
1771681655187180500,4.0001806640625,9.145368576049805,1.9070796966552734,0.9882357716560364
1771681655197538300,4.010538330078125,11.796615600585938,0.8757730722427368,0.15314064919948578
1771681655207896000,4.02089599609375,8.652446746826172,1.1581261157989502,0.9547362327575684
1771681655218253800,4.03125390625,10.736595153808594,0.8087740540504456,-0.16749759018421173
1771681655228611600,4.041611572265625,8.382058143615723,2.1655044555664062,-0.24646073579788208
1771681655238969300,4.05196923828125,9.836894035339355,0.24167509377002716,-0.21774685382843018
1771681655249327000,4.0623271484375,9.461220741271973,2.4837498664855957,-0.48574298620224
1771681655259684900,4.072684814453125,10.825129508972168,0.8781659007072449,-1.0217353105545044
1771681655270042600,4.083042724609375,10.351350784301758,1.1629117727279663,0.02392822690308094
1771681655280400400,4.093400390625,10.396814346313477,0.38285163044929504,0.14356936514377594
1771681655290758100,4.103758056640625,11.078768730163574,1.612762451171875,0.22492532432079315
1771681655301116000,4.114115966796875,8.903693199157715,0.605384111404419,0.8614161610603333
1771681655311473700,4.1244736328125,10.542776107788086,0.16031911969184875,-0.14117653667926788
1771681655321831400,4.13483154296875,8.992227554321289,2.1343977451324463,0.035892341285943985
1771681655332189200,4.145189208984375,9.920642852783203,0.7465606927871704,-0.23449662327766418
1771681655342547000,4.155546875,9.418149948120117,1.0528420209884644,-0.6652047038078308
1771681655352904700,4.16590478515625,9.643074989318848,0.8925228714942932,-0.04785645380616188
1771681655363262500,4.176262451171875,10.073782920837402,1.7826528549194336,0.20099709928035736
1771681655373620200,4.1866201171875,9.58325481414795,0.07178468257188797,1.1054840087890625
1771681655383978000,4.19697802734375,9.748359680175781,0.7154539823532104,-0.08135596662759781
1771681655394336000,4.2073359375,10.102497100830078,0.8255237936973572,0.7226324677467346
1771681655404693800,4.21769384765625,10.37767219543457,0.5072783827781677,-0.3565305769443512
1771681655415051500,4.228051513671875,9.592825889587402,1.184447169303894,-0.3732803463935852
1771681655425409300,4.2384091796875,9.549755096435547,0.7010970115661621,-0.13639089465141296
1771681655435767000,4.24876708984375,8.805587768554688,-0.5359922647476196,0.1698904037475586
1771681655446124800,4.259124755859375,9.717252731323242,1.9621145725250244,-0.2727817893028259
1771681655456482600,4.269482666015625,10.040284156799316,1.3926228284835815,0.22492532432079315
1771681655466840300,4.27984033203125,9.774680137634277,-0.3732803463935852,-0.23449662327766418
1771681655477198000,4.290197998046875,9.32004451751709,0.2512463629245758,0.672383189201355
1771681655487555800,4.300555908203125,11.686545372009277,2.0338993072509766,0.2273181527853012
1771681655497913600,4.31091357421875,9.241081237792969,-0.13639089465141296,-0.1986042857170105
1771681655508271400,4.321271240234375,10.39202880859375,0.12442677468061447,0.28953152894973755
1771681655518629000,4.331629150390625,10.782058715820312,1.6821542978286743,0.17706887423992157
1771681655528987000,4.34198681640625,9.820143699645996,0.3206382393836975,-0.2225325107574463
1771681655539344600,4.3523447265625,9.600004196166992,0.3158525824546814,0.2273181527853012
1771681655549702400,4.362702392578125,10.04267692565918,2.069791555404663,-0.26081767678260803
1771681655560060200,4.37306005859375,9.597611427307129,0.5934200286865234,-0.17706887423992157
1771681655570418000,4.38341796875,9.437292098999023,0.6340979933738708,1.1126625537872314
1771681655580775700,4.393775634765625,10.497312545776367,1.2179467678070068,2.6871397495269775
1771681655591133400,4.404133544921875,10.13599681854248,1.4189438819885254,3.383451223373413
1771681655601491200,4.4144912109375,11.894721031188965,0.3900300860404968,2.713460922241211
1771681655611849000,4.424848876953125,11.274980545043945,0.16271193325519562,1.8137595653533936
1771681655622206700,4.435206787109375,10.487741470336914,0.059820566326379776,1.552941918373108
1771681655632564500,4.445564453125,7.89631462097168,1.129412293434143,1.887937068939209
1771681655642922200,4.455922119140625,8.37009334564209,-0.4450650215148926,1.100698471069336
1771681655653280000,4.466280029296875,10.207781791687012,0.8638089895248413,0.6699903607368469
1771681655663637800,4.4766376953125,8.568697929382324,1.0671988725662231,0.23688943684101105
1771681655673995500,4.48699560546875,10.827522277832031,-0.4163511395454407,-0.4737788736820221
1771681655684353300,4.497353271484375,8.451449394226074,1.4859428405761719,-0.7896314859390259
1771681655694711000,4.5077109375,13.895120620727539,0.04307080805301666,-1.3567304611206055
1771681655705068800,4.51806884765625,7.613961696624756,0.9690931439399719,-0.33020952343940735
1771681655715426600,4.528426513671875,9.487542152404785,0.7992027401924133,-1.1102696657180786
1771681655725784300,4.538784423828125,11.679367065429688,0.39481574296951294,-1.1772687435150146
1771681655736142300,4.549142333984375,9.470791816711426,0.8757730722427368,-0.2560320198535919
1771681655746500000,4.5595,8.796015739440918,0.6771687865257263,-0.46899324655532837
1771681655756857900,4.56985791015625,10.930414199829102,0.1459621787071228,-0.4043870270252228
1771681655767215600,4.580215576171875,9.011369705200195,1.007378339767456,0.08853443711996078
1771681655777573400,4.590573486328125,10.03549861907959,0.22492532432079315,-0.3565305769443512
1771681655787931100,4.60093115234375,8.147561073303223,0.6795616149902344,0.46899324655532837
1771681655798289000,4.611288818359375,11.081161499023438,0.4737788736820221,-0.97148597240448
1771681655808646700,4.621646728515625,9.588040351867676,1.3304094076156616,-0.916451096534729
1771681655819004400,4.63200439453125,9.616754531860352,0.21774685382843018,-0.7393822073936462
1771681655829362200,4.642362060546875,9.755537986755371,0.7513462901115417,0.25363919138908386
1771681655839720000,4.652719970703125,9.817750930786133,1.9645073413848877,0.17946170270442963
1771681655850077700,4.66307763671875,9.09272575378418,0.3565305769443512,0.40677985548973083
1771681655860435500,4.673435546875,9.494720458984375,0.2273181527853012,0.035892341285943985
1771681655870793200,4.683793212890625,10.29870891571045,2.50289249420166,0.20338992774486542
1771681655881151000,4.69415087890625,9.322437286376953,0.6652047038078308,0.27756741642951965
1771681655891508700,4.7045087890625,9.430113792419434,0.8327022790908813,0.6029912829399109
1771681655901866500,4.714866455078125,8.95394229888916,1.6534404754638672,0.48095735907554626
1771681655912224300,4.725224365234375,10.437492370605469,1.153340458869934,-1.4069796800613403
1771681655922582000,4.73558203125,8.37009334564209,0.973878800868988,-0.3900300860404968
1771681655932939800,4.745939697265625,11.629117965698242,0.7082754969596863,-0.04785645380616188
1771681655943297500,4.756297607421875,8.788837432861328,1.4476577043533325,0.5670989751815796
1771681655953655300,4.7666552734375,11.011770248413086,0.11485548317432404,1.2011969089508057
1771681655964013000,4.777012939453125,8.444271087646484,1.5601203441619873,1.062413215637207
1771681655974370800,4.787370849609375,9.968499183654785,2.3617160320281982,1.2370892763137817
1771681655984728600,4.797728515625,9.841679573059082,1.1653046607971191,0.9690931439399719
1771681655995086300,4.80808642578125,9.040083885192871,1.5242279767990112,0.6963114142417908
1771681656005444000,4.818444091796875,10.317851066589355,1.612762451171875,0.7752745151519775
1771681656015801900,4.8288017578125,9.667003631591797,0.6508477330207825,-0.05742774158716202
1771681656026159600,4.83915966796875,9.219545364379883,0.519242525100708,0.7417750358581543
1771681656036517400,4.849517333984375,10.430314064025879,1.5481562614440918,0.01196411345154047
1771681656046875100,4.859875244140625,10.336994171142578,1.2873386144638062,-0.8350951075553894
1771681656057233200,4.870233154296875,9.633503913879395,0.6819544434547424,-0.19142581522464752
1771681656067591000,4.8805908203125,10.71984577178955,1.031306505203247,-0.5479564070701599
1771681656077948700,4.89094873046875,9.810572624206543,1.0336993932724,-0.9810572862625122
1771681656088306400,4.901306396484375,10.231709480285645,2.761317253112793,-1.2921242713928223
1771681656098664200,4.911664306640625,8.717052459716797,1.4165509939193726,-0.349352091550827
1771681656109022000,4.92202197265625,12.942777633666992,0.5718846321105957,-0.4211367964744568
1771681656119379700,4.932379638671875,8.063812255859375,0.5718846321105957,-0.6269195079803467
1771681656129737500,4.942737548828125,10.904092788696289,1.588834285736084,-1.8089739084243774
1771681656140095200,4.95309521484375,8.394021987915039,0.6819544434547424,-0.7513462901115417
1771681656150453000,4.963452880859375,10.454241752624512,1.0863415002822876,-0.9954141974449158
1771681656160810800,4.973810791015625,6.5874409675598145,1.3926228284835815,-0.30628129839897156
1771681656171168500,4.98416845703125,7.963313579559326,1.3471591472625732,-0.7393822073936462
1771681656181526300,4.9945263671875,15.519847869873047,1.0121639966964722,0.5359922647476196
1771681656191884000,5.004884033203125,10.26042366027832,1.277767300605774,1.5074782371520996
1771681656202241800,5.01524169921875,11.83011531829834,1.7778671979904175,2.0721843242645264
1771681656212599600,5.025599609375,10.72702407836914,0.914058268070221,1.153340458869934
1771681656222957300,5.035957275390625,12.579068183898926,2.6560330390930176,1.5936198234558105
1771681656233315000,5.046315185546875,9.645467758178711,1.612762451171875,0.6795616149902344
1771681656243672800,5.0566728515625,8.702695846557617,2.6177480220794678,0.35413774847984314
1771681656254030600,5.067030517578125,7.286144733428955,1.9836499691009521,0.30628129839897156
1771681656264388400,5.077388427734375,10.576275825500488,2.053041934967041,0.6580262184143066
1771681656274746000,5.08774609375,5.563312530517578,1.5481562614440918,0.3732803463935852
1771681656285103900,5.098103759765625,9.667003631591797,1.7395820617675781,0.6771687865257263
1771681656295461600,5.108461669921875,8.944371223449707,2.0673987865448,1.1509476900100708
1771681656305819600,5.118819580078125,10.856236457824707,2.304288148880005,0.4546363055706024
1771681656316177400,5.129177490234375,8.733802795410156,1.7371892929077148,0.2273181527853012
1771681656326535200,5.13953515625,10.607382774353027,2.210968017578125,0.08853443711996078
1771681656336893000,5.149892822265625,7.817351341247559,1.404586911201477,0.9212366938591003
1771681656347250700,5.160250732421875,8.673981666564941,1.612762451171875,1.1892328262329102
1771681656357608400,5.1706083984375,9.997213363647461,1.7180466651916504,1.1772687435150146
1771681656367966200,5.18096630859375,10.894521713256836,-0.009571290574967861,4.132404804229736
1771681656378324000,5.191323974609375,10.39920711517334,1.8687944412231445,0.97148597240448
1771681656388681700,5.201681640625,10.016355514526367,-0.4570291340351105,1.9932212829589844
1771681656399039500,5.21203955078125,8.295916557312012,1.2729816436767578,0.7752745151519775
1771681656409397200,5.222397216796875,13.99801254272461,2.368894338607788,0.13878370821475983
1771681656419755000,5.232755126953125,9.075976371765137,1.7371892929077148,1.466800332069397
1771681656430112800,5.24311279296875,12.899706840515137,0.43549370765686035,2.060220241546631
1771681656440470500,5.253470458984375,7.800601959228516,1.4141582250595093,0.6867401003837585
1771681656450828300,5.263828369140625,13.622339248657227,1.7180466651916504,0.33738797903060913
1771681656461186000,5.27418603515625,7.056434154510498,1.2873386144638062,0.727418065071106
1771681656471543800,5.284543701171875,12.720245361328125,2.3617160320281982,0.3684946894645691
1771681656481901600,5.294901611328125,8.74337387084961,2.2947168350219727,-0.36610186100006104
1771681656492259300,5.30525927734375,11.767901420593262,1.9381862878799438,0.40677985548973083
1771681656502617000,5.3156171875,9.516255378723145,1.820937991142273,0.4498506486415863
1771681656512974800,5.325974853515625,12.689138412475586,0.5742774605751038,2.4574289321899414
1771681656523332600,5.33633251953125,8.437092781066895,0.7585247755050659,1.2035897970199585
1771681656533690400,5.3466904296875,11.880364418029785,1.8735800981521606,-0.11246266216039658
1771681656544048000,5.357048095703125,7.83410120010376,0.8470591902732849,0.2919243574142456
1771681656554406000,5.367406005859375,11.193624496459961,0.6939185857772827,0.12681959569454193
1771681656564763600,5.377763671875,10.430314064025879,1.828116536140442,0.7848458290100098
1771681656575121400,5.388121337890625,11.722437858581543,1.828116536140442,0.14835500717163086
1771681656585479200,5.398479248046875,10.576275825500488,0.7513462901115417,1.4524433612823486
1771681656595837000,5.4088369140625,9.868000984191895,0.7537391185760498,1.0767701864242554
1771681656606194700,5.419194580078125,9.152546882629395,0.380458801984787,1.801795482635498
1771681656616552400,5.429552490234375,10.643275260925293,2.218146562576294,1.00259268283844
1771681656626910500,5.439910400390625,8.642875671386719,0.17706887423992157,1.2634103298187256
1771681656637268200,5.450268310546875,11.327622413635254,1.1030912399291992,-0.004785645287483931
1771681656647626000,5.4606259765625,9.097511291503906,2.837887763977051,0.2584248483181
1771681656657983700,5.470983642578125,12.437891960144043,2.4358935356140137,1.5936198234558105
1771681656668341500,5.481341552734375,6.750152587890625,0.12921242415905,1.4811571836471558
1771681656678699300,5.49169921875,9.360722541809082,1.545763373374939,1.3423734903335571
1771681656689057000,5.50205712890625,9.681360244750977,2.2468605041503906,0.8973084688186646
1771681656699414800,5.512414794921875,9.10229778289795,0.48813581466674805,0.6819544434547424
1771681656709772500,5.5227724609375,10.597811698913574,-0.698704183101654,-0.4498506486415863
1771681656720130300,5.53313037109375,12.375679016113281,3.759124279022217,-0.9092726111412048
1771681656730488000,5.543488037109375,8.453842163085938,2.2205393314361572,-0.07417750358581543
1771681656740845800,5.553845703125,8.85344409942627,0.6245267391204834,1.6558332443237305
1771681656751203600,5.56420361328125,7.850851058959961,0.9260223507881165,1.6271194219589233
1771681656761561300,5.574561279296875,11.155339241027832,2.328216314315796,1.1988041400909424
1771681656771919000,5.584919189453125,8.169096946716309,1.459621787071228,0.2632105052471161
1771681656782276900,5.59527685546875,10.74855899810791,1.8640087842941284,0.8350951075553894
1771681656792634600,5.605634521484375,10.461421012878418,1.9956140518188477,0.8805587291717529
1771681656802992400,5.615992431640625,10.334601402282715,2.5052852630615234,0.24406790733337402
1771681656813350100,5.62635009765625,9.726823806762695,2.1415762901306152,0.9834501147270203
1771681656823708000,5.6367080078125,9.351150512695312,1.423729419708252,1.2945170402526855
1771681656834065700,5.647065673828125,8.307880401611328,1.9046868085861206,0.9116654396057129
1771681656844423400,5.65742333984375,9.789037704467773,1.887937068939209,1.0959128141403198
1771681656854781200,5.66778125,9.686145782470703,1.4691931009292603,0.33020952343940735
1771681656865139000,5.678138916015625,8.846264839172363,1.031306505203247,0.6891329288482666
1771681656875496700,5.68849658203125,10.669595718383789,2.7589244842529297,0.7585247755050659
1771681656885854500,5.6988544921875,8.848658561706543,1.4428720474243164,1.074377417564392
1771681656896212200,5.709212158203125,11.36351490020752,1.4811571836471558,0.4498506486415863
1771681656906570000,5.719570068359375,10.710273742675781,2.5124638080596924,1.1318050622940063
1771681656916927700,5.729927734375,11.607583045959473,-0.01196411345154047,0.9810572862625122
1771681656927285500,5.740285400390625,8.264809608459473,1.581655740737915,1.1413763761520386
1771681656937643500,5.7506435546875,10.884950637817383,2.1750757694244385,0.09092725813388824
1771681656948001300,5.761001220703125,8.597412109375,0.6891329288482666,0.5168496966362
1771681656958359000,5.771359130859375,9.956535339355469,3.046063184738159,-0.5383850932121277
1771681656968716800,5.781716796875,10.583454132080078,2.4837498664855957,1.3591232299804688
1771681656979074600,5.792074462890625,9.066405296325684,1.3351950645446777,1.2873386144638062
1771681656989432300,5.802432373046875,11.600403785705566,0.3565305769443512,1.5744773149490356
1771681656999790000,5.8127900390625,9.43489933013916,1.9453648328781128,0.46899324655532837
1771681657010147800,5.82314794921875,11.26062297821045,0.45224347710609436,0.004785645287483931
1771681657020505600,5.833505615234375,8.532805442810059,2.1918256282806396,1.3710874319076538
1771681657030863400,5.84386328125,10.96869945526123,1.9334007501602173,0.5264210104942322
1771681657041221000,5.85422119140625,8.307880401611328,2.5052852630615234,-0.02392822690308094
1771681657051579000,5.864578857421875,12.390035629272461,1.9142581224441528,1.7539390325546265
1771681657061936600,5.8749365234375,7.412964344024658,0.8183453679084778,1.7228323221206665
1771681657072294400,5.88529443359375,11.660224914550781,2.029113531112671,0.349352091550827
1771681657082652200,5.895652099609375,8.85344409942627,0.46899324655532837,1.31365966796875
1771681657093010000,5.906010009765625,9.729216575622559,0.8422735929489136,0.5599204897880554
1771681657103367700,5.91636767578125,11.045269012451172,1.8352949619293213,1.1413763761520386
1771681657113725400,5.926725341796875,9.169296264648438,1.4380863904953003,0.8805587291717529
1771681657124083200,5.937083251953125,9.712467193603516,1.0767701864242554,1.3567304611206055
1771681657134441000,5.94744091796875,10.310672760009766,2.00518536567688,1.435693621635437
1771681657144798700,5.957798828125,9.176474571228027,1.5625132322311401,1.2993026971817017
1771681657155156500,5.968156494140625,8.520841598510742,0.2799602448940277,0.914058268070221
1771681657165514200,5.97851416015625,9.65503978729248,2.500499725341797,0.41156548261642456
1771681657175872000,5.9888720703125,9.779465675354004,2.146361827850342,0.6747759580612183
1771681657186230000,5.99922998046875,10.01156997680664,0.8805587291717529,1.4811571836471558
1771681657196587800,6.009587890625,12.07179069519043,1.0719845294952393,2.187039852142334
1771681657206945500,6.019945556640625,11.088339805603027,2.6392834186553955,0.7178468108177185
1771681657217303300,6.03030322265625,10.650453567504883,1.466800332069397,1.301695466041565
1771681657227661000,6.0406611328125,6.6592254638671875,-0.14835500717163086,0.0526420995593071
1771681657238018800,6.051018798828125,9.389435768127441,2.043470621109009,-0.07657032459974289
1771681657248376600,6.06137646484375,10.250852584838867,1.7132610082626343,0.11724831163883209
1771681657258734300,6.071734375,9.461220741271973,1.5170495510101318,-0.3326023519039154
1771681657269092000,6.082092041015625,10.313065528869629,1.7371892929077148,0.4570291340351105
1771681657279449900,6.092449951171875,10.442277908325195,0.698704183101654,1.179661512374878
1771681657289807600,6.1028076171875,11.181660652160645,0.02632104977965355,0.7106683254241943
1771681657300165400,6.113165283203125,13.174881935119629,2.218146562576294,0.040677983313798904
1771681657310523100,6.123523193359375,10.722238540649414,2.289931297302246,0.33020952343940735
1771681657320881000,6.133880859375,8.681160926818848,1.6319050788879395,0.5024927258491516
1771681657331238700,6.14423876953125,11.243873596191406,1.8831514120101929,0.2153540402650833
1771681657341596400,6.154596435546875,8.879764556884766,1.4404792785644531,0.14356936514377594
1771681657351954200,6.1649541015625,9.013762474060059,1.9310078620910645,0.6652047038078308
1771681657362312000,6.17531201171875,7.551748275756836,1.275374412536621,0.6125625967979431
1771681657372669700,6.185669677734375,9.889535903930664,1.6534404754638672,-0.36610186100006104
1771681657383027500,6.19602734375,10.006784439086914,2.3018953800201416,-0.6460621356964111
1771681657393385200,6.20638525390625,8.58066177368164,1.8376877307891846,-0.7345965504646301
1771681657403743000,6.216742919921875,10.636096954345703,3.328416347503662,-0.5670989751815796
1771681657414100700,6.227100830078125,9.564111709594727,3.2159535884857178,0.21774685382843018
1771681657424458500,6.23745849609375,7.101897716522217,2.3186452388763428,0.6652047038078308
1771681657434816300,6.247816162109375,9.745966911315918,1.2251251935958862,0.9403793215751648
1771681657445174000,6.258174072265625,10.808380126953125,0.97148597240448,1.1868400573730469
1771681657455531800,6.26853173828125,7.987242221832275,1.6342978477478027,-0.35892340540885925
1771681657465889500,6.2788896484375,8.96112060546875,-0.19381862878799438,0.10767702013254166
1771681657476247300,6.289247314453125,10.511670112609863,2.115255117416382,-0.28235307335853577
1771681657486605000,6.29960498046875,9.92542839050293,3.091526746749878,0.16271193325519562
1771681657496962800,6.309962890625,9.147761344909668,1.9070796966552734,1.184447169303894
1771681657507320800,6.32032080078125,11.330015182495117,2.0793628692626953,1.459621787071228
1771681657517678600,6.3306787109375,10.688738822937012,1.8999011516571045,0.18424734473228455
1771681657528036400,6.341036376953125,8.248059272766113,0.7202396392822266,-0.5838487148284912
1771681657538394000,6.35139404296875,11.169695854187012,0.9930213689804077,-0.23449662327766418
1771681657548752000,6.361751953125,9.150154113769531,3.8117663860321045,0
1771681657559109600,6.372109619140625,9.906285285949707,2.0889341831207275,0.5551348328590393
1771681657569467400,6.38246728515625,10.202995300292969,0.7800601720809937,1.552941918373108
1771681657579825200,6.3928251953125,10.96630573272705,0.8135597109794617,0.7202396392822266
1771681657590183000,6.403182861328125,9.722038269042969,1.2059825658798218,0.8063812255859375
1771681657600540700,6.413540771484375,9.269794464111328,1.5146567821502686,1.2729816436767578
1771681657610898400,6.4238984375,8.360522270202637,2.1822543144226074,0.7322037220001221
1771681657621256200,6.434256103515625,10.77966594696045,2.3186452388763428,-0.4139583110809326
1771681657631614000,6.444614013671875,10.277173042297363,2.03629207611084,-0.20338992774486542
1771681657641971700,6.4549716796875,10.39920711517334,1.6271194219589233,0.007178467698395252
1771681657652329500,6.46532958984375,10.03310489654541,1.246660590171814,-0.6843472719192505
1771681657662687200,6.475687255859375,9.609575271606445,1.7132610082626343,-0.2727817893028259
1771681657673045000,6.486044921875,8.786444664001465,0.6460621356964111,0.23210379481315613
1771681657683402800,6.49640283203125,9.619147300720215,1.2370892763137817,0.1698904037475586
1771681657693760500,6.506760498046875,9.717252731323242,1.6821542978286743,-0.885344386100769
1771681657704118300,6.5171181640625,12.031112670898438,1.2083754539489746,-0.8159525394439697
1771681657714476000,6.52747607421875,9.678967475891113,1.8041882514953613,-1.184447169303894
1771681657724833800,6.537833740234375,10.707880973815918,1.8999011516571045,-0.7752745151519775
1771681657735191600,6.548191650390625,10.100104331970215,2.3258235454559326,-0.7417750358581543
1771681657745549300,6.55854931640625,10.995019912719727,1.6773686408996582,-0.727418065071106
1771681657755907000,6.568906982421875,8.810373306274414,1.6558332443237305,-0.24885354936122894
1771681657766264800,6.579264892578125,9.707681655883789,1.4404792785644531,-0.33020952343940735
1771681657776622600,6.58962255859375,6.809973239898682,1.2801600694656372,-0.23688943684101105
1771681657786980400,6.59998046875,8.841479301452637,1.0265209674835205,-0.44745782017707825
1771681657797338000,6.610338134765625,8.295916557312012,1.2035897970199585,0.016749758273363113
1771681657807696000,6.62069580078125,10.068997383117676,1.5170495510101318,-0.04546362906694412
1771681657818053600,6.6310537109375,11.322836875915527,2.1607189178466797,0.17706887423992157
1771681657828411600,6.64141162109375,10.277173042297363,1.911865234375,0.7250252366065979
1771681657838769400,6.651769287109375,9.377471923828125,2.172683000564575,0.13639089465141296
1771681657849127200,6.662127197265625,10.700702667236328,1.7419748306274414,0.6173482537269592
1771681657859485000,6.67248486328125,8.590232849121094,1.954936146736145,0.8590233325958252
1771681657869842700,6.6828427734375,10.3681001663208,2.1750757694244385,-0.26081767678260803
1771681657880200400,6.693200439453125,8.504091262817383,1.3208380937576294,-0.10767702013254166
1771681657890558200,6.70355810546875,8.877371788024902,1.1724830865859985,0.7226324677467346
1771681657900916000,6.713916015625,10.853843688964844,2.218146562576294,0.11006984114646912
1771681657911273700,6.724273681640625,8.927620887756348,3.2135608196258545,-0.2727817893028259
1771681657921631500,6.734631591796875,10.124032974243164,3.4791641235351562,-0.397208571434021
1771681657931989200,6.7449892578125,11.992827415466309,3.1968109607696533,0.3900300860404968
1771681657942347000,6.755346923828125,11.310873031616211,0.6460621356964111,1.466800332069397
1771681657952704800,6.765704833984375,9.396614074707031,0.8566305041313171,0.17706887423992157
1771681657963062500,6.7760625,10.971092224121094,-0.672383189201355,1.8185452222824097
1771681657973420300,6.786420166015625,10.159924507141113,3.5676984786987305,0.02632104977965355
1771681657983778000,6.796778076171875,6.362515449523926,1.8185452222824097,-1.8089739084243774
1771681657994135800,6.8071357421875,5.254638671875,0.6556333899497986,0.16031911969184875
1771681658004493600,6.81749365234375,10.700702667236328,3.6059837341308594,-1.28255295753479
1771681658014851300,6.827851318359375,9.628718376159668,4.627718925476074,-1.2729816436767578
1771681658025209000,6.838208984375,9.339186668395996,1.3878371715545654,0.31106695532798767
1771681658035566800,6.84856689453125,11.258230209350586,1.5960127115249634,-0.41156548261642456
1771681658045924600,6.858924560546875,9.640682220458984,3.5150563716888428,-0.13639089465141296
1771681658056282400,6.869282470703125,10.1814603805542,2.2851455211639404,0.3924229145050049
1771681658066640100,6.87964013671875,9.970891952514648,1.7563318014144897,0.638883650302887
1771681658076998000,6.889997802734375,7.460821151733398,1.9836499691009521,0.27756741642951965
1771681658087356000,6.90035595703125,7.6498541831970215,1.7778671979904175,-1.098305583000183
1771681658097713700,6.910713623046875,8.7505521774292,1.7778671979904175,-0.37806597352027893
1771681658108071400,6.921071533203125,10.396814346313477,2.4909284114837646,-0.42831525206565857
1771681658118429200,6.93142919921875,11.330015182495117,2.203789710998535,1.672582983970642
1771681658128787000,6.941786865234375,11.571690559387207,1.430907964706421,0.6508477330207825
1771681658139144700,6.952144775390625,10.339386940002441,1.6630117893218994,-0.1866401731967926
1771681658149502500,6.96250244140625,9.966106414794922,0.8781659007072449,0.5670989751815796
1771681658159860200,6.972860107421875,9.159725189208984,1.1437692642211914,0.6915257573127747
1771681658170218000,6.983218017578125,8.58784008026123,2.1296122074127197,0.22013968229293823
1771681658180575700,6.99357568359375,10.310672760009766,2.2396819591522217,0.04546362906694412
1771681658190933500,7.00393359375,8.166703224182129,1.5840486288070679,0.14356936514377594
1771681658201291300,7.014291259765625,6.819544315338135,0.8709874153137207,0.2632105052471161
1771681658211649000,7.02464892578125,9.791430473327637,0.24885354936122894,1.0719845294952393
1771681658222006800,7.0350068359375,7.860422611236572,1.196411371231079,0.08135596662759781
1771681658232364500,7.045364501953125,11.897113800048828,-0.08853443711996078,1.3878371715545654
1771681658242722300,7.055722412109375,10.987841606140137,-0.5383850932121277,1.0145567655563354
1771681658253080000,7.066080078125,9.913464546203613,0.24885354936122894,0.6939185857772827
1771681658263437800,7.076437744140625,9.42772102355957,-0.1052841991186142,-0.06939185410737991
1771681658273795600,7.086795654296875,6.501298904418945,-0.13639089465141296,-0.5742774605751038
1771681658284153300,7.0971533203125,6.4319071769714355,0.7345965504646301,-0.8374879360198975
1771681658294511000,7.107510986328125,11.542976379394531,-1.275374412536621,-0.8087740540504456
1771681658304868900,7.117868896484375,7.293323516845703,0.2632105052471161,0.1339980661869049
1771681658315226600,7.1282265625,12.679567337036133,0.31106695532798767,0.4785645306110382
1771681658325584400,7.13858447265625,8.365307807922363,0.2512463629245758,-1.074377417564392
1771681658335942100,7.148942138671875,16.71147346496582,-1.1868400573730469,-1.1365907192230225
1771681658346300000,7.1592998046875,9.879964828491211,-0.5479564070701599,-0.22971096634864807
1771681658356657700,7.16965771484375,11.267802238464355,0.6460621356964111,-0.6508477330207825
1771681658367015400,7.180015380859375,10.140782356262207,-0.09092725813388824,-0.6436693072319031
1771681658377373200,7.190373291015625,9.686145782470703,0.04307080805301666,1.0360921621322632
1771681658387731000,7.20073095703125,12.284751892089844,0.3756731450557709,-0.6173482537269592
1771681658398088700,7.211088623046875,5.8959150314331055,1.069591760635376,0.7824530005455017
1771681658408446500,7.221446533203125,11.119446754455566,0.882951557636261,-0.35413774847984314
1771681658418804500,7.231804443359375,9.858428955078125,0.064606212079525,-0.21296121180057526
1771681658429162200,7.242162353515625,10.186245918273926,-0.5288137793540955,-0.5982056856155396
1771681658439520000,7.25252001953125,11.538190841674805,-0.18903298676013947,-0.5934200286865234
1771681658449877800,7.262877685546875,10.794022560119629,0.4450650215148926,0.08853443711996078
1771681658460235500,7.273235595703125,9.980463027954102,-0.5718846321105957,0.08135596662759781
1771681658470593300,7.28359326171875,10.00439167022705,-0.39481574296951294,0.11724831163883209
1771681658480951000,7.293950927734375,10.258030891418457,0.28235307335853577,0.27038896083831787
1771681658491308800,7.304308837890625,10.468599319458008,0.04785645380616188,0.02392822690308094
1771681658501666600,7.31466650390625,10.334601402282715,-0.8446664214134216,0.7369893789291382
1771681658512024300,7.3250244140625,10.358529090881348,1.832902193069458,0.10049854964017868
1771681658522382000,7.335382080078125,10.671989440917969,-0.638883650302887,1.5720844268798828
1771681658532739800,7.34573974609375,10.131211280822754,-0.760917603969574,0.5431707501411438
1771681658543097600,7.35609765625,11.583654403686523,1.1270195245742798,-0.04546362906694412
1771681658553455400,7.366455322265625,9.219545364379883,0.040677983313798904,-0.31345975399017334
1771681658563813000,7.376813232421875,9.528220176696777,1.1318050622940063,-0.519242525100708
1771681658574171000,7.3871708984375,9.042476654052734,-0.9786644577980042,-0.4713860750198364
1771681658584528600,7.397528564453125,10.805987358093262,1.5098711252212524,0.4450650215148926
1771681658594886400,7.407886474609375,10.255638122558594,-0.05503492057323456,0.28235307335853577
1771681658605244200,7.418244140625,11.45683479309082,0.5599204897880554,0.397208571434021
1771681658615602000,7.428601806640625,9.55214786529541,-0.07657032459974289,0.1746760457754135
1771681658625959700,7.438959716796875,10.514062881469727,0.02392822690308094,0.1339980661869049
1771681658636317400,7.4493173828125,9.047262191772461,1.0360921621322632,0.4043870270252228
1771681658646675200,7.45967529296875,10.473384857177734,-0.08135596662759781,-0.22013968229293823
1771681658657033000,7.470032958984375,8.638090133666992,0.014356935396790504,0.2153540402650833
1771681658667390700,7.480390625,9.56650447845459,0.10767702013254166,0.26081767678260803
1771681658677748500,7.49074853515625,11.021341323852539,0.6939185857772827,0.5000999569892883
1771681658688106200,7.501106201171875,9.528220176696777,-0.5048855543136597,0.2991028428077698
1771681658698464000,7.511464111328125,10.660024642944336,0.6795616149902344,0.4307080805301666
1771681658708821800,7.52182177734375,8.855836868286133,0.7680960893630981,0.19381862878799438
1771681658719179500,7.532179443359375,9.123832702636719,-0.02153540402650833,-0.004785645287483931
1771681658729537300,7.542537353515625,8.82233715057373,0.19621145725250244,0.17706887423992157
1771681658739895000,7.55289501953125,9.547362327575684,1.0767701864242554,0.7537391185760498
1771681658750252800,7.563252685546875,9.772287368774414,0.3397808074951172,0.7704889178276062
1771681658760610800,7.57361083984375,10.308279991149902,-0.08135596662759781,-0.31345975399017334
1771681658770968600,7.583968505859375,9.975677490234375,0.7202396392822266,-0.2392822653055191
1771681658781326300,7.594326416015625,9.765109062194824,-1.3423734903335571,0.4331009089946747
1771681658791684000,7.60468408203125,9.588040351867676,1.6247265338897705,-0.014356935396790504
1771681658802041900,7.615041748046875,9.992427825927734,0.7585247755050659,0.31345975399017334
1771681658812399600,7.625399658203125,9.726823806762695,-2.1032910346984863,-0.06699903309345245
1771681658822757400,7.63575732421875,10.009177207946777,1.490728497505188,-1.5625132322311401
1771681658833115100,7.646115234375,9.908679008483887,-0.3397808074951172,0.7920243144035339
1771681658843473000,7.656472900390625,10.071390151977539,0.5910272002220154,-0.48574298620224
1771681658853830700,7.66683056640625,8.886942863464355,-1.0863415002822876,0.576670229434967
1771681658864188400,7.6771884765625,11.009376525878906,1.552941918373108,0.8063812255859375
1771681658874546200,7.687546142578125,9.475577354431152,0.5431707501411438,0.9906286001205444
1771681658884904000,7.697904052734375,10.96869945526123,-0.7202396392822266,0.24406790733337402
1771681658895261700,7.70826171875,9.762716293334961,0.33738797903060913,0.4211367964744568
1771681658905619500,7.718619384765625,11.550154685974121,0.38763725757598877,-0.4307080805301666
1771681658915977200,7.728977294921875,9.506684303283691,-0.5647061467170715,0.2727817893028259
1771681658926335000,7.7393349609375,10.13599681854248,1.3543375730514526,0.17946170270442963
1771681658936692700,7.749692626953125,9.516255378723145,-1.0600204467773438,0.27038896083831787
1771681658947050500,7.760050537109375,10.801201820373535,0.8374879360198975,0.15074782073497772
1771681658957408300,7.770408203125,11.050054550170898,-0.03349951654672623,0.576670229434967
1771681658967766000,7.78076611328125,10.722238540649414,0.42831525206565857,0.19621145725250244
1771681658978123800,7.791123779296875,8.982656478881836,0.04307080805301666,0.20578274130821228
1771681658988481500,7.8014814453125,9.906285285949707,-0.19142581522464752,0.7441678643226624
1771681658998839300,7.81183935546875,9.561718940734863,0.5575276613235474,-0.3445664644241333
1771681659009197000,7.822197021484375,11.454442024230957,-0.8350951075553894,-0.4378865361213684
1771681659019554800,7.832554931640625,9.370293617248535,0.8446664214134216,-0.20338992774486542
1771681659029912800,7.842912841796875,12.16511058807373,-0.019142581149935722,-0.19381862878799438
1771681659040270600,7.8532705078125,8.6907320022583,0.550349235534668,-0.3445664644241333
1771681659050628400,7.86362841796875,9.370293617248535,-1.6630117893218994,1.0767701864242554
1771681659060986000,7.873986083984375,10.593026161193848,2.251646041870117,0.3924229145050049
1771681659071343900,7.88434375,10.250852584838867,-0.41156548261642456,-0.23449662327766418
1771681659081701600,7.89470166015625,10.303494453430176,0.0023928226437419653,-0.2727817893028259
1771681659092059400,7.905059326171875,9.741181373596191,0.4785645306110382,0.363709032535553
1771681659102417200,7.915417236328125,10.514062881469727,0.040677983313798904,0.22013968229293823
1771681659112775000,7.92577490234375,9.461220741271973,0.05024927482008934,-0.12921242415905
1771681659123132700,7.936132568359375,9.966106414794922,1.0719845294952393,0.33738797903060913
1771681659133490400,7.946490478515625,9.78664493560791,-0.2512463629245758,-0.22971096634864807
1771681659143848200,7.95684814453125,9.291330337524414,0.33499518036842346,0.97148597240448
1771681659154206000,7.9672060546875,8.839086532592773,0.2871387302875519,0.5264210104942322
1771681659164563700,7.977563720703125,10.497312545776367,1.6869399547576904,-0.13878370821475983
1771681659174921500,7.98792138671875,9.281759262084961,-1.7012969255447388,-0.1818545162677765
1771681659185279200,7.998279296875,10.375279426574707,1.1940184831619263,0.019142581149935722
1771681659195637000,8.008636962890625,10.691131591796875,-0.16271193325519562,0.6580262184143066
1771681659205994800,8.018994873046875,10.088140487670898,-0.035892341285943985,0.2871387302875519
1771681659216352500,8.0293525390625,9.65503978729248,0.16510476171970367,0.2871387302875519
1771681659226710300,8.039710205078125,9.994820594787598,0.4043870270252228,0.20578274130821228
1771681659237068000,8.050068115234374,9.540184020996094,0.04307080805301666,0.9116654396057129
1771681659247425800,8.06042578125,10.396814346313477,0.9403793215751648,0.5910272002220154
1771681659257783600,8.070783447265624,9.284152030944824,0.02871387079358101,0.5670989751815796
1771681659268141300,8.081141357421876,8.70508861541748,-0.05024927482008934,-0.21296121180057526
1771681659278499000,8.0914990234375,9.863214492797852,1.373480200767517,0.9427721500396729
1771681659288856800,8.10185693359375,12.191431045532227,-1.3639088869094849,-0.02871387079358101
1771681659299214600,8.112214599609375,9.461220741271973,1.5481562614440918,-1.368694543838501
1771681659309572400,8.122572265625,9.657432556152344,-1.9453648328781128,1.4333007335662842
1771681659319930000,8.13293017578125,10.564311981201172,3.1034910678863525,-0.33020952343940735
1771681659330287900,8.143287841796875,6.087340831756592,-0.016749758273363113,-0.31345975399017334
1771681659340645600,8.153645751953125,10.88016414642334,-1.3495519161224365,-0.02871387079358101
1771681659351003400,8.16400341796875,9.439684867858887,1.7276179790496826,-0.3278166949748993
1771681659361361200,8.174361083984374,10.916056632995605,-0.031106693670153618,-1.031306505203247
1771681659371719000,8.184718994140624,8.769695281982422,0.038285162299871445,-0.1818545162677765
1771681659382076700,8.19507666015625,10.607382774353027,0.2273181527853012,-1.1389836072921753
1771681659392434700,8.2054345703125,9.949356079101562,-1.6055840253829956,-0.04546362906694412
1771681659402792400,8.21579248046875,10.518848419189453,1.3519448041915894,0.062213387340307236
1771681659413150200,8.226150146484375,10.171889305114746,-0.35892340540885925,1.3112667798995972
1771681659423508000,8.236508056640625,8.86780071258545,1.1389836072921753,-1.160519003868103
1771681659433865700,8.24686572265625,8.82233715057373,-1.2275179624557495,0.9882357716560364
1771681659444223500,8.257223388671875,8.894122123718262,1.196411371231079,0.3038884699344635
1771681659454581200,8.267581298828125,10.870593070983887,0.8733802437782288,-0.07417750358581543
1771681659464939000,8.27793896484375,10.243673324584961,-0.5072783827781677,-0.17228323221206665
1771681659475296800,8.288296875,9.705288887023926,-1.2035897970199585,0.28953152894973755
1771681659485654500,8.298654541015624,11.734402656555176,1.0145567655563354,0.6556333899497986
1771681659496012300,8.30901220703125,9.626325607299805,-0.32303106784820557,0.059820566326379776
1771681659506370000,8.3193701171875,9.571290969848633,0.8542376756668091,0.19142581522464752
1771681659516727800,8.329727783203126,8.920442581176758,-0.7728816866874695,0.7680960893630981
1771681659527085600,8.34008544921875,9.037691116333008,0.9547362327575684,0.6675975322723389
1771681659537443300,8.350443359375,8.652446746826172,0.3158525824546814,0.48095735907554626
1771681659547801000,8.360801025390625,9.930213928222656,-1.222732424736023,-0.2584248483181
1771681659558158800,8.371158935546875,8.449056625366211,2.328216314315796,-0.8949156403541565
1771681659568516600,8.3815166015625,11.303693771362305,0.7465606927871704,0.6604190468788147
1771681659578874400,8.391874267578125,9.604789733886719,-1.6199408769607544,0.5216353535652161
1771681659589232000,8.402232177734374,10.784451484680176,0.37088751792907715,-0.519242525100708
1771681659599590000,8.41258984375,11.399407386779785,0.8279166221618652,-1.6079767942428589
1771681659609947600,8.42294775390625,8.044670104980469,-0.7226324677467346,0.47617170214653015
1771681659620305400,8.433305419921876,8.602197647094727,0.12442677468061447,0.10767702013254166
1771681659630663200,8.4436630859375,9.233902931213379,1.215553879737854,0.607776939868927
1771681659641021000,8.45402099609375,10.13599681854248,0.6460621356964111,-0.28235307335853577
1771681659651378700,8.464378662109375,9.001798629760742,-1.5242279767990112,-0.5790630578994751
1771681659661736400,8.474736328125,10.583454132080078,1.0528420209884644,-0.47617170214653015
1771681659672094200,8.48509423828125,10.791629791259766,2.0027925968170166,1.2275179624557495
1771681659682452000,8.495451904296875,9.418149948120117,-1.703689694404602,-0.01196411345154047
1771681659692809700,8.505809814453125,10.660024642944336,0.23210379481315613,-0.1866401731967926
1771681659703167500,8.51616748046875,9.686145782470703,1.4476577043533325,-0.07657032459974289
1771681659713525200,8.526525146484374,10.272387504577637,0.6245267391204834,-0.7369893789291382
1771681659723883000,8.536883056640624,7.671389579772949,-1.5361921787261963,-0.2632105052471161
1771681659734240800,8.54724072265625,8.817551612854004,1.2394821643829346,-0.47617170214653015
1771681659744598500,8.5575986328125,9.164510726928711,1.0456634759902954,0.5814558863639832
1771681659754956500,8.56795654296875,9.571290969848633,0.31345975399017334,-1.332802176475525
1771681659765314300,8.578314208984375,9.214759826660156,-1.4093725681304932,0.24406790733337402
1771681659775672000,8.588672119140625,11.21515941619873,1.1126625537872314,0.1866401731967926
1771681659786029800,8.59902978515625,9.985248565673828,-0.49292147159576416,-0.7369893789291382
1771681659796387600,8.6093876953125,9.609575271606445,-1.368694543838501,-0.9595218896865845
1771681659806745300,8.619745361328125,9.56889820098877,0.4426721930503845,-0.3206382393836975
1771681659817103000,8.63010302734375,9.45882797241211,1.1365907192230225,0.5312066078186035
1771681659827460900,8.6404609375,9.293723106384277,-0.06699903309345245,-0.3086741268634796
1771681659837818600,8.650818603515624,9.17886734008789,-1.581655740737915,1.2562319040298462
1771681659848176400,8.66117626953125,10.925628662109375,1.7635103464126587,0.4259224236011505
1771681659858534100,8.6715341796875,11.172088623046875,0.31345975399017334,-0.5790630578994751
1771681659868892000,8.681891845703126,9.882357597351074,-1.215553879737854,-0.5144568681716919
1771681659879249700,8.692249755859375,10.442277908325195,-0.004785645287483931,0.43549370765686035
1771681659889607400,8.702607421875,11.066804885864258,0.8733802437782288,-0.20338992774486542
1771681659899965200,8.712965087890625,8.774480819702148,-0.4977070987224579,0.9236295223236084
1771681659910323000,8.723322998046875,10.40638542175293,-0.08853443711996078,0.5814558863639832
1771681659920680700,8.7336806640625,9.432506561279297,0.8566305041313171,0.605384111404419
1771681659931038500,8.74403857421875,9.803394317626953,0.5814558863639832,0.4211367964744568
1771681659941396200,8.754396240234374,9.494720458984375,-0.45942193269729614,-0.2560320198535919
1771681659951754000,8.76475390625,9.980463027954102,2.806781053543091,-0.7130611538887024
1771681659962111700,8.77511181640625,11.009376525878906,1.734796404838562,0.11724831163883209
1771681659972469500,8.785469482421876,11.09073257446289,-1.1150553226470947,-0.8901300430297852
1771681659982827300,8.7958271484375,9.585647583007812,0.6604190468788147,-0.17706887423992157
1771681659993185000,8.80618505859375,12.277572631835938,-0.02153540402650833,0.24406790733337402
1771681660003542800,8.816542724609375,9.20279598236084,0.3086741268634796,0.040677983313798904
1771681660013900500,8.826900634765625,10.114460945129395,0.016749758273363113,-0.15553347766399384
1771681660024258300,8.83725830078125,9.243474006652832,1.3567304611206055,0.22971096634864807
1771681660034616000,8.847615966796875,9.399007797241211,0.3206382393836975,0.23688943684101105
1771681660044973800,8.857973876953125,9.152546882629395,-0.2847459018230438,0.7441678643226624
1771681660055331600,8.86833154296875,10.095318794250488,1.94297194480896,-0.4091726839542389
1771681660065689300,8.878689453125,9.827322959899902,-0.605384111404419,0.349352091550827
1771681660076047400,8.88904736328125,11.095519065856934,0.9643075466156006,0.12681959569454193
1771681660086405000,8.899405029296876,10.535597801208496,1.6031911373138428,0.035892341285943985
1771681660096763000,8.909762939453126,11.633903503417969,-0.1459621787071228,0.004785645287483931
1771681660107120600,8.92012060546875,9.305686950683594,0.349352091550827,-0.038285162299871445
1771681660117478400,8.930478515625,10.796415328979492,2.56510591506958,0.13160525262355804
1771681660127836200,8.940836181640625,8.841479301452637,-0.13639089465141296,0.4091726839542389
1771681660138194000,8.95119384765625,9.140582084655762,-0.4498506486415863,0.3565305769443512
1771681660148551700,8.9615517578125,10.442277908325195,2.4981069564819336,0.06939185410737991
1771681660158909400,8.971909423828125,11.789437294006348,1.789831280708313,-0.1579262912273407
1771681660169267200,8.98226708984375,9.016156196594238,-2.196611166000366,0.07896314561367035
1771681660179625000,8.992625,11.351551055908203,1.2179467678070068,1.007378339767456
1771681660189982700,9.002982666015624,12.004791259765625,3.067598581314087,0.09092725813388824
1771681660200340500,9.013340576171874,8.987442016601562,-0.6939185857772827,-0.27038896083831787
1771681660210698200,9.0236982421875,7.867600917816162,-1.093519926071167,-0.5288137793540955
1771681660221056000,9.034055908203126,11.322836875915527,3.060420274734497,-0.7680960893630981
1771681660231413800,9.044413818359375,9.753145217895508,1.6199408769607544,-0.07896314561367035
1771681660241771500,9.054771484375,9.142974853515625,-0.35892340540885925,-0.06939185410737991
1771681660252129300,9.06512939453125,12.050254821777344,1.277767300605774,-0.014356935396790504
1771681660262487000,9.075487060546875,9.647860527038574,2.2947168350219727,-0.28235307335853577
1771681660272844800,9.0858447265625,8.166703224182129,-0.6221339106559753,0.09810572862625122
1771681660283202600,9.09620263671875,10.29153060913086,-0.14117653667926788,0.5551348328590393
1771681660293560300,9.106560302734374,10.573883056640625,2.431107759475708,-0.42352959513664246
1771681660303918000,9.11691796875,7.558926582336426,-0.519242525100708,0.4163511395454407
1771681660314275800,9.12727587890625,9.714859962463379,-1.3878371715545654,0.5431707501411438
1771681660324633600,9.137633544921876,11.729616165161133,2.785245656967163,-0.062213387340307236
1771681660334991400,9.147991455078126,8.987442016601562,1.2323036193847656,0.275174617767334
1771681660345349000,9.15834912109375,8.999405860900879,0.04546362906694412,-0.8279166221618652
1771681660355707000,9.168706787109375,11.944971084594727,2.7972097396850586,-0.9044869542121887
1771681660366064600,9.179064697265625,9.119047164916992,-0.349352091550827,-0.349352091550827
1771681660376422400,9.18942236328125,10.277173042297363,-0.28953152894973755,0.3900300860404968
1771681660386780200,9.1997802734375,10.210174560546875,2.431107759475708,0.05024927482008934
1771681660397138000,9.210137939453125,9.159725189208984,0.5359922647476196,0.13639089465141296
1771681660407495700,9.22049560546875,7.841279983520508,-1.4644074440002441,0.8231309652328491
1771681660417853400,9.230853515625,11.193624496459961,2.524427890777588,-0.1052841991186142
1771681660428211200,9.241211181640624,11.040483474731445,1.7180466651916504,0.8327022790908813
1771681660438569000,9.25156884765625,8.303094863891602,-0.9954141974449158,0.5096712112426758
1771681660448926700,9.2619267578125,10.97587776184082,1.8233308792114258,0.7896314859390259
1771681660459284500,9.272284423828125,10.348958015441895,2.4358935356140137,-0.20099709928035736
1771681660469642200,9.282642333984375,7.731209754943848,-0.3732803463935852,-0.12921242415905
1771681660480000000,9.293,12.457035064697266,-0.275174617767334,0.6125625967979431
1771681660490358000,9.30335791015625,9.485149383544922,1.7754744291305542,-1.0456634759902954
1771681660500715800,9.3137158203125,10.664810180664062,-0.34695929288864136,-0.363709032535553
1771681660511073500,9.324073486328125,8.62612533569336,0.8925228714942932,0.5048855543136597
1771681660521431300,9.334431396484375,10.279565811157227,1.8975083827972412,0.6819544434547424
1771681660531789000,9.3447890625,8.542376518249512,-0.20338992774486542,0.7513462901115417
1771681660542146800,9.355146728515624,9.8871431350708,-0.4737788736820221,-0.9092726111412048
1771681660552504600,9.365504638671876,11.20798110961914,2.794816732406616,-0.24885354936122894
1771681660562862300,9.3758623046875,9.473184585571289,1.5074782371520996,0.3900300860404968
1771681660573220000,9.38622021484375,8.078168869018555,-0.5264210104942322,0.22971096634864807
1771681660583577900,9.396577880859375,13.342378616333008,1.430907964706421,0.04785645380616188
1771681660593935600,9.406935546875,10.456634521484375,2.1822543144226074,0.41156548261642456
1771681660604293400,9.41729345703125,7.728816986083984,-0.8063812255859375,0.6843472719192505
1771681660614651100,9.427651123046875,12.679567337036133,0.4259224236011505,-0.7680960893630981
1771681660625009000,9.4380087890625,9.231510162353516,1.8305093050003052,-0.4785645306110382
1771681660635366700,9.44836669921875,7.9728851318359375,0.6915257573127747,-0.43549370765686035
1771681660645724400,9.458724365234374,9.743574142456055,-0.43549370765686035,1.184447169303894
1771681660656082200,9.469082275390624,12.045469284057617,2.610569477081299,-0.4713860750198364
1771681660666440000,9.47943994140625,8.166703224182129,0.007178467698395252,1.2681959867477417
1771681660676797700,9.489797607421876,9.726823806762695,-0.8662018179893494,1.9166508913040161
1771681660687155500,9.500155517578126,10.863414764404297,1.9573289155960083,0.641276478767395
1771681660697513200,9.51051318359375,8.329415321350098,1.0408778190612793,0.9667003750801086
1771681660707871000,9.52087109375,7.362715244293213,-0.9858429431915283,0.16510476171970367
1771681660718228700,9.531228759765625,12.088540077209473,2.6536402702331543,-0.059820566326379776
1771681660728586500,9.54158642578125,8.410771369934082,0.8614161610603333,-0.9260223507881165
1771681660738944300,9.5519443359375,11.966506004333496,0.038285162299871445,-0.11485548317432404
1771681660749302000,9.562302001953125,13.567304611206055,1.8735800981521606,-1.0671988725662231
1771681660759659800,9.57265966796875,8.80798053741455,0.8231309652328491,-1.2418749332427979
1771681660770017500,9.583017578125,6.190232276916504,-0.02632104977965355,-0.6747759580612183
1771681660780375300,9.593375244140624,12.736994743347168,0.9236295223236084,-1.0815558433532715
1771681660790733000,9.603733154296876,8.980263710021973,2.0315065383911133,0.014356935396790504
1771681660801090800,9.6140908203125,8.817551612854004,0.02153540402650833,0.07178468257188797
1771681660811448600,9.624448486328125,14.242080688476562,0.9332008361816406,1.2969099283218384
1771681660821806300,9.634806396484375,10.301101684570312,2.840280532836914,0.275174617767334
1771681660832164000,9.6451640625,5.37906551361084,-0.02153540402650833,0.7226324677467346
1771681660842521900,9.65552197265625,9.410971641540527,1.3806586265563965,1.2346965074539185
1771681660852879600,9.665879638671875,9.784252166748047,2.122433662414551,-1.7467604875564575
1771681660863237400,9.6762373046875,7.642675399780273,1.2251251935958862,1.7156537771224976
1771681660873595100,9.68659521484375,12.68435287475586,1.2394821643829346,1.2275179624557495
1771681660883953000,9.696952880859374,10.097711563110352,0.7824530005455017,-0.48574298620224
1771681660894310700,9.707310546875,8.647661209106445,0.5312066078186035,-0.1986042857170105
1771681660904668400,9.71766845703125,10.322636604309082,0.760917603969574,-0.6628118753433228
1771681660915026200,9.728026123046876,5.72123908996582,2.108076810836792,-0.2225325107574463
1771681660925384000,9.738384033203126,5.757131099700928,1.5074782371520996,0.45224347710609436
1771681660935741700,9.74874169921875,6.977470874786377,0.3565305769443512,1.1222338676452637
1771681660946099700,9.759099609375,12.524033546447754,2.251646041870117,0.9355936646461487
1771681660956457500,9.76945751953125,11.873186111450195,2.7349963188171387,0.6173482537269592
1771681660966815200,9.779815185546875,7.211967468261719,-0.21774685382843018,0.7585247755050659
1771681660977173000,9.790173095703125,9.779465675354004,-0.5312066078186035,0.07896314561367035
1771681660987530800,9.80053076171875,9.66221809387207,1.3184453248977661,0.3086741268634796
1771681660997888500,9.810888427734374,7.1856465339660645,1.674975872039795,0.8662018179893494
1771681661008246300,9.821246337890624,9.253045082092285,1.0719845294952393,-0.12921242415905
1771681661018604000,9.83160400390625,10.26042366027832,1.2969099283218384,-0.8374879360198975
1771681661028961800,9.8419619140625,7.530212879180908,0.33020952343940735,0.22013968229293823
1771681661039319600,9.852319580078126,13.648660659790039,2.1415762901306152,-1.0863415002822876
1771681661049677300,9.86267724609375,10.090533256530762,-0.1698904037475586,0.760917603969574
1771681661060035000,9.87303515625,9.631111145019531,-1.210768222808838,0.48574298620224
1771681661070392800,9.883392822265625,10.956734657287598,2.3784656524658203,0.20099709928035736
1771681661080750600,9.89375048828125,12.081361770629883,1.9860427379608154,0.7585247755050659
1771681661091108400,9.9041083984375,8.437092781066895,-1.277767300605774,0.22492532432079315
1771681661101466000,9.914466064453125,12.885350227355957,-0.11006984114646912,0.3206382393836975
1771681661111824000,9.924823974609374,12.531211853027344,2.3090739250183105,-0.5240281820297241
1771681661122181600,9.935181640625,8.104490280151367,-1.2490534782409668,0.4953143000602722
1771681661132539400,9.945539306640624,11.37069320678711,-0.6125625967979431,-0.5934200286865234
1771681661142897200,9.955897216796876,10.437492370605469,2.3090739250183105,-0.30149564146995544
1771681661153255000,9.9662548828125,11.160124778747559,1.9716858863830566,-0.16031911969184875
1771681661163612700,9.97661279296875,11.542976379394531,0.5599204897880554,-0.19621145725250244
1771681661173970400,9.986970458984375,12.08614730834961,0.059820566326379776,0.8949156403541565
1771681661184328200,9.997328125,11.406585693359375,-1.0408778190612793,0.7441678643226624
1771681661194686000,10.00768603515625,10.109675407409668,-0.672383189201355,0.9332008361816406
1771681661205043700,10.018043701171875,10.518848419189453,1.368694543838501,-0.3852444589138031
1771681661215401500,10.0284013671875,10.186245918273926,1.196411371231079,-0.39960137009620667
1771681661225759200,10.03875927734375,8.733802795410156,1.306481122970581,0.3158525824546814
1771681661236117000,10.049116943359374,11.282158851623535,0.3565305769443512,-0.05742774158716202
1771681661246474800,10.059474853515624,9.853643417358398,-0.7728816866874695,1.3663017749786377
1771681661256832500,10.06983251953125,10.75813102722168,2.2683959007263184,0.349352091550827
1771681661267190300,10.080190185546876,11.062019348144531,-0.9595218896865845,0.5790630578994751
1771681661277548000,10.090548095703125,10.77966594696045,1.2873386144638062,-0.41874396800994873
1771681661287905800,10.10090576171875,11.734402656555176,2.5076780319213867,-0.07896314561367035
1771681661298263600,10.111263671875,9.982855796813965,1.2203395366668701,-0.08853443711996078
1771681661308621300,10.121621337890625,7.463213920593262,-1.1222338676452637,0.4378865361213684
1771681661318979000,10.13197900390625,10.387243270874023,2.445464849472046,0.01196411345154047
1771681661329336800,10.1423369140625,9.415757179260254,1.9980069398880005,0.4139583110809326
1771681661339694600,10.152694580078125,6.309873104095459,0.014356935396790504,0.07657032459974289
1771681661350052400,10.16305224609375,10.87298583984375,1.3399807214736938,-0.5048855543136597
1771681661360410000,10.17341015625,13.832907676696777,3.570091485977173,0.02153540402650833
1771681661370768000,10.183767822265626,6.065805435180664,-0.349352091550827,-0.23688943684101105
1771681661381126000,10.1941259765625,12.059825897216797,0.3445664644241333,0.5144568681716919
1771681661391483600,10.204483642578126,14.093725204467773,3.0245277881622314,0.42352959513664246
1771681661401841400,10.21484130859375,7.379465103149414,1.2658032178878784,0.16031911969184875
1771681661412199200,10.22519921875,7.405786037445068,-0.3924229145050049,0.08614161610603333
1771681661422557000,10.235556884765625,10.963912963867188,2.792423963546753,-0.21296121180057526
1771681661432914700,10.245914794921875,7.288537979125977,1.9094724655151367,-0.1052841991186142
1771681661443272400,10.2562724609375,5.391029357910156,-0.39481574296951294,0.4043870270252228
1771681661453630200,10.266630126953125,12.011969566345215,3.4480574131011963,-0.06939185410737991
1771681661463988000,10.276988037109374,11.12901782989502,2.861815929412842,-0.45942193269729614
1771681661474345700,10.287345703125,6.546762943267822,-0.11246266216039658,-0.31106695532798767
1771681661484703500,10.297703369140624,12.32542896270752,1.3040883541107178,-0.9308080077171326
1771681661495061200,10.308061279296876,8.748159408569336,1.2346965074539185,0.34695929288864136
1771681661505419000,10.3184189453125,8.243273735046387,0.14356936514377594,-0.04785645380616188
1771681661515776800,10.32877685546875,11.219944953918457,3.1824541091918945,-0.24167509377002716
1771681661526134500,10.339134521484375,9.190832138061523,1.4021940231323242,0.2153540402650833
1771681661536492300,10.3494921875,7.267002582550049,-0.2632105052471161,0.37088751792907715
1771681661546850000,10.35985009765625,13.24427318572998,3.376272678375244,-0.11006984114646912
1771681661557207800,10.370207763671875,8.508877754211426,-0.40677985548973083,-0.38285163044929504
1771681661567565600,10.380565673828125,8.621339797973633,-0.12203395366668701,0.41874396800994873
1771681661577923300,10.39092333984375,12.689138412475586,2.964707374572754,-0.19381862878799438
1771681661588281000,10.401281005859374,10.348958015441895,0.32303106784820557,-0.43549370765686035
1771681661598638800,10.411638916015624,6.410371780395508,-0.4091726839542389,-0.2847459018230438
1771681661608996600,10.42199658203125,13.069597244262695,1.6414763927459717,0.4546363055706024
1771681661619354400,10.432354248046876,6.675975322723389,1.454836130142212,-0.18903298676013947
1771681661629712100,10.442712158203125,7.401000499725342,-0.5862415432929993,-0.059820566326379776
1771681661640070000,10.45306982421875,13.49312686920166,1.8664016723632812,-0.6173482537269592
1771681661650427600,10.463427734375,10.576275825500488,2.2755744457244873,-0.20338992774486542
1771681661660785400,10.473785400390625,8.980263710021973,0.04307080805301666,-0.16510476171970367
1771681661671143200,10.48414306640625,11.83011531829834,0.2632105052471161,0.22971096634864807
1771681661681501000,10.4945009765625,8.882157325744629,0.916451096534729,0.23449662327766418
1771681661691858700,10.504858642578125,7.408178806304932,-0.8901300430297852,-0.04307080805301666
1771681661702216400,10.515216552734374,11.889935493469238,2.0506489276885986,-0.8111668825149536
1771681661712574200,10.52557421875,10.01874828338623,1.789831280708313,-0.09571290761232376
1771681661722932000,10.535931884765626,7.594819068908691,0.0526420995593071,-0.33738797903060913
1771681661733289700,10.546289794921876,12.488141059875488,2.1032910346984863,-0.08374879509210587
1771681661743647500,10.5566474609375,9.396614074707031,0.42352959513664246,0.3732803463935852
1771681661754005200,10.567005126953125,8.671588897705078,-0.4259224236011505,-0.35892340540885925
1771681661764363000,10.577363037109375,12.588640213012695,3.2063822746276855,-0.41874396800994873
1771681661774720800,10.587720703125,8.650053977966309,-0.2991028428077698,0.6197410821914673
1771681661785078500,10.59807861328125,8.762516975402832,-0.6843472719192505,-0.09571290761232376
1771681661795436300,10.608436279296875,10.566704750061035,2.5938198566436768,-0.5048855543136597
1771681661805794000,10.6187939453125,8.61176872253418,-0.07896314561367035,0.24646073579788208
1771681661816151800,10.62915185546875,10.643275260925293,-0.6963114142417908,-0.10049854964017868
1771681661826509600,10.639509521484374,11.157732009887695,2.933600664138794,-1.0001999139785767
1771681661836867300,10.649867431640626,8.841479301452637,1.0528420209884644,-0.9451649188995361
1771681661847225000,10.66022509765625,8.628518104553223,0.035892341285943985,-0.4259224236011505
1771681661857582800,10.670582763671876,13.722837448120117,2.266003131866455,-0.3613162338733673
1771681661867940600,10.680940673828125,8.980263710021973,0.1339980661869049,1.1509476900100708
1771681661878298400,10.69129833984375,8.104490280151367,-0.5527420043945312,0.1986042857170105
1771681661888656100,10.70165625,11.700902938842773,2.2947168350219727,-0.47617170214653015
1771681661899014000,10.712013916015625,9.001798629760742,1.5433706045150757,-0.5024927258491516
1771681661909371600,10.72237158203125,7.197610378265381,-0.0526420995593071,-0.1339980661869049
1771681661919729400,10.7327294921875,13.395021438598633,2.957528829574585,0.11485548317432404
1771681661930087200,10.743087158203124,8.769695281982422,0.6340979933738708,-0.48574298620224
1771681661940445000,10.75344482421875,9.638289451599121,-1.069591760635376,0.605384111404419
1771681661950802700,10.763802734375,11.834900856018066,2.53399920463562,-0.32542386651039124
1771681661961160400,10.774160400390626,9.851250648498535,2.1822543144226074,-0.5910272002220154
1771681661971518200,10.784518310546876,6.580262184143066,0.13639089465141296,0.14117653667926788
1771681661981876000,10.7948759765625,11.708081245422363,1.5002998113632202,-0.5359922647476196
1771681661992233700,10.805233642578125,11.057233810424805,2.5770699977874756,0.3397808074951172
1771681662002591500,10.815591552734375,8.075776100158691,0.04785645380616188,0.22013968229293823
1771681662012949200,10.82594921875,12.78485107421875,1.6462619304656982,-1.0480563640594482
1771681662023307000,10.83630712890625,9.851250648498535,-0.06699903309345245,-0.5479564070701599
1771681662033664800,10.846664794921875,8.755337715148926,1.337587833404541,0.23449662327766418
1771681662044022500,10.8570224609375,9.53061294555664,2.2851455211639404,0.7250252366065979
1771681662054380500,10.867380615234374,8.683553695678711,-0.5694918036460876,-0.019142581149935722
1771681662064738300,10.87773828125,8.930013656616211,2.124826431274414,-0.8973084688186646
1771681662075096000,10.888095947265626,10.664810180664062,2.7876384258270264,0.2584248483181
1771681662085453800,10.898453857421876,8.508877754211426,-0.363709032535553,-0.7130611538887024
1771681662095811600,10.9088115234375,9.056833267211914,1.8185452222824097,0.8614161610603333
1771681662106169300,10.91916943359375,10.65523910522461,3.019742250442505,-0.2967100143432617
1771681662116527000,10.929527099609375,7.905886173248291,-0.9906286001205444,0.5264210104942322
1771681662126884900,10.939884765625,11.181660652160645,2.919243574142456,-0.9523434042930603
1771681662137242600,10.95024267578125,11.188838958740234,2.0506489276885986,0.3900300860404968
1771681662147600400,10.960600341796875,8.391629219055176,-0.7513462901115417,0.2847459018230438
1771681662157958100,10.970958251953125,10.432706832885742,1.5314065217971802,0.4163511395454407
1771681662168316000,10.98131591796875,9.681360244750977,2.4263222217559814,-0.02871387079358101
1771681662178673700,10.991673583984374,8.724231719970703,-0.09571290761232376,-0.5096712112426758
1771681662189031400,11.002031494140626,10.746166229248047,2.7972097396850586,-0.1866401731967926
1771681662199389200,11.01238916015625,10.74138069152832,1.3806586265563965,-0.39481574296951294
1771681662209747000,11.022746826171876,6.989434719085693,-0.5694918036460876,0.016749758273363113
1771681662220104700,11.033104736328125,11.925827980041504,2.1774685382843018,0.37806597352027893
1771681662230462500,11.04346240234375,10.569097518920898,2.366501569747925,-0.016749758273363113
1771681662240820200,11.0538203125,7.6977105140686035,-0.9978070259094238,0.02632104977965355
1771681662251178000,11.064177978515625,11.808579444885254,0.5838487148284912,-0.16510476171970367
1771681662261535700,11.07453564453125,9.994820594787598,2.091326951980591,-0.1579262912273407
1771681662271893500,11.0848935546875,6.915257453918457,-0.672383189201355,0.23210379481315613
1771681662282251300,11.095251220703124,10.145567893981934,1.97407865524292,0.05742774158716202
1771681662292609000,11.105609130859374,10.971092224121094,2.2755744457244873,-0.04546362906694412
1771681662302966800,11.115966796875,8.489734649658203,-0.064606212079525,-0.13160525262355804
1771681662313324500,11.126324462890626,12.059825897216797,2.550748825073242,0.3613162338733673
1771681662323682300,11.136682373046876,10.210174560546875,0.0933200865983963,0.1339980661869049
1771681662334040000,11.1470400390625,6.558726787567139,-0.8111668825149536,0.25363919138908386
1771681662344397800,11.157397705078125,10.612168312072754,1.97407865524292,-0.6508477330207825
1771681662354755600,11.167755615234375,9.135796546936035,0.7704889178276062,-0.8925228714942932
1771681662365113300,11.17811328125,9.827322959899902,0.7465606927871704,-0.5312066078186035
1771681662375471000,11.18847119140625,10.834700584411621,1.8831514120101929,0.10049854964017868
1771681662385828900,11.198828857421875,8.358129501342773,-0.5335994362831116,-0.3158525824546814
1771681662396186600,11.2091865234375,10.466206550598145,2.1296122074127197,-0.30149564146995544
1771681662406544400,11.21954443359375,11.095519065856934,3.050848960876465,0.11246266216039658
1771681662416902100,11.229902099609374,7.817351341247559,-0.7058826684951782,-0.02632104977965355
1771681662427260000,11.240260009765626,10.75813102722168,-0.6699903607368469,-0.41156548261642456
1771681662437617700,11.25061767578125,10.738987922668457,2.4335005283355713,-0.17228323221206665
1771681662447975400,11.260975341796875,9.410971641540527,-0.3732803463935852,0.11246266216039658
1771681662458333200,11.271333251953125,10.085747718811035,1.9669002294540405,-0.1579262912273407
1771681662468691000,11.28169091796875,10.511670112609863,2.854637384414673,0.035892341285943985
1771681662479048700,11.292048583984375,6.8554368019104,-0.46420758962631226,-0.24167509377002716
1771681662489406500,11.302406494140625,11.152946472167969,1.545763373374939,-0.7441678643226624
1771681662499764200,11.31276416015625,9.89432144165039,2.311466693878174,0.5599204897880554
1771681662510122000,11.3231220703125,7.149754047393799,-0.5862415432929993,0.1818545162677765
1771681662520479700,11.333479736328124,10.571490287780762,2.3306093215942383,-0.42831525206565857
1771681662530837500,11.34383740234375,10.37767219543457,2.0171494483947754,-0.5694918036460876
1771681662541195300,11.3541953125,8.360522270202637,-0.5958128571510315,-0.14117653667926788
1771681662551553000,11.364552978515626,11.492727279663086,2.699103832244873,-0.05742774158716202
1771681662561910800,11.374910888671875,9.384650230407715,1.7826528549194336,-0.19142581522464752
1771681662572268500,11.3852685546875,8.72901725769043,-0.380458801984787,0.1339980661869049
1771681662582626300,11.395626220703125,10.679167747497559,2.6488547325134277,-0.5240281820297241
1771681662592984000,11.405984130859375,9.001798629760742,2.194218397140503,-0.275174617767334
1771681662603341800,11.416341796875,7.231110095977783,-0.13878370821475983,-0.2560320198535919
1771681662613699600,11.426699462890625,11.83729362487793,2.6057839393615723,-0.062213387340307236
1771681662624057300,11.437057373046875,10.214960098266602,-0.15314064919948578,0.2679961323738098
1771681662634415000,11.4474150390625,8.958727836608887,0.019142581149935722,0.4905286431312561
1771681662644772900,11.45777294921875,12.91645622253418,3.170490026473999,-0.885344386100769
1771681662655130600,11.468130615234376,9.07119083404541,-0.46420758962631226,-0.3445664644241333
1771681662665488400,11.47848828125,10.731809616088867,1.6366907358169556,0.6747759580612183
1771681662675846100,11.48884619140625,10.990234375,1.6582261323928833,0.5694918036460876
1771681662686204000,11.499203857421875,6.742974281311035,-0.49292147159576416,0.28953152894973755
1771681662696561700,11.509561767578125,10.116853713989258,1.1078768968582153,-0.5120640397071838
1771681662706919400,11.51991943359375,12.643674850463867,2.3330020904541016,-1.1198409795761108
1771681662717277200,11.530277099609375,9.353543281555176,-0.5455635786056519,-0.0023928226437419653
1771681662727635000,11.540635009765625,12.306286811828613,2.344966173171997,-0.12442677468061447
1771681662737992700,11.55099267578125,10.963912963867188,0.39481574296951294,0.7800601720809937
1771681662748350500,11.5613505859375,8.264809608459473,-0.6675975322723389,0.23688943684101105
1771681662758708200,11.571708251953124,10.695917129516602,2.524427890777588,0.02392822690308094
1771681662769066000,11.58206591796875,10.777273178100586,0.3756731450557709,0.04546362906694412
1771681662779423700,11.592423828125,7.731209754943848,-1.0671988725662231,0.1746760457754135
1771681662789781500,11.602781494140626,10.564311981201172,2.7014968395233154,-0.28235307335853577
1771681662800139500,11.613139404296875,9.53061294555664,0.09092725813388824,0.8135597109794617
1771681662810497300,11.623497314453125,8.506484031677246,1.6869399547576904,-0.8590233325958252
1771681662820855000,11.63385498046875,11.739188194274902,2.806781053543091,0.37806597352027893
1771681662831212800,11.644212890625,10.293923377990723,-0.3517449200153351,-0.6101697683334351
1771681662841570600,11.654570556640625,10.76530933380127,-0.02632104977965355,-0.6125625967979431
1771681662851928300,11.66492822265625,11.172088623046875,2.495713949203491,0.6173482537269592
1771681662862286000,11.6752861328125,8.181060791015625,-1.0241280794143677,-0.5718846321105957
1771681662872643800,11.685643798828124,11.298908233642578,1.674975872039795,-0.7896314859390259
1771681662883001600,11.696001708984374,10.987841606140137,2.414358139038086,-0.7322037220001221
1771681662893359400,11.706359375,8.204988479614258,-0.1052841991186142,0.5096712112426758
1771681662903717000,11.716717041015626,10.286744117736816,2.7086751461029053,-0.07178468257188797
1771681662914075000,11.727074951171875,9.667003631591797,1.2969099283218384,0.275174617767334
1771681662924432600,11.7374326171875,8.635697364807129,-0.2392822653055191,-0.5288137793540955
1771681662934790400,11.747790283203125,11.44247817993164,2.770888566970825,-0.40677985548973083
1771681662945148200,11.758148193359375,10.083354949951172,-0.21296121180057526,0.08853443711996078
1771681662955506000,11.768505859375,9.41336441040039,0.09810572862625122,-0.4139583110809326
1771681662965863700,11.77886376953125,10.99741268157959,2.7278177738189697,0.3756731450557709
1771681662976221400,11.789221435546875,9.966106414794922,0.18903298676013947,-0.11724831163883209
1771681662986579200,11.7995791015625,9.001798629760742,2.2851455211639404,0.09571290761232376
1771681662996937000,11.80993701171875,9.841679573059082,0.9284151792526245,-0.16271193325519562
1771681663007294700,11.820294677734376,9.308079719543457,-0.638883650302887,0.29431718587875366
1771681663017652500,11.830652587890626,9.937392234802246,3.029313564300537,-0.2225325107574463
1771681663028010200,11.84101025390625,9.571290969848633,1.4572290182113647,0.2512463629245758
1771681663038368000,11.851367919921875,8.508877754211426,-0.2871387302875519,-0.5790630578994751
1771681663048725800,11.861725830078125,11.042876243591309,1.8975083827972412,-0.727418065071106
1771681663059083500,11.87208349609375,11.203195571899414,2.3234307765960693,-0.4570291340351105
1771681663069441300,11.882441162109375,8.937192916870117,-0.20578274130821228,0.9858429431915283
1771681663079799000,11.892799072265625,10.01874828338623,2.5986053943634033,-0.009571290574967861
1771681663090156800,11.90315673828125,9.166903495788574,0.08853443711996078,-0.20338992774486542
1771681663100514600,11.9135146484375,7.645068168640137,0.20817556977272034,-0.9308080077171326
1771681663110872300,11.923872314453124,10.39202880859375,2.8977081775665283,-0.10767702013254166
1771681663121230000,11.93422998046875,8.571090698242188,-0.15074782073497772,0.36610186100006104
1771681663131587800,11.944587890625,9.473184585571289,-0.2919243574142456,-0.1579262912273407
1771681663141945600,11.954945556640626,11.152946472167969,2.981456995010376,0.27756741642951965
1771681663152303400,11.965303466796875,8.6907320022583,-0.14835500717163086,-0.4737788736820221
1771681663162661000,11.9756611328125,10.073782920837402,2.651247501373291,-0.25363919138908386
1771681663173019000,11.986018798828125,10.037891387939453,-0.007178467698395252,0.6963114142417908
1771681663183376600,11.996376708984375,7.987242221832275,-0.30149564146995544,0.23210379481315613
1771681663193734400,12.006734375,10.832307815551758,2.9359934329986572,0.02392822690308094
1771681663204092200,12.017092041015625,9.554540634155273,-0.2273181527853012,0.6269195079803467
1771681663214450000,12.027449951171874,7.061219692230225,-0.973878800868988,-0.22971096634864807
1771681663224807700,12.0378076171875,10.813165664672852,2.447857618331909,-0.7226324677467346
1771681663235165400,12.04816552734375,10.207781791687012,0.7465606927871704,0.5527420043945312
1771681663245523200,12.058523193359376,9.767501831054688,0.16271193325519562,0.24167509377002716
1771681663255881000,12.068880859375,11.059626579284668,1.093519926071167,-0.2967100143432617
1771681663266238700,12.07923876953125,10.03310489654541,0.05503492057323456,-0.6867401003837585
1771681663276596500,12.089596435546875,10.13599681854248,1.8041882514953613,0.4450650215148926
1771681663286954200,12.099954345703125,10.784451484680176,0.7441678643226624,0.5623133182525635
1771681663297312000,12.11031201171875,8.80798053741455,-0.25363919138908386,1.0767701864242554
1771681663307669800,12.120669677734375,9.68375301361084,2.6225335597991943,0.2919243574142456
1771681663318027500,12.131027587890625,10.205389022827148,0.10049854964017868,-0.20099709928035736
1771681663328385300,12.14138525390625,9.748359680175781,1.5433706045150757,0.064606212079525
1771681663338743000,12.151742919921874,10.822736740112305,2.5674986839294434,0.3924229145050049
1771681663349100800,12.162100830078124,9.28893756866455,-1.368694543838501,0.4163511395454407
1771681663359458600,12.17245849609375,9.920642852783203,0.29431718587875366,-0.2799602448940277
1771681663369816300,12.18281640625,11.531012535095215,2.720639228820801,-0.019142581149935722
1771681663380174000,12.193174072265625,9.241081237792969,-0.02392822690308094,-0.3517449200153351
1771681663390531800,12.20353173828125,8.066205024719238,-1.5385849475860596,0.5431707501411438
1771681663400889600,12.2138896484375,10.463813781738281,2.0315065383911133,0.13639089465141296
1771681663411247400,12.224247314453125,9.193224906921387,0.9643075466156006,1.0193424224853516
1771681663421605000,12.234605224609375,8.243273735046387,0.9930213689804077,-0.15553347766399384
1771681663431963000,12.244962890625,10.315458297729492,0.8135597109794617,-0.17946170270442963
1771681663442320600,12.255320556640624,8.745766639709473,-0.08374879509210587,0.35413774847984314
1771681663452678400,12.265678466796874,10.41356372833252,1.6366907358169556,1.3280165195465088
1771681663463036200,12.2760361328125,10.195816993713379,-0.44745782017707825,0.19142581522464752
1771681663473394000,12.286393798828126,9.54496955871582,1.3663017749786377,0.32542386651039124
1771681663483751700,12.296751708984376,9.762716293334961,2.266003131866455,-0.9834501147270203
1771681663494109400,12.307109375,9.205188751220703,-0.42831525206565857,0.6867401003837585
1771681663504467200,12.31746728515625,9.45882797241211,2.1296122074127197,0.7704889178276062
1771681663514825000,12.327824951171875,10.38485050201416,0.22013968229293823,1.1054840087890625
1771681663525182700,12.3381826171875,9.781859397888184,0.18903298676013947,-0.040677983313798904
1771681663535540500,12.34854052734375,10.461421012878418,1.7587246894836426,0.4546363055706024
1771681663545898200,12.358898193359375,10.978270530700684,-0.9643075466156006,0.19621145725250244
1771681663556256000,12.369256103515625,10.755738258361816,1.7324036359786987,-0.07417750358581543
1771681663566613800,12.37961376953125,9.559326171875,0.9212366938591003,0.8781659007072449
1771681663576971500,12.389971435546874,10.016355514526367,-1.1748759746551514,1.160519003868103
1771681663587329300,12.400329345703126,9.370293617248535,1.3902299404144287,0.2560320198535919
1771681663597687000,12.41068701171875,10.26042366027832,1.526620864868164,0.2799602448940277
1771681663608044800,12.421044921875,9.193224906921387,-1.5960127115249634,0.42831525206565857
1771681663618402600,12.431402587890625,10.542776107788086,1.9597218036651611,-0.47617170214653015
1771681663628760300,12.44176025390625,11.68175983428955,1.7252250909805298,1.5314065217971802
1771681663639118000,12.4521181640625,8.58784008026123,-0.4977070987224579,0.4785645306110382
1771681663649475800,12.462475830078125,8.61176872253418,0.6245267391204834,0.5527420043945312
1771681663659833600,12.47283349609375,10.054640769958496,0.6891329288482666,0.48813581466674805
1771681663670191400,12.48319140625,9.504291534423828,0.1052841991186142,-0.34217363595962524
1771681663680549000,12.493549072265624,10.614561080932617,1.031306505203247,-0.21774685382843018
1771681663690907000,12.503906982421874,10.418350219726562,-0.16031911969184875,-0.4426721930503845
1771681663701264600,12.5142646484375,9.300901412963867,0.4905286431312561,0.8279166221618652
1771681663711622400,12.524622314453126,10.468599319458008,0.30149564146995544,0.4953143000602722
1771681663721980200,12.534980224609376,9.78664493560791,0.2153540402650833,0.016749758273363113
1771681663732338000,12.545337890625,10.28195858001709,0.0023928226437419653,0.031106693670153618
1771681663742695700,12.55569580078125,9.66221809387207,0.3038884699344635,1.2538390159606934
1771681663753053400,12.566053466796875,10.722238540649414,1.2945170402526855,0.1459621787071228
1771681663763411200,12.5764111328125,10.547562599182129,-0.9858429431915283,0.38285163044929504
1771681663773769000,12.58676904296875,9.949356079101562,0.5216353535652161,-0.11246266216039658
1771681663784126700,12.597126708984375,10.387243270874023,0.8925228714942932,0.4570291340351105
1771681663794484500,12.607484375,10.743773460388184,1.6342978477478027,0.760917603969574
1771681663804842200,12.61784228515625,8.305487632751465,-1.404586911201477,0.7513462901115417
1771681663815200000,12.628199951171876,11.01416301727295,1.1198409795761108,-0.5216353535652161
1771681663825557800,12.638557861328126,9.757930755615234,2.5387847423553467,0.5551348328590393
1771681663835915500,12.64891552734375,10.066604614257812,-1.3112667798995972,0.5216353535652161
1771681663846273300,12.659273193359375,9.059226989746094,-0.059820566326379776,0.12681959569454193
1771681663856631000,12.669631103515625,10.73420238494873,1.9669002294540405,-0.7034898400306702
1771681663866988800,12.67998876953125,10.466206550598145,-1.1940184831619263,-1.0336993932724
1771681663877346600,12.6903466796875,10.193424224853516,0.6915257573127747,-0.38763725757598877
1771681663887704300,12.700704345703125,11.408978462219238,1.31365966796875,1.0265209674835205
1771681663898062000,12.71106201171875,9.561718940734863,-0.8111668825149536,0.6484549641609192
1771681663908419800,12.721419921875,8.389236450195312,0.2991028428077698,0.973878800868988
1771681663918777600,12.731777587890624,10.533205032348633,1.1174482107162476,0.07417750358581543
1771681663929135400,12.74213525390625,8.937192916870117,0.1698904037475586,0.5359922647476196
1771681663939493000,12.7524931640625,8.793622970581055,-0.02392822690308094,0.21296121180057526
1771681663949851000,12.762850830078126,9.77707290649414,0.6963114142417908,0.638883650302887
1771681663960208600,12.773208740234375,10.269994735717773,1.423729419708252,0.794417142868042
1771681663970566400,12.78356640625,10.238887786865234,-0.09810572862625122,0.3086741268634796
1771681663980924200,12.793924072265625,9.66939640045166,-0.13878370821475983,-0.2632105052471161
1771681663991282000,12.804281982421875,10.293923377990723,1.9908283948898315,0.7178468108177185
1771681664001639700,12.8146396484375,9.415757179260254,-0.06699903309345245,-0.062213387340307236
1771681664011997400,12.82499755859375,9.585647583007812,-0.4833501875400543,0.4259224236011505
1771681664022355200,12.835355224609375,9.803394317626953,1.5194423198699951,-0.4977070987224579
1771681664032713000,12.845712890625,9.183652877807617,-0.6939185857772827,0.6819544434547424
1771681664043070700,12.85607080078125,9.817750930786133,1.0001999139785767,0.5168496966362
1771681664053428500,12.866428466796876,9.41336441040039,0.4953143000602722,0.7513462901115417
1771681664063786200,12.8767861328125,9.992427825927734,-0.33020952343940735,-0.40677985548973083
1771681664074144000,12.88714404296875,8.087740898132324,1.6199408769607544,0.3517449200153351
1771681664084501800,12.897501708984375,11.241480827331543,-0.6747759580612183,-0.5575276613235474
1771681664094859500,12.907859619140625,9.068798065185547,0.26081767678260803,0.7704889178276062
1771681664105217300,12.91821728515625,10.97587776184082,0.7154539823532104,0.02153540402650833
1771681664115575000,12.928574951171875,10.650453567504883,0.5288137793540955,0.42352959513664246
1771681664125932800,12.938932861328125,7.657032489776611,0.13160525262355804,0.5455635786056519
1771681664136290600,12.94929052734375,10.107282638549805,0.8183453679084778,0.6580262184143066
1771681664146648300,12.9596484375,7.527820110321045,0.4618147611618042,0.7465606927871704
1771681664157006000,12.970006103515624,9.717252731323242,0.5862415432929993,0.4833501875400543
1771681664167363800,12.98036376953125,7.6043901443481445,0.3756731450557709,0.7058826684951782
1771681664177721600,12.9907216796875,9.087940216064453,-0.9260223507881165,0.6843472719192505
1771681664188079400,13.001079345703126,10.774880409240723,1.0959128141403198,-0.22013968229293823
1771681664198437000,13.01143701171875,10.320243835449219,-0.2679961323738098,0.97148597240448
1771681664208795000,13.021794921875,10.265209197998047,0.1698904037475586,0.1818545162677765
1771681664219152600,13.032152587890625,10.49252700805664,0.4737788736820221,1.0097711086273193
1771681664229510400,13.042510498046875,11.066804885864258,-0.6963114142417908,0.8949156403541565
1771681664239868200,13.0528681640625,10.882556915283203,-0.9355936646461487,1.423729419708252
1771681664250226000,13.063225830078125,12.686745643615723,0.760917603969574,1.306481122970581
1771681664260583700,13.073583740234374,11.423335075378418,0.6436693072319031,2.146361827850342
1771681664270941400,13.08394140625,8.927620887756348,0.31345975399017334,0.12681959569454193
1771681664281299200,13.09429931640625,8.554341316223145,-0.24885354936122894,0.8805587291717529
1771681664291657000,13.104656982421876,9.425328254699707,1.129412293434143,-0.5670989751815796
1771681664302014700,13.1150146484375,11.672188758850098,-0.9499505758285522,1.9166508913040161
1771681664312372500,13.12537255859375,10.97587776184082,0.19621145725250244,1.28255295753479
1771681664322730200,13.135730224609375,11.437692642211914,-0.11006984114646912,0.35413774847984314
1771681664333088000,13.146087890625,11.308480262756348,-0.4091726839542389,-0.5048855543136597
1771681664343445800,13.15644580078125,8.329415321350098,-0.7417750358581543,1.0839486122131348
1771681664353803500,13.166803466796875,9.513862609863281,2.455035924911499,-0.6484549641609192
1771681664364161300,13.177161376953125,6.941578388214111,1.4835500717163086,-0.4091726839542389
1771681664374519000,13.18751904296875,4.543970108032227,-0.7585247755050659,-0.8135597109794617
1771681664384876800,13.197876708984374,8.58784008026123,-0.3326023519039154,-1.0959128141403198
1771681664395234600,13.208234619140624,11.380264282226562,2.5435705184936523,-1.031306505203247
1771681664405592300,13.21859228515625,9.276973724365234,0.1339980661869049,-0.3613162338733673
1771681664415950000,13.2289501953125,9.387042999267578,-2.076970100402832,1.1198409795761108
1771681664426307800,13.239307861328125,10.545169830322266,1.3639088869094849,-0.09571290761232376
1771681664436665600,13.24966552734375,8.72183895111084,-0.28235307335853577,0.45224347710609436
1771681664447023400,13.2600234375,10.193424224853516,0.5982056856155396,-0.27038896083831787
1771681664457381000,13.270381103515625,9.276973724365234,0.3397808074951172,-0.41874396800994873
1771681664467739000,13.28073876953125,8.403593063354492,1.0528420209884644,1.6773686408996582
1771681664478096600,13.2910966796875,7.551748275756836,0.21774685382843018,1.801795482635498
1771681664488454400,13.301454345703124,9.08554744720459,2.50289249420166,-0.5144568681716919
1771681664498812200,13.311812255859374,8.652446746826172,0.7465606927871704,0.6293123364448547
