time,seconds_elapsed,z,y,x
1773048888511167200,0.227167236328125,10.0343017578125,-0.4133601188659668,0.7250252366065979
1773048888521115600,0.23711572265625,9.675378799438477,-0.5665007829666138,0.882951557636261
1773048888531098000,0.24709814453125,9.627521514892578,-0.355932354927063,0.6675975322723389
1773048888540978200,0.256978271484375,9.56471061706543,-0.31764721870422363,0.638883650302887
1773048888550858200,0.266858154296875,10.139585494995117,-0.35114672780036926,0.6340979933738708
1773048888560702500,0.276702392578125,9.737591743469238,-0.4085744619369507,0.9547362327575684
1773048888570882600,0.286882568359375,9.392427444458008,-0.1453639715909958,0.5862415432929993
1773048888580748000,0.296748046875,9.756733894348145,-0.19322042167186737,0.3846462368965149
1773048888590614300,0.3066142578125,10.000802040100098,-0.5042873620986938,1.490728497505188
1773048888600696800,0.31669677734375,9.627521514892578,-0.666999340057373,0.7968099117279053
1773048888610651400,0.3266513671875,9.071788787841797,-0.39900317788124084,0.3798605799674988
1773048888620831200,0.336831298828125,10.14437198638916,-0.006580262444913387,0.6293123364448547
1773048888630946800,0.34694677734375,10.043872833251953,0.1417747437953949,0.8207381963729858
1773048888640826600,0.35682666015625,9.651450157165527,-0.16450655460357666,0.389431893825531
1773048888650706700,0.366706787109375,9.535996437072754,-0.6430711150169373,0.8685946464538574
1773048888660787000,0.376786865234375,10.063015937805176,-0.42293140292167664,0.916451096534729
1773048888670843400,0.386843505859375,9.747162818908691,-0.030508488416671753,0.5288137793540955
1773048888680742100,0.3967421875,9.689735412597656,0.18484555184841156,0.8159525394439697
1773048888690734800,0.40673486328125,9.814162254333496,-0.32721850275993347,1.1892328262329102
1773048888700615000,0.416614990234375,9.363713264465332,-0.4707878530025482,0.50907301902771
1773048888710495000,0.426494873046875,9.492925643920898,-0.3655036687850952,0.26500511169433594
1773048888720646700,0.436646728515625,9.929018020629883,-0.21714866161346436,0.8542376756668091
1773048888730713000,0.446713134765625,10.230513572692871,0.1944168359041214,0.4181457459926605
1773048888740593200,0.45659326171875,9.459425926208496,-0.2027917206287384,1.3423734903335571
1773048888750473200,0.46647314453125,10.096514701843262,-0.47557350993156433,1.1318050622940063
1773048888760555800,0.4765556640625,9.689735412597656,-0.48035913705825806,0.3798605799674988
1773048888770550300,0.48655029296875,9.531210899353027,-0.16929219663143158,0.605384111404419
1773048888780509400,0.496509521484375,10.01994514465332,0.14656038582324982,0.4372883439064026
1773048888790489900,0.50648974609375,9.775876998901367,-0.12143574655056,0.8207381963729858
1773048888800463000,0.516463134765625,9.488140106201172,-0.3320041298866272,0.8590233325958252
1773048888810440400,0.5264404296875,9.535996437072754,-0.5856433510780334,0.5335994362831116
1773048888820416300,0.536416259765625,10.01037311553955,-0.32243284583091736,1.074377417564392
1773048888830393300,0.546393310546875,10.039087295532227,0.2763710021972656,0.7058826684951782
1773048888840369700,0.55636962890625,9.881160736083984,0.33858439326286316,0.6149554252624512
1773048888850346500,0.566346435546875,9.957731246948242,-0.3367897868156433,1.0456634759902954
1773048888860323000,0.576322998046875,9.368498802185059,-0.6813562512397766,0.48514479398727417
1773048888870300000,0.5862998046875,9.287142753601074,-0.6287141442298889,0.3128615617752075
1773048888880276500,0.5962763671875,10.412367820739746,-0.21236300468444824,0.8446664214134216
1773048888890253300,0.60625341796875,9.962516784667969,0.7692924737930298,0.48035913705825806
1773048888900230000,0.61622998046875,9.737591743469238,0.4055834412574768,1.0360921621322632
1773048888910206500,0.62620654296875,10.29751205444336,-0.3798605799674988,1.3806586265563965
1773048888920183300,0.636183349609375,8.578866958618164,-0.6526423692703247,0.6197410821914673
1773048888930159900,0.646159912109375,9.186644554138184,-0.849452018737793,0.9403793215751648
1773048888940136700,0.65613671875,11.00160026550293,-0.18843477964401245,0.12143574655056
1773048888950113300,0.66611328125,9.119645118713379,1.1282159090042114,0.16450655460357666
1773048888960089900,0.67608984375,10.36929702758789,0.4486542344093323,1.0839486122131348
1773048888970066700,0.686066650390625,11.11167049407959,-0.6095715761184692,0.8111668825149536
1773048888980043300,0.696043212890625,7.788637638092041,-0.5569294691085815,1.155733346939087
1773048888990019800,0.706019775390625,9.334999084472656,-0.9212366938591003,1.4189438819885254
1773048888999996700,0.71599658203125,11.921042442321777,-0.01136590726673603,0.13100704550743103
1773048889009973200,0.72597314453125,8.26241683959961,1.195214867591858,0.28893333673477173
1773048889019950000,0.7359501953125,10.378868103027344,1.1377872228622437,1.031306505203247
1773048889029926700,0.7459267578125,10.838888168334961,-0.19322042167186737,0.5138586759567261
1773048889039903500,0.755903564453125,7.57806921005249,-1.1748759746551514,0.849452018737793
1773048889049880000,0.765880126953125,9.229715347290039,-1.1748759746551514,1.4380863904953003
1773048889059857000,0.77585693359375,12.845270156860352,0.046061836183071136,0.18364913761615753
1773048889069833500,0.78583349609375,8.133204460144043,1.1521440744400024,-0.06999006122350693
1773048889079810000,0.79581005859375,11.193026542663574,1.430309772491455,1.1126625537872314
1773048889089787000,0.805786865234375,10.747961044311523,0.10827522724866867,1.2993026971817017
1773048889099763500,0.815763427734375,6.950551509857178,-0.5904290080070496,0.7968099117279053
1773048889109740300,0.825740234375,8.444271087646484,-2.2953150272369385,1.6157535314559937
1773048889119716900,0.835716796875,13.362119674682617,0.2907279431819916,0.6293123364448547
1773048889129693700,0.845693603515625,8.080561637878418,1.26699960231781,-0.2709871530532837
1773048889139670300,0.855670166015625,10.503294944763184,1.4590235948562622,0.355932354927063
1773048889149647000,0.865647216796875,11.039885520935059,0.7022934556007385,0.5335994362831116
1773048889159623700,0.875623779296875,6.979265213012695,-0.5569294691085815,0.5335994362831116
1773048889169600300,0.885600341796875,9.704092025756836,-0.9499505758285522,3.214757204055786
1773048889179577000,0.8955771484375,12.667603492736816,-2.142174482345581,-0.625723123550415
1773048889189553700,0.9055537109375,8.214560508728027,1.2813565731048584,0.0687936544418335
1773048889199530500,0.915530517578125,11.221739768981934,1.82273268699646,0.6005984544754028
1773048889209507000,0.925507080078125,10.101301193237305,0.9655039310455322,1.3950155973434448
1773048889219484000,0.93548388671875,5.873183250427246,0.026919255033135414,0.8015955686569214
1773048889229460500,0.94546044921875,9.92423152923584,-0.7100701332092285,1.7497515678405762
1773048889239437300,0.955437255859375,13.673187255859375,-0.5377869009971619,0.37507495284080505
1773048889249414000,0.965413818359375,6.974479675292969,0.7022934556007385,-0.2231307178735733
1773048889259390500,0.975390380859375,12.500105857849121,1.6791633367538452,0.7393822073936462
1773048889269367300,0.9853671875,10.115657806396484,0.486939400434494,0.7537391185760498
1773048889279343900,0.99534375,5.3557353019714355,-0.21236300468444824,0.4612165689468384
1773048889289320700,1.00532080078125,9.756733894348145,-0.7292127013206482,2.3192434310913086
1773048889299297300,1.01529736328125,14.066207885742188,-0.6191428303718567,1.1940184831619263
1773048889309274000,1.025274169921875,7.237690448760986,0.8793623447418213,-0.44805604219436646
1773048889319250700,1.035250732421875,11.921042442321777,1.755733609199524,0.389431893825531
1773048889329227500,1.0452275390625,9.708877563476562,0.6592226624488831,0.4325026869773865
1773048889339204000,1.0552041015625,4.83888578414917,-0.21714866161346436,0.3798605799674988
1773048889349180700,1.0651806640625,11.911471366882324,-0.47557350993156433,0.8973084688186646
1773048889359157500,1.075157470703125,11.873186111450195,-2.3192434310913086,0.6963114142417908
1773048889369134000,1.085134033203125,8.37727165222168,1.0612168312072754,0.4085744619369507
1773048889379111000,1.09511083984375,13.457832336425781,1.932802438735962,0.9643075466156006
1773048889389087500,1.10508740234375,7.304689407348633,0.6687939167022705,1.5098711252212524
1773048889399064300,1.115064208984375,4.925027370452881,0.12263216078281403,1.557727575302124
1773048889409041000,1.125041015625,14.195420265197754,-0.6239284873008728,1.074377417564392
1773048889419017700,1.135017822265625,9.914660453796387,-0.1788634955883026,-0.34277185797691345
1773048889428994300,1.144994384765625,7.405188083648682,1.1330015659332275,0.3128615617752075
1773048889438971100,1.15497119140625,15.162718772888184,1.669592022895813,1.654038667678833
1773048889448947700,1.16494775390625,6.883552551269531,0.10348957777023315,1.8789639472961426
1773048889458924500,1.174924560546875,4.494318962097168,-0.3798605799674988,1.3710874319076538
1773048889468901000,1.184901123046875,13.965709686279297,-0.7872386574745178,0.6819544434547424
1773048889478878000,1.1948779296875,11.207383155822754,-0.03529413416981697,-0.6161518096923828
1773048889488854500,1.2048544921875,7.338188648223877,1.583450436592102,0.10707881301641464
1773048889498831000,1.2148310546875,14.386846542358398,2.2055842876434326,0.5288137793540955
1773048889508808000,1.224807861328125,6.850052833557129,0.022133609279990196,1.9459630250930786
1773048889518784500,1.234784423828125,5.015954494476318,-0.6047859191894531,1.4859428405761719
1773048889528761300,1.24476123046875,15.090933799743652,-1.184447169303894,0.6532405614852905
1773048889538738000,1.254738037109375,9.000003814697266,0.06999006122350693,-0.3284149169921875
1773048889548714800,1.26471484375,8.291130065917969,1.3872389793395996,0.32721850275993347
1773048889558652700,1.274652587890625,14.506486892700195,2.3545374870300293,1.5290136337280273
1773048889568625400,1.28462548828125,5.231308460235596,0.50129634141922,0.763310432434082
1773048889578644700,1.294644775390625,6.0023956298828125,-0.5808576941490173,1.428515076637268
1773048889588622300,1.304622314453125,16.9058895111084,-1.1174482107162476,0.4899304509162903
1773048889598598100,1.31459814453125,7.261618614196777,0.20877377688884735,-0.2470589429140091
1773048889608575500,1.324575439453125,9.761520385742188,1.6121642589569092,0.4468596279621124
1773048889618551600,1.334551513671875,14.008780479431152,2.210369825363159,1.0456634759902954
1773048889628529000,1.34452880859375,2.947359323501587,0.3194418251514435,2.352742910385132
1773048889638505000,1.3545048828125,8.885149002075195,-0.7004988193511963,1.007378339767456
1773048889648482000,1.36448193359375,16.84307861328125,-0.8925228714942932,0.3798605799674988
1773048889658458400,1.374458251953125,4.623531341552734,0.5204389095306396,-0.04127619042992592
1773048889668435500,1.384435546875,12.571889877319336,1.8897316455841064,0.3367897868156433
1773048889678411800,1.394411865234375,12.619746208190918,1.846660852432251,-0.2470589429140091
1773048889688388600,1.404388671875,1.664208173751831,0.1704886108636856,2.9419753551483154
1773048889698365200,1.414365234375,12.533604621887207,-0.666999340057373,1.0839486122131348
1773048889708342000,1.424342041015625,14.635699272155762,-0.5617151260375977,0.18843477964401245
1773048889718318600,1.434318603515625,4.364508628845215,0.8506484627723694,0.15493527054786682
1773048889728295400,1.44429541015625,14.281561851501465,2.359323024749756,0.7441678643226624
1773048889738272000,1.45427197265625,9.244071960449219,1.3106685876846313,2.3814568519592285
1773048889748248800,1.464248779296875,2.0997018814086914,-0.1788634955883026,0.4468596279621124
1773048889758225400,1.474225341796875,16.97767448425293,-0.8398807644844055,0.2027917206287384
1773048889768202200,1.4842021484375,9.742377281188965,-0.020937198773026466,0.37028929591178894
1773048889778140000,1.494139892578125,6.543771743774414,1.2478569746017456,0.7154539823532104
1773048889788113000,1.50411279296875,15.473785400390625,2.421536445617676,2.3910279273986816
1773048889798132200,1.51413232421875,5.5142598152160645,0.5970092415809631,1.1988041400909424
1773048889808109800,1.52410986328125,4.968098163604736,-0.32243284583091736,0.23629122972488403
1773048889818046700,1.534046630859375,18.03111457824707,-0.5856433510780334,0.4325026869773865
1773048889828020200,1.544020263671875,6.375676155090332,0.6544370055198669,0.21714866161346436
1773048889838000000,1.554000244140625,10.264012336730957,1.6791633367538452,1.5433706045150757
1773048889847974400,1.563974365234375,12.576675415039062,1.8131613731384277,1.9938194751739502
1773048889857953500,1.57395361328125,3.057429075241089,0.0029910283628851175,-0.2709871530532837
1773048889867928300,1.58392822265625,12.749557495117188,-0.6095715761184692,1.0791629552841187
1773048889877945900,1.59394580078125,11.978469848632812,0.14656038582324982,0.32721850275993347
1773048889887924700,1.6039248046875,6.711269378662109,1.3968101739883423,0.4707878530025482
1773048889897899300,1.613899169921875,14.018351554870605,2.028515338897705,1.7784653902053833
1773048889907878000,1.6238779296875,6.926623344421387,0.2183450609445572,0.4325026869773865
1773048889917814000,1.63381396484375,5.983253002166748,0.1944168359041214,1.074377417564392
1773048889927788300,1.643788330078125,16.541582107543945,-0.2315055876970291,0.18364913761615753
1773048889937728500,1.653728515625,6.663413047790527,0.7932206988334656,0.5527420043945312
1773048889947699500,1.663699462890625,11.36052417755127,2.224726915359497,2.05603289604187
1773048889957565700,1.673565673828125,10.378868103027344,0.5252245664596558,1.25144624710083
1773048889967526000,1.68352587890625,5.43709135055542,0.23748764395713806,0.5240281820297241
1773048889977518800,1.693518798828125,13.725829124450684,-0.025722842663526535,0.15493527054786682
1773048889987482600,1.703482666015625,8.96650505065918,0.6831508874893188,0.1453639715909958
1773048889997472300,1.71347216796875,9.143573760986328,1.7365909814834595,1.7880367040634155
1773048890007438300,1.723438232421875,11.61416244506836,0.5970092415809631,1.0121639966964722
1773048890017386800,1.73338671875,7.505686283111572,0.36729827523231506,0.7202396392822266
1773048890027351000,1.74335107421875,10.622936248779297,0.9224331378936768,0.42771705985069275
1773048890037262600,1.7532626953125,10.254441261291504,1.1377872228622437,1.3232308626174927
1773048890047221800,1.7632216796875,9.129216194152832,0.6496513485908508,0.9595218896865845
1773048890057177000,1.773177001953125,11.121241569519043,-0.542572557926178,0.16929219663143158
1773048890067136000,1.783135986328125,7.946564197540283,0.7357929348945618,0.1788634955883026
1773048890077091800,1.793091796875,10.72403335571289,1.44945228099823,0.9547362327575684
1773048890087050200,1.80305029296875,9.866804122924805,1.425524115562439,1.5726827383041382
1773048890097006300,1.81300634765625,8.688937187194824,0.2763710021972656,1.557727575302124
1773048890106964500,1.822964599609375,10.676176071166992,-0.25064817070961,0.355932354927063
1773048890116920800,1.8329208984375,8.219346046447754,1.1377872228622437,0.47557350993156433
1773048890126879000,1.84287890625,11.240882873535156,1.5882359743118286,0.7872386574745178
1773048890136796700,1.852796630859375,10.436295509338379,0.5970092415809631,0.389431893825531
1773048890146750700,1.862750732421875,9.000003814697266,-0.2554338276386261,1.1892328262329102
1773048890156634400,1.87263427734375,9.833304405212402,0.8697910308837891,1.3615161180496216
1773048890166581200,1.882581298828125,10.01037311553955,1.5690934658050537,0.7585247755050659
1773048890176587000,1.8925869140625,10.838888168334961,1.3872389793395996,0.5288137793540955
1773048890186540000,1.9025400390625,8.947361946105957,0.13220344483852386,1.4859428405761719
1773048890196501500,1.91250146484375,8.770293235778809,-0.1740778535604477,1.098305583000183
1773048890206455300,1.922455322265625,9.574281692504883,0.989432156085968,-0.01734796352684498
1773048890216454700,1.93245458984375,9.795019149780273,1.5930216312408447,0.729810893535614
1773048890226413000,1.9424130859375,10.97767162322998,0.9655039310455322,1.960319995880127
1773048890236593000,1.952593017578125,10.426724433898926,-0.45643091201782227,0.8925228714942932
1773048890246773000,1.96277294921875,8.530412673950195,0.6209374666213989,0.48514479398727417
1773048890256952800,1.972952880859375,9.627521514892578,1.693520188331604,1.2897313833236694
1773048890267058200,1.98305810546875,10.86281681060791,1.3441680669784546,-0.01734796352684498
1773048890277014000,1.993013916015625,9.69930648803711,0.022133609279990196,0.7824530005455017
1773048890287007500,2.003007568359375,8.353343963623047,-0.2602194547653198,1.246660590171814
1773048890296967400,2.012967529296875,8.3629150390625,1.3154542446136475,0.389431893825531
1773048890306957600,2.02295751953125,11.36052417755127,1.6456637382507324,0.763310432434082
1773048890316921000,2.032921142578125,11.255239486694336,0.6927221417427063,0.8207381963729858
1773048890326908400,2.042908447265625,8.770293235778809,-0.16450655460357666,0.01615155301988125
1773048890336874500,2.05287451171875,8.023134231567383,1.2143574953079224,0.8207381963729858
1773048890346859800,2.06285986328125,11.671590805053711,1.669592022895813,0.6867401003837585
1773048890356828200,2.072828125,11.23609733581543,0.5730810165405273,1.0169496536254883
1773048890366811600,2.082811767578125,9.100502967834473,-0.7339983582496643,1.160519003868103
1773048890376781600,2.092781494140625,7.645068168640137,0.778863787651062,0.4612165689468384
1773048890386763800,2.102763671875,10.230513572692871,1.6456637382507324,0.4133601188659668
1773048890396735000,2.11273486328125,12.433106422424316,1.4111671447753906,1.007378339767456
1773048890406716200,2.122716064453125,9.023932456970215,-0.47557350993156433,1.1222338676452637
1773048890416688400,2.1326884765625,7.094120979309082,0.3481557071208954,0.5383850932121277
1773048890426668800,2.142668701171875,10.17308521270752,1.602592945098877,0.7920243144035339
1773048890436641800,2.152641845703125,13.051053047180176,1.3441680669784546,1.3280165195465088
1773048890446621400,2.162621337890625,10.484152793884277,-0.48035913705825806,0.9260223507881165
1773048890456595500,2.172595458984375,7.33340311050415,0.3290131092071533,0.08793623000383377
1773048890466574300,2.18257421875,9.17707347869873,1.602592945098877,0.9643075466156006
1773048890476548900,2.192548828125,12.658031463623047,1.44945228099823,1.399801254272461
1773048890486527200,2.20252734375,10.743175506591797,-0.4085744619369507,0.8446664214134216
1773048890496502300,2.212502197265625,7.323832035064697,-0.09272187948226929,0.7920243144035339
1773048890506480400,2.22248046875,8.291130065917969,1.4159528017044067,0.6293123364448547
1773048890516455700,2.23245556640625,12.155538558959961,1.7940187454223633,1.0552347898483276
1773048890526433500,2.24243359375,11.796615600585938,0.2763710021972656,0.8877372145652771
1773048890536409000,2.2524091796875,7.242475986480713,-0.29371899366378784,1.428515076637268
1773048890546387000,2.262386962890625,8.042277336120605,1.1377872228622437,0.37028929591178894
1773048890556362500,2.272362548828125,11.504093170166016,1.669592022895813,1.0265209674835205
1773048890566340000,2.282340087890625,12.854841232299805,0.1417747437953949,1.0169496536254883
1773048890576316200,2.292316162109375,7.9657063484191895,-0.12143574655056,0.8063812255859375
1773048890586293500,2.30229345703125,6.40438985824585,1.1808580160140991,0.638883650302887
1773048890596269600,2.31226953125,11.499307632446289,1.7461622953414917,0.916451096534729
1773048890606246700,2.32224658203125,13.204193115234375,0.17527425289154053,1.6013965606689453
1773048890616223000,2.332222900390625,7.755138397216797,-0.50907301902771,0.9212366938591003
1773048890626200000,2.342199951171875,5.748756408691406,0.9559326171875,0.05922235921025276
1773048890636176400,2.35217626953125,11.983255386352539,1.851446509361267,0.7728816866874695
1773048890646153500,2.362153564453125,14.276776313781738,0.5682953596115112,0.7776673436164856
1773048890656129800,2.3721298828125,6.912266254425049,-0.13579268753528595,1.098305583000183
1773048890666107000,2.38210693359375,5.916254043579102,1.0660024881362915,0.916451096534729
1773048890676083200,2.392083251953125,11.93061351776123,1.6839489936828613,0.5138586759567261
1773048890686060300,2.402060302734375,13.596616744995117,0.6017948985099792,1.0791629552841187
1773048890696036600,2.41203662109375,7.908278942108154,0.06999006122350693,1.0504491329193115
1773048890706013700,2.422013671875,5.959324836730957,1.1042876243591309,0.35114672780036926
1773048890715990300,2.431990234375,11.240882873535156,1.583450436592102,1.4189438819885254
1773048890725967000,2.441967041015625,12.605389595031738,-0.0687936544418335,0.9308080077171326
1773048890735943700,2.451943603515625,8.070990562438965,0.4534398913383484,0.9882357716560364
1773048890745920500,2.46192041015625,7.266404151916504,1.2861422300338745,0.6197410821914673
1773048890755800300,2.47180029296875,12.141181945800781,1.0516455173492432,-0.0029910283628851175
1773048890765660700,2.48166064453125,12.011969566345215,-0.05922235921025276,1.1700903177261353
1773048890775850200,2.491850341796875,7.960920810699463,0.7549355626106262,1.9986051321029663
1773048890785831400,2.50183154296875,8.257631301879883,1.0612168312072754,0.01615155301988125
1773048890795804000,2.511803955078125,10.814960479736328,0.6161518096923828,1.1700903177261353
1773048890805784000,2.5217841796875,11.355737686157227,0.3290131092071533,0.8877372145652771
1773048890815757300,2.53175732421875,8.295916557312012,0.7836494445800781,0.8446664214134216
1773048890825736700,2.54173681640625,8.770293235778809,0.6017948985099792,1.1940184831619263
1773048890835749600,2.55174951171875,10.996814727783203,0.5874379873275757,0.2602194547653198
1773048890845732400,2.561732421875,10.273584365844727,0.19920247793197632,1.074377417564392
1773048890855664400,2.571664306640625,9.5264253616333,0.28594231605529785,1.3806586265563965
1773048890865642000,2.58164208984375,8.84207820892334,0.8889335989952087,-0.44327038526535034
1773048890875617800,2.59161767578125,10.982458114624023,0.3720839321613312,0.4660021960735321
1773048890885595100,2.60159521484375,11.21216869354248,-0.0687936544418335,1.960319995880127
1773048890895571200,2.6115712890625,7.812565803527832,0.47258245944976807,0.6293123364448547
1773048890905548500,2.621548583984375,8.042277336120605,0.5252245664596558,0.37028929591178894
1773048890915524600,2.631524658203125,11.777473449707031,-0.07836493849754333,0.6532405614852905
1773048890925502000,2.641501953125,10.139585494995117,0.046061836183071136,1.1078768968582153
1773048890935478000,2.65147802734375,8.439485549926758,0.6975077986717224,0.11665010452270508
1773048890945455000,2.661455078125,8.889934539794922,0.046061836183071136,0.9595218896865845
1773048890955431400,2.671431396484375,11.787044525146484,-0.6861419081687927,1.1892328262329102
1773048890965408500,2.681408447265625,9.651450157165527,0.20877377688884735,0.5288137793540955
1773048890975385000,2.691385009765625,8.799007415771484,0.2667997181415558,1.2945170402526855
1773048890985362000,2.70136181640625,10.7766752243042,-0.3415754437446594,0.7824530005455017
1773048890995242000,2.711241943359375,8.894720077514648,0.22791635990142822,-0.20877377688884735
1773048891005102000,2.72110205078125,9.325428009033203,0.14656038582324982,2.4675984382629395
1773048891015291600,2.731291748046875,10.177870750427246,-0.030508488416671753,0.3415754437446594
1773048891025272800,2.74127294921875,8.918647766113281,0.12741780281066895,0.729810893535614
1773048891035245300,2.751245361328125,10.757532119750977,-0.32243284583091736,1.222732424736023
1773048891045225500,2.7612255859375,9.497711181640625,0.15134602785110474,-0.022133609279990196
1773048891055105500,2.77110546875,8.37727165222168,0.07477571070194244,1.5966109037399292
1773048891064964900,2.78096484375,11.389237403869629,-0.3607180118560791,0.8398807644844055
1773048891075152000,2.79115185546875,10.211370468139648,-0.15493527054786682,0.50907301902771
1773048891085135000,2.801135009765625,8.990432739257812,0.06041877344250679,1.898106575012207
1773048891095105500,2.81110546875,9.66102123260498,0.21355941891670227,0.16450655460357666
1773048891105087500,2.82108740234375,9.900303840637207,-0.15972091257572174,0.10707881301641464
1773048891115059000,2.831058837890625,9.622735977172852,0.13220344483852386,1.6109678745269775
1773048891125039900,2.841039794921875,8.315058708190918,0.10827522724866867,1.5194423198699951
1773048891135012400,2.851012451171875,10.671390533447266,-0.19800607860088348,-0.06520441919565201
1773048891144992500,2.860992431640625,10.364511489868164,0.13698910176753998,0.3320041298866272
1773048891154872600,2.87087255859375,9.2919282913208,0.26201409101486206,1.6444673538208008
1773048891164732000,2.88073193359375,9.675378799438477,0.3577269911766052,0.29850462079048157
1773048891174919200,2.890919189453125,10.594222068786621,-0.15493527054786682,0.5138586759567261
1773048891184902400,2.90090234375,10.163514137268066,0.5491527915000916,1.5242279767990112
1773048891194872800,2.910872802734375,8.061419486999512,0.5108676552772522,0.4372883439064026
1773048891204854500,2.9208544921875,11.188240051269531,-0.15493527054786682,-0.24227328598499298
1773048891214826200,2.930826171875,10.13479995727539,0.6305087804794312,0.6532405614852905
1773048891224807000,2.940806884765625,8.248059272766113,0.8219345808029175,2.6739792823791504
1773048891234779600,2.950779541015625,10.905887603759766,0.20877377688884735,0.049651071429252625
1773048891244759800,2.960759765625,9.77109146118164,0.5108676552772522,-0.5054838061332703
1773048891254733000,2.970733154296875,9.713663101196289,0.9990034699440002,1.7688941955566406
1773048891264712400,2.98071240234375,10.613365173339844,0.5970092415809631,0.7441678643226624
1773048891274686700,2.990686767578125,10.747961044311523,0.3720839321613312,0.672383189201355
1773048891284665300,3.000665283203125,8.660223007202148,0.8793623447418213,1.098305583000183
1773048891294640000,3.01064013671875,9.46899700164795,1.3489537239074707,0.13100704550743103
1773048891304618500,3.020618408203125,12.495320320129395,0.6831508874893188,1.591825246810913
1773048891314593500,3.030593505859375,8.722436904907227,0.7692924737930298,1.0504491329193115
1773048891324571600,3.040571533203125,8.104490280151367,1.200000524520874,-0.09870393574237823
1773048891334547000,3.050546875,11.480164527893066,1.4733805656433105,2.1469600200653076
1773048891344524800,3.06052490234375,10.800602912902832,0.8793623447418213,0.11186445504426956
1773048891354500600,3.07050048828125,6.5868425369262695,0.8554341197013855,-0.2566302418708801
1773048891364478000,3.08047802734375,11.432308197021484,1.5308083295822144,2.5489542484283447
1773048891374454000,3.0904541015625,11.3509521484375,0.836291491985321,0.729810893535614
1773048891384431400,3.100431396484375,7.309474945068359,0.9559326171875,-0.18005990982055664
1773048891394407400,3.110407470703125,10.38365364074707,1.4685949087142944,1.9938194751739502
1773048891404384500,3.120384521484375,12.591032981872559,-0.11186445504426956,1.9746768474578857
1773048891414360800,3.13036083984375,7.611568927764893,0.6161518096923828,0.6675975322723389
1773048891424338000,3.140337890625,9.186644554138184,1.1808580160140991,0.7250252366065979
1773048891434159000,3.1501591796875,12.3278226852417,0.33379876613616943,1.3615161180496216
1773048891444120600,3.16012060546875,7.443472862243652,0.4821537733078003,1.007378339767456
1773048891454267600,3.170267578125,8.176275253295898,1.176072359085083,1.587039589881897
1773048891464247800,3.180247802734375,10.805388450622559,1.1234302520751953,0.5814558863639832
1773048891474221000,3.190220947265625,9.157930374145508,0.5108676552772522,1.3758729696273804
1773048891484200700,3.20020068359375,10.49372386932373,-0.16929219663143158,1.2562319040298462
1773048891494174500,3.210174560546875,9.574281692504883,0.28594231605529785,-0.6879364848136902
1773048891504153600,3.220153564453125,9.234500885009766,0.33858439326286316,2.5010979175567627
1773048891514033700,3.23003369140625,11.403594970703125,0.13220344483852386,0.7680960893630981
1773048891523893200,3.239893310546875,9.77109146118164,0.03170489892363548,-0.8506484627723694
1773048891534081300,3.250081298828125,8.372486114501953,0.8410771489143372,0.8111668825149536
1773048891544063700,3.260063720703125,10.417153358459473,0.14656038582324982,2.022533416748047
1773048891554034700,3.27003466796875,10.762317657470703,0.23270200192928314,-0.09870393574237823
1773048891564016000,3.28001611328125,6.629913330078125,0.4534398913383484,0.605384111404419
1773048891573988400,3.28998828125,10.848459243774414,0.9415757060050964,1.2849457263946533
1773048891583968500,3.299968505859375,11.854043006896973,-0.20757736265659332,0.8973084688186646
1773048891593941800,3.309941650390625,9.411569595336914,0.5970092415809631,0.054436713457107544
1773048891603921400,3.31992138671875,9.670592308044434,0.8937192559242249,1.0791629552841187
1773048891613801500,3.329801513671875,12.55274772644043,0.0891326442360878,-0.14656038582324982
1773048891623661000,3.3396611328125,7.999206066131592,0.711864709854126,1.2945170402526855
1773048891633848600,3.3498486328125,10.110872268676758,0.7932206988334656,0.3415754437446594
1773048891643831300,3.359831298828125,9.215357780456543,0.8027920126914978,-0.10348957777023315
1773048891653802000,3.369802001953125,9.919445991516113,1.2765709161758423,1.9938194751739502
1773048891663783700,3.37978369140625,10.278369903564453,1.0325030088424683,0.7393822073936462
1773048891673755400,3.38975537109375,8.468199729919434,0.9750752449035645,-0.18963119387626648
1773048891683736000,3.399736083984375,10.311869621276855,1.3680963516235352,1.9316060543060303
1773048891693709000,3.409708984375,11.676376342773438,1.113858938217163,-0.1704886108636856
1773048891703688700,3.419688720703125,8.051848411560059,1.2813565731048584,1.093519926071167
1773048891713662500,3.429662353515625,12.299108505249023,1.3058829307556152,1.0456634759902954
1773048891723641600,3.4396416015625,8.574081420898438,1.0707881450653076,-0.14656038582324982
1773048891733615900,3.449615966796875,9.392427444458008,1.9232312440872192,2.946761131286621
1773048891743594500,3.459594482421875,11.983255386352539,1.4350954294204712,0.10229317098855972
1773048891753569300,3.4695693359375,6.193821430206299,0.865005373954773,-0.3044866919517517
1773048891763547600,3.479547607421875,11.441879272460938,1.8705891370773315,2.338385820388794
1773048891773522700,3.489522705078125,9.756733894348145,1.2382856607437134,0.04486542567610741
1773048891783500800,3.499500732421875,9.076574325561523,1.262213945388794,-0.15134602785110474
1773048891793380900,3.509380859375,10.627721786499023,2.004587173461914,2.7696921825408936
1773048891803240700,3.51924072265625,9.704092025756836,1.2765709161758423,0.1501496136188507
1773048891813429500,3.529429443359375,10.28315544128418,1.2287144660949707,-0.357128769159317
1773048891823411500,3.539411376953125,9.33021354675293,1.5690934658050537,0.1453639715909958
1773048891833383000,3.5493828125,9.842875480651855,1.3680963516235352,0.7489534616470337
1773048891843363800,3.55936376953125,9.559925079345703,1.4015958309173584,2.1756739616394043
1773048891853336600,3.569336669921875,8.166703224182129,1.1425727605819702,0.2602194547653198
1773048891863316500,3.57931640625,11.283953666687012,1.8801604509353638,1.1270195245742798
1773048891873290000,3.5892900390625,8.674580574035645,1.540379524230957,0.11665010452270508
1773048891883269400,3.599269287109375,8.894720077514648,1.109073281288147,-0.09391828626394272
1773048891893149200,3.609149169921875,12.65324592590332,1.755733609199524,1.965105652809143
1773048891903009000,3.619009033203125,8.425128936767578,1.1665010452270508,0.8159525394439697
1773048891913196800,3.62919677734375,9.991230964660645,1.7030915021896362,-0.4336991012096405
1773048891923179500,3.639179443359375,10.211370468139648,1.6839489936828613,2.108675003051758
1773048891933150200,3.649150146484375,10.378868103027344,1.6360924243927002,0.605384111404419
1773048891943131600,3.659131591796875,8.880363464355469,1.5355939865112305,1.9076778888702393
1773048891953104000,3.669103759765625,8.516056060791016,1.085145115852356,-0.30927231907844543
1773048891963084300,3.679084228515625,11.312666893005371,1.669592022895813,0.07357929646968842
1773048891973057300,3.689057373046875,8.458627700805664,1.5212370157241821,2.9276185035705566
1773048891983037000,3.699036865234375,9.478569030761719,1.339382529258728,-0.026919255033135414
1773048891993010700,3.7090107421875,10.584650993347168,1.5595221519470215,0.5335994362831116
1773048892002989800,3.71898974609375,10.599007606506348,1.6456637382507324,1.8454644680023193
1773048892012964000,3.728964111328125,8.286344528198242,1.1569297313690186,-0.2949153780937195
1773048892022942700,3.738942626953125,9.651450157165527,1.454237937927246,0.9355936646461487
1773048892032917500,3.74891748046875,10.426724433898926,1.5355939865112305,1.0360921621322632
1773048892042896000,3.758895751953125,8.923434257507324,1.5355939865112305,1.5146567821502686
1773048892052871200,3.76887109375,10.613365173339844,1.2239288091659546,0.12143574655056
1773048892062849000,3.77884912109375,9.550353050231934,0.5252245664596558,-0.5491527915000916
1773048892072824600,3.788824462890625,9.153144836425781,1.3680963516235352,2.017747640609741
1773048892082802200,3.79880224609375,10.512866020202637,1.4638092517852783,1.6253247261047363
1773048892092778000,3.808778076171875,11.69133186340332,1.1521440744400024,-0.836291491985321
1773048892102755600,3.818755615234375,8.372486114501953,1.0372886657714844,0.389431893825531
1773048892112731400,3.8287314453125,9.459425926208496,1.3441680669784546,1.332802176475525
1773048892122708700,3.838708740234375,11.595020294189453,1.7892330884933472,1.9172492027282715
1773048892132684800,3.848684814453125,10.589436531066895,1.1473584175109863,-0.3762713670730591
1773048892142662100,3.858662109375,7.515257835388184,0.865005373954773,0.049651071429252625
1773048892152638200,3.86863818359375,10.719246864318848,1.4829518795013428,2.654836654663086
1773048892162615600,3.878615478515625,10.64686393737793,1.5212370157241821,-0.6448656916618347
1773048892172591600,3.888591552734375,9.689735412597656,1.3872389793395996,0.0687936544418335
1773048892182568700,3.898568603515625,9.747162818908691,1.4973087310791016,1.8454644680023193
1773048892192545300,3.908545166015625,9.68494987487793,1.784447431564331,1.3184453248977661
1773048892202522000,3.918522216796875,10.800602912902832,1.4159528017044067,0.12622138857841492
1773048892212498700,3.928498779296875,8.688937187194824,1.4733805656433105,1.0600204467773438
1773048892222475500,3.9384755859375,11.1978120803833,1.9710876941680908,1.2945170402526855
1773048892232452000,3.9484521484375,9.167501449584961,1.7174484729766846,1.2179467678070068
1773048892242429000,3.958428955078125,11.384451866149902,1.4685949087142944,0.14057832956314087
1773048892252405500,3.968405517578125,7.779066562652588,1.4015958309173584,0.9499505758285522
1773048892262382300,3.97838232421875,10.469795227050781,1.6839489936828613,1.3567304611206055
1773048892272359000,3.98835888671875,10.599007606506348,1.3968101739883423,-0.33798620104789734
1773048892282335700,3.998335693359375,9.981659889221191,1.4973087310791016,0.01136590726673603
1773048892292312300,4.008312255859375,8.727222442626953,1.2717852592468262,1.074377417564392
1773048892302289200,4.0182890625,9.613164901733398,1.7413766384124756,1.5481562614440918
1773048892312265700,4.028265625,11.12602710723877,1.4877375364303589,-0.49591249227523804
1773048892322242600,4.03824267578125,8.851649284362793,1.113858938217163,0.13579268753528595
1773048892332219400,4.048219482421875,9.737591743469238,1.358525037765503,0.32721850275993347
1773048892342196000,4.058196044921875,9.641879081726074,1.5068800449371338,2.300100803375244
1773048892352172800,4.0681728515625,9.68494987487793,2.3401806354522705,1.721037745475769
1773048892362149400,4.0781494140625,10.441082000732422,1.339382529258728,-0.711864709854126
1773048892372126200,4.088126220703125,8.885149002075195,1.2335001230239868,0.2793620526790619
1773048892382102800,4.098102783203125,9.282357215881348,1.4398809671401978,1.9746768474578857
1773048892391982800,4.10798291015625,10.939387321472168,1.5355939865112305,0.6532405614852905
1773048892401843200,4.11784326171875,9.862018585205078,1.908874273300171,0.8973084688186646
1773048892412032800,4.12803271484375,9.282357215881348,1.6456637382507324,0.2554338276386261
1773048892422014000,4.138013916015625,9.876375198364258,1.3154542446136475,0.9403793215751648
1773048892431986400,4.147986328125,9.608379364013672,1.4925230741500854,2.1613171100616455
1773048892441966600,4.157966552734375,9.306285858154297,1.4015958309173584,-0.2183450609445572
1773048892451939800,4.16793994140625,10.436295509338379,1.8849459886550903,-0.3523431420326233
1773048892461919200,4.177919189453125,8.96650505065918,1.2430713176727295,0.18843477964401245
1773048892471893200,4.187893310546875,8.539983749389648,1.339382529258728,1.184447169303894
1773048892481872100,4.1978720703125,12.40439224243164,3.3643085956573486,1.2945170402526855
1773048892491752200,4.207752197265625,8.688937187194824,1.2287144660949707,1.0887342691421509
1773048892501612000,4.217612060546875,10.29751205444336,1.2574282884597778,0.14057832956314087
1773048892511783400,4.227783447265625,10.063015937805176,1.334596872329712,0.5335994362831116
1773048892531754200,4.247754150390625,9.445069313049316,3.6807594299316406,1.1461620330810547
1773048892541716700,4.257716796875,8.11406135559082,0.3577269911766052,2.669193744659424
1773048892551707400,4.267707275390625,9.665806770324707,2.641676187515259,-2.1481566429138184
1773048892561673000,4.2776728515625,12.366106986999512,1.1330015659332275,-0.41934216022491455
1773048892571660800,4.287660888671875,10.264012336730957,1.578664779663086,0.8398807644844055
1773048892581628700,4.297628662109375,9.181859016418457,2.152942180633545,0.8877372145652771
1773048892591614200,4.3076142578125,8.578866958618164,1.2765709161758423,3.214757204055786
1773048892601583900,4.317583984375,10.340582847595215,1.4973087310791016,-0.20877377688884735
1773048892611567600,4.327567626953125,10.97767162322998,-0.025722842663526535,-0.4576273262500763
1773048892621538600,4.33753857421875,9.588638305664062,-0.6909275650978088,2.4436700344085693
1773048892631521000,4.34752099609375,8.228917121887207,-0.19800607860088348,0.7585247755050659
1773048892641493200,4.3574931640625,11.12602710723877,-0.5808576941490173,0.729810893535614
1773048892651474400,4.367474365234375,8.583653450012207,-0.6717849373817444,1.9172492027282715
1773048892661447400,4.377447509765625,8.252845764160156,-0.32721850275993347,-0.20398813486099243
1773048892671427800,4.387427734375,10.335797309875488,-0.6191428303718567,0.7824530005455017
1773048892681401600,4.397401611328125,9.047860145568848,-0.5473581552505493,3.1764719486236572
1773048892691381200,4.40738134765625,8.751151084899902,-0.3607180118560791,0.8685946464538574
1773048892701355500,4.41735546875,9.780662536621094,-0.29850462079048157,-0.9415757060050964
1773048892711334700,4.427334716796875,9.497711181640625,-0.5473581552505493,0.3655036687850952
1773048892721309400,4.437309326171875,9.272786140441895,-0.5473581552505493,0.2315055876970291
1773048892731288000,4.4472880859375,8.779864311218262,-0.542572557926178,1.9028922319412231
1773048892741263400,4.457263427734375,13.036696434020996,-0.5377869009971619,0.8638089895248413
1773048892751241500,4.467241455078125,6.6107707023620605,-0.16929219663143158,-0.8267202377319336
1773048892761217000,4.477217041015625,9.632308006286621,-0.5665007829666138,0.2315055876970291
1773048892771195000,4.48719482421875,10.517651557922363,-0.8590233325958252,2.410170555114746
1773048892781170700,4.497170654296875,11.394022941589355,-0.4899304509162903,0.7537391185760498
1773048892791148300,4.507148193359375,6.692126750946045,-0.26500511169433594,-0.6640082597732544
1773048892801124400,4.517124267578125,10.503294944763184,-0.5617151260375977,1.1174482107162476
1773048892811004400,4.52700439453125,11.039885520935059,-0.7674978375434875,1.069591760635376
1773048892820864800,4.53686474609375,9.632308006286621,-0.6622136831283569,1.3758729696273804
1773048892831055000,4.54705517578125,10.431509971618652,-0.5569294691085815,0.34636107087135315
1773048892841035500,4.557035400390625,8.81814956665039,-0.9068797826766968,1.3663017749786377
1773048892851008500,4.567008544921875,11.068599700927734,-0.633499801158905,0.16450655460357666
1773048892860988400,4.576988525390625,9.272786140441895,-0.4372883439064026,-0.14656038582324982
1773048892870962000,4.5869619140625,10.120443344116211,-0.6191428303718567,0.7010970115661621
1773048892880941000,4.596941162109375,9.929018020629883,-0.9499505758285522,1.5822539329528809
1773048892890915600,4.60691552734375,10.661819458007812,-0.5856433510780334,0.6628118753433228
1773048892900894200,4.616894287109375,10.278369903564453,-0.7579265832901001,0.638883650302887
1773048892910869000,4.626868896484375,9.464211463928223,-0.31764721870422363,0.8542376756668091
1773048892920847000,4.63684716796875,10.838888168334961,-0.7435696125030518,1.7258232831954956
1773048892930822400,4.646822509765625,10.25922679901123,-0.6239284873008728,0.8590233325958252
1773048892940800300,4.65680029296875,8.722436904907227,-0.5138586759567261,0.2745763957500458
1773048892950775800,4.66677587890625,11.169097900390625,-0.8255237936973572,1.835893154144287
1773048892960753700,4.676753662109375,9.430712699890137,-0.3320041298866272,0.4468596279621124
1773048892970729200,4.686729248046875,10.469795227050781,-0.600000262260437,0.16450655460357666
1773048892980706800,4.696706787109375,9.287142753601074,-0.5521438121795654,0.3607180118560791
1773048892990586600,4.706586669921875,9.632308006286621,-0.8590233325958252,2.18045973777771
1773048893000447000,4.716447021484375,10.9633150100708,-0.32721850275993347,-0.46719861030578613
1773048893010636000,4.726635986328125,10.024730682373047,-0.6765705943107605,1.9938194751739502
1773048893020617500,4.736617431640625,9.363713264465332,-0.6047859191894531,0.4707878530025482
1773048893030589400,4.74658935546875,7.127620220184326,-0.355932354927063,1.4763715267181396
1773048893040569900,4.75656982421875,12.744771957397461,-0.3798605799674988,0.39421752095222473
1773048893050542800,4.76654296875,9.588638305664062,-0.9116654396057129,1.0839486122131348
1773048893060522800,4.776522705078125,7.7216386795043945,-0.5138586759567261,0.8446664214134216
1773048893070496300,4.786496337890625,10.546365737915039,-0.7872386574745178,1.098305583000183
1773048893080475600,4.7964755859375,11.030314445495605,-0.4085744619369507,-0.3284149169921875
1773048893090355500,4.80635546875,8.62193775177002,-0.2793620526790619,0.03529413416981697
1773048893100215300,4.81621533203125,8.181060791015625,-0.633499801158905,2.1134605407714844
1773048893110403000,4.826403076171875,10.426724433898926,-0.633499801158905,0.21714866161346436
1773048893120385500,4.836385498046875,10.043872833251953,-0.5234299302101135,-0.15134602785110474
1773048893130356500,4.8463564453125,8.458627700805664,-0.50907301902771,2.5872395038604736
1773048893140338000,4.856337890625,11.22652530670166,-0.4660021960735321,0.0975075215101242
1773048893150310100,4.86631005859375,7.707281589508057,-0.5760720372200012,2.0608184337615967
1773048893160290600,4.87629052734375,11.1978120803833,-0.6430711150169373,0.4325026869773865
1773048893170263600,4.886263671875,8.84207820892334,-0.6478567123413086,0.7585247755050659
1773048893180243200,4.8962431640625,9.244071960449219,-0.5521438121795654,0.7728816866874695
1773048893190217000,4.906217041015625,9.881160736083984,-0.45164528489112854,-0.2757728099822998
1773048893200196000,4.916196044921875,10.139585494995117,-0.7004988193511963,1.4476577043533325
1773048893210076000,4.926075927734375,9.349356651306152,-0.4612165689468384,1.9555343389511108
1773048893219935700,4.935935791015625,9.253643035888672,-0.16450655460357666,-0.4911268353462219
1773048893230123800,4.946123779296875,8.92821979522705,-0.4420739710330963,0.04486542567610741
1773048893240106200,4.956106201171875,8.894720077514648,-0.7674978375434875,2.726621389389038
1773048893250077200,4.9660771484375,9.651450157165527,-0.4181457459926605,0.29850462079048157
1773048893260058400,4.976058349609375,12.141181945800781,-0.7387840151786804,1.0169496536254883
1773048893270030600,4.986030517578125,8.539983749389648,-0.7292127013206482,1.25144624710083
1773048893280011000,4.996010986328125,9.919445991516113,-0.3415754437446594,-0.4097708761692047
1773048893289984000,5.00598388671875,10.153943061828613,-0.4468596279621124,2.046461582183838
1773048893299963600,5.015963623046875,10.934600830078125,-0.7292127013206482,0.882951557636261
1773048893309937400,5.0259375,7.252047061920166,-0.12143574655056,-0.534795880317688
1773048893319916500,5.03591650390625,10.402796745300293,-0.4899304509162903,0.6245267391204834
1773048893329891000,5.04589111328125,10.14437198638916,-0.9116654396057129,1.591825246810913
1773048893339869400,5.055869384765625,9.397212982177734,-0.34636107087135315,1.1461620330810547
1773048893349844200,5.06584423828125,11.696117401123047,-0.4420739710330963,0.03529413416981697
1773048893359822600,5.075822509765625,8.410771369934082,-1.0360921621322632,2.2570300102233887
1773048893369798000,5.0857978515625,10.015159606933594,-0.5330012440681458,-0.1944168359041214
1773048893379775700,5.095775634765625,10.685748100280762,-0.1501496136188507,-0.28534409403800964
1773048893389751300,5.105751220703125,11.059027671813965,-0.7004988193511963,3.597608804702759
1773048893399729000,5.11572900390625,7.6737823486328125,-0.355932354927063,0.0687936544418335
1773048893409704700,5.12570458984375,10.182656288146973,-0.5521438121795654,0.01615155301988125
1773048893419682300,5.135682373046875,9.90987491607666,-0.633499801158905,1.5726827383041382
1773048893429658000,5.145658203125,10.72403335571289,-0.7579265832901001,2.572882652282715
1773048893439635500,5.155635498046875,9.09093189239502,-0.2267199456691742,-1.0803594589233398
1773048893449611500,5.165611572265625,8.84207820892334,-0.28893333673477173,0.45164528489112854
1773048893459588600,5.175588623046875,9.732806205749512,-0.32721850275993347,-0.13698910176753998
1773048893469565000,5.18556494140625,9.747162818908691,-0.8877372145652771,1.7928223609924316
1773048893479542000,5.1955419921875,9.641879081726074,-0.8542376756668091,1.5098711252212524
1773048893489518300,5.205518310546875,9.804591178894043,-0.47557350993156433,0.20757736265659332
1773048893499495400,5.215495361328125,8.453842163085938,-0.753140926361084,1.9316060543060303
1773048893509471700,5.2254716796875,9.397212982177734,-0.5712863802909851,0.1453639715909958
1773048893519448800,5.23544873046875,10.0343017578125,-0.5665007829666138,0.09272187948226929
1773048893529425200,5.245425048828125,8.684151649475098,-0.6574280261993408,1.9316060543060303
1773048893539402200,5.25540234375,9.751948356628418,-0.6717849373817444,0.7393822073936462
1773048893559355600,5.275355712890625,11.312666893005371,-0.6526423692703247,0.6436693072319031
1773048893569332200,5.285332275390625,8.712865829467773,-1.0504491329193115,1.989033818244934
1773048893579308800,5.295308837890625,9.459425926208496,-0.2602194547653198,-0.26620152592658997
1773048893589285400,5.305285400390625,11.169097900390625,-0.7052844762802124,1.3615161180496216
1773048893599262200,5.31526220703125,8.985647201538086,-0.7579265832901001,1.3184453248977661
1773048893609239000,5.325239013671875,8.334200859069824,0.1704886108636856,-0.7740781307220459
1773048893619215600,5.335215576171875,11.710474014282227,-1.007378339767456,3.6119658946990967
1773048893629192400,5.3451923828125,9.224929809570312,-0.5282155871391296,-0.31405797600746155
1773048893639169000,5.3551689453125,8.372486114501953,-0.26500511169433594,-0.592223584651947
1773048893649145900,5.365145751953125,10.982458114624023,-0.4325026869773865,0.5383850932121277
1773048893659122400,5.375122314453125,10.53200912475586,-0.8111668825149536,1.5146567821502686
1773048893669099300,5.385099365234375,8.425128936767578,-0.3846462368965149,-0.3044866919517517
1773048893679075800,5.395075927734375,9.550353050231934,-1.2562319040298462,4.469194412231445
1773048893689052700,5.405052734375,12.026326179504395,-0.6574280261993408,-0.1944168359041214
1773048893699029200,5.415029296875,10.04865837097168,-0.5234299302101135,-0.4911268353462219
1773048893709006000,5.425006103515625,7.980063438415527,-0.4899304509162903,0.6197410821914673
1773048893718982700,5.434982666015625,11.758330345153809,-1.1270195245742798,3.497110366821289
1773048893728959500,5.44495947265625,10.838888168334961,-0.6526423692703247,-0.2805584669113159
1773048893738936000,5.45493603515625,6.783053874969482,-0.3798605799674988,-0.4384847581386566
1773048893748913000,5.464912841796875,10.359725952148438,-0.7872386574745178,2.4675984382629395
1773048893758889500,5.474889404296875,12.55274772644043,-0.9451649188995361,0.9930213689804077
1773048893768866300,5.4848662109375,7.524828910827637,-0.39900317788124084,-0.6017948985099792
1773048893778843000,5.4948427734375,8.042277336120605,-0.3607180118560791,0.0975075215101242
1773048893788819700,5.50481982421875,12.418749809265137,-1.1509476900100708,3.0041887760162354
1773048893798796500,5.514796630859375,10.685748100280762,-0.542572557926178,-0.3475574851036072
1773048893808773000,5.524773193359375,7.6977105140686035,-0.3080759048461914,-0.24227328598499298
1773048893828726500,5.5447265625,9.004789352416992,-0.4707878530025482,1.3758729696273804
1773048893838703400,5.554703369140625,10.326226234436035,-0.633499801158905,0.9212366938591003
1773048893848680000,5.564679931640625,8.181060791015625,-0.3367897868156433,-0.47676992416381836
1773048893858656800,5.57465673828125,9.756733894348145,-0.5665007829666138,0.0687936544418335
1773048893868633300,5.58463330078125,10.043872833251953,-0.9212366938591003,1.654038667678833
1773048893878610200,5.594610107421875,10.197013854980469,-0.3367897868156433,2.328814744949341
1773048893898562800,5.614562744140625,5.84446907043457,-0.3846462368965149,-0.3236292600631714
1773048893908563200,5.624563232421875,9.45464038848877,-0.5904290080070496,0.9643075466156006
1773048893918516200,5.63451611328125,13.898710250854492,-1.0887342691421509,1.7688941955566406
1773048893928512000,5.644511962890625,9.435498237609863,-0.5904290080070496,-0.04127619042992592
1773048893938470000,5.654469970703125,6.208178520202637,-0.6526423692703247,2.472383975982666
1773048893948461600,5.664461669921875,11.873186111450195,-0.5234299302101135,0.14057832956314087
1773048893958423300,5.67442333984375,8.200202941894531,-0.4707878530025482,-0.6209374666213989
1773048893968412200,5.684412109375,8.84207820892334,-0.4181457459926605,-0.11306086927652359
1773048893978377000,5.694376953125,11.906685829162598,-0.7387840151786804,0.5862415432929993
1773048893988363300,5.70436328125,7.716853141784668,-1.0217353105545044,2.2235305309295654
1773048893998330400,5.714330322265625,10.106086730957031,-0.6382854580879211,0.16929219663143158
1773048894008315000,5.72431494140625,10.733604431152344,-0.5186443328857422,-0.6209374666213989
1773048894018283800,5.73428369140625,11.283953666687012,-0.719641387462616,1.8167506456375122
1773048894028266800,5.744266845703125,6.940980434417725,-0.6813562512397766,2.0751755237579346
1773048894038237200,5.7542373046875,7.8795647621154785,0.0077766734175384045,-0.9846464991569519
1773048894048219000,5.764218994140625,12.52881908416748,-0.45164528489112854,0.3415754437446594
1773048894058152000,5.77415185546875,8.338987350463867,-0.542572557926178,-0.2997010350227356
1773048894068128800,5.784128662109375,7.443472862243652,-0.3846462368965149,0.19322042167186737
1773048894078008600,5.794008544921875,13.204193115234375,-1.1030912399291992,3.9667017459869385
1773048894087888600,5.803888671875,10.992029190063477,-0.7052844762802124,0.35114672780036926
1773048894098058500,5.81405859375,7.151548862457275,-0.2602194547653198,-0.7836494445800781
1773048894108042200,5.824042236328125,9.761520385742188,-0.5617151260375977,0.355932354927063
1773048894118012000,5.834011962890625,12.504891395568848,-0.7920243144035339,0.0975075215101242
1773048894127994400,5.843994384765625,10.278369903564453,-0.6622136831283569,-0.05563312768936157
1773048894137965300,5.85396533203125,5.432305812835693,-0.16450655460357666,-0.5826523303985596
1773048894147946800,5.86394677734375,13.127623558044434,-0.7387840151786804,0.16929219663143158
1773048894157957600,5.87395751953125,10.01994514465332,-1.337587833404541,3.324826955795288
1773048894167942000,5.88394189453125,8.171489715576172,-1.1030912399291992,2.596810817718506
1773048894177911000,5.8939111328125,10.354940414428711,-0.45164528489112854,-0.9607182741165161
1773048894187894000,5.90389404296875,13.46740436553955,-0.8877372145652771,0.04486542567610741
1773048894197825800,5.91382568359375,6.955337047576904,-0.4420739710330963,0.3128615617752075
1773048894207803400,5.923803466796875,9.842875480651855,-0.9547362327575684,1.1700903177261353
1773048894217740300,5.933740234375,9.06700325012207,-0.5952146053314209,0.2315055876970291
1773048894227714000,5.943714111328125,10.7766752243042,-1.098305583000183,2.434098720550537
1773048894237654800,5.95365478515625,6.553342819213867,-0.31764721870422363,-0.06520441919565201
1773048894247625200,5.963625244140625,10.690533638000488,-1.275374412536621,2.4388844966888428
1773048894257531000,5.97353076171875,10.747961044311523,-0.9451649188995361,0.6915257573127747
1773048894267494700,5.98349462890625,11.130812644958496,-0.6813562512397766,-0.0029910283628851175
1773048894277484000,5.993484130859375,9.253643035888672,-0.4995017349720001,1.2275179624557495
1773048894287450400,6.003450439453125,11.56152057647705,-1.0504491329193115,1.7306089401245117
1773048894297398800,6.013398681640625,7.175477027893066,-0.47557350993156433,-0.44805604219436646
1773048894307363300,6.02336328125,7.074978351593018,-0.24586252868175507,-0.26141586899757385
1773048894317313300,6.033313232421875,12.294322967529297,-0.6622136831283569,0.29371899366378784
1773048894327276300,6.0432763671875,9.516854286193848,-0.6813562512397766,0.13579268753528595
1773048894337227800,6.053227783203125,7.1132636070251465,-0.542572557926178,-0.6975077986717224
1773048894347189800,6.063189697265625,12.854841232299805,-1.6390835046768188,3.425325632095337
1773048894357142500,6.073142578125,10.910673141479492,-1.1892328262329102,2.0129621028900146
1773048894367103500,6.083103515625,9.665806770324707,-0.6765705943107605,0.2027917206287384
1773048894377018400,6.093018310546875,8.429914474487305,-0.5377869009971619,-0.5300102233886719
1773048894386974700,6.102974609375,11.58544921875,-0.8446664214134216,0.020937198773026466
1773048894396932900,6.112932861328125,9.613164901733398,-0.7004988193511963,0.11186445504426956
1773048894406889500,6.122889404296875,7.817351341247559,-0.8781659007072449,1.0648061037063599
1773048894426804000,6.142803955078125,11.10209846496582,-0.7004988193511963,0.24107688665390015
1773048894436684800,6.152684814453125,8.669795036315918,-0.6622136831283569,0.4612165689468384
1773048894446634000,6.162634033203125,10.101301193237305,-1.222732424736023,1.567897081375122
1773048894456637700,6.1726376953125,13.098909378051758,-1.0169496536254883,0.01136590726673603
1773048894466592300,6.18259228515625,7.927421569824219,-0.5234299302101135,0.05922235921025276
1773048894476513800,6.192513671875,9.004789352416992,-0.7770691514015198,0.48514479398727417
1773048894486465000,6.202465087890625,12.059825897216797,-0.9212366938591003,0.01615155301988125
1773048894496466700,6.212466796875,9.143573760986328,-0.7339983582496643,0.06400800496339798
1773048894506423000,6.222423095703125,6.251249313354492,-0.7824530005455017,1.4715858697891235
1773048894516603000,6.232602783203125,11.72004508972168,-0.8207381963729858,-0.13220344483852386
1773048894526783000,6.242782958984375,8.415556907653809,-0.6095715761184692,0.01615155301988125
1773048894536962800,6.252962890625,9.795019149780273,-0.7483552694320679,0.12622138857841492
1773048894547068400,6.263068359375,8.324629783630371,-0.6574280261993408,-0.3762713670730591
1773048894557025800,6.27302587890625,11.681161880493164,-1.069591760635376,0.9020941257476807
1773048894567018000,6.28301806640625,11.049456596374512,-1.031306505203247,0.9499505758285522
1773048894576979500,6.2929794921875,8.937790870666504,-0.9068797826766968,1.3663017749786377
1773048894586968600,6.302968505859375,9.516854286193848,-1.2801600694656372,2.3096721172332764
1773048894596932900,6.312932861328125,10.331011772155762,-0.5521438121795654,-0.9990034699440002
1773048894606919400,6.32291943359375,7.64028263092041,-0.4660021960735321,-0.3523431420326233
1773048894616886300,6.33288623046875,7.573283672332764,-0.6095715761184692,0.14057832956314087
1773048894626871000,6.34287109375,12.52881908416748,-0.9786644577980042,-0.26620152592658997
1773048894636839700,6.352839599609375,6.577271461486816,-0.50907301902771,-0.21355941891670227
1773048894646823000,6.362822998046875,11.638091087341309,-0.882951557636261,0.1453639715909958
1773048894656793300,6.37279345703125,9.689735412597656,-0.7483552694320679,0.2027917206287384
1773048894666775000,6.382775146484375,10.881958961486816,-0.7968099117279053,0.47557350993156433
1773048894676746800,6.392746826171875,7.8317084312438965,-0.6478567123413086,0.13100704550743103
1773048894686727400,6.4027275390625,9.201001167297363,-0.7627122402191162,-0.6831508874893188
1773048894696700200,6.4127001953125,11.293524742126465,-0.8638089895248413,0.3128615617752075
1773048894706680000,6.42268017578125,9.55513858795166,-0.719641387462616,0.5910272002220154
1773048894716653600,6.432653564453125,8.631509780883789,-1.155733346939087,2.5776681900024414
1773048894726633000,6.442633056640625,10.110872268676758,-1.184447169303894,1.6348960399627686
1773048894736607000,6.45260693359375,11.149955749511719,-1.1078768968582153,0.7585247755050659
1773048894746585900,6.4625859375,6.582056999206543,-0.5138586759567261,-0.3236292600631714
1773048894756560400,6.472560302734375,9.847661972045898,-0.8542376756668091,-0.026919255033135414
1773048894766538800,6.482538818359375,10.704890251159668,-0.9930213689804077,0.0687936544418335
1773048894776514000,6.49251416015625,9.89551830291748,-1.4380863904953003,3.142972469329834
1773048894786492000,6.502491943359375,11.810972213745117,-0.9451649188995361,0.09272187948226929
1773048894796467500,6.512467529296875,7.118049144744873,-0.50907301902771,-0.3858426511287689
1773048894806445000,6.522445068359375,11.178668975830078,-0.9499505758285522,-0.0029910283628851175
1773048894816420900,6.5324208984375,8.525627136230469,-0.719641387462616,0.2602194547653198
1773048894826398500,6.5423984375,8.080561637878418,-1.4380863904953003,2.046461582183838
1773048894836374300,6.552374267578125,11.188240051269531,-4.55055046081543,0.1501496136188507
1773048894846351600,6.5623515625,10.374082565307617,0.6544370055198669,0.9260223507881165
1773048894856327700,6.57232763671875,9.478569030761719,-0.42771705985069275,0.45643091201782227
1773048894866305000,6.582304931640625,8.032705307006836,-1.5912270545959473,0.3607180118560791
1773048894876281000,6.592281005859375,11.882757186889648,-1.222732424736023,0.3655036687850952
1773048894886258200,6.602258056640625,11.47537899017334,-1.672582983970642,0.5240281820297241
1773048894896234500,6.612234375,6.7351975440979,-0.7968099117279053,1.5966109037399292
1773048894906211600,6.622211669921875,10.570294380187988,-0.16929219663143158,0.025722842663526535
1773048894916188000,6.63218798828125,11.283953666687012,-1.7539390325546265,0.39900317788124084
1773048894926165000,6.6421650390625,10.733604431152344,-1.0839486122131348,-0.8745766878128052
1773048894936141300,6.652141357421875,6.869195461273193,0.19920247793197632,2.9659037590026855
1773048894946118400,6.662118408203125,12.064611434936523,-1.0169496536254883,0.13100704550743103
1773048894956095000,6.672094970703125,9.334999084472656,-1.25144624710083,0.7585247755050659
1773048894966071800,6.68207177734375,8.018348693847656,-0.2267199456691742,-0.4815555512905121
1773048894976048400,6.69204833984375,9.617950439453125,-0.39900317788124084,-0.23748764395713806
1773048894986025200,6.702025146484375,13.697114944458008,-1.9076778888702393,2.276172637939453
1773048894996001800,6.712001708984375,9.124430656433105,-0.8111668825149536,-0.534795880317688
1773048895005978600,6.721978515625,8.123632431030273,0.046061836183071136,-0.07956135272979736
1773048895015955200,6.731955078125,8.880363464355469,-0.16450655460357666,0.4420739710330963
1773048895025932000,6.74193212890625,9.550353050231934,-0.916451096534729,1.9555343389511108
1773048895035908600,6.75190869140625,7.530212879180908,-0.5138586759567261,-1.2813565731048584
1773048895045885400,6.761885498046875,8.3629150390625,-1.5050854682922363,-0.3523431420326233
1773048895055862300,6.7718623046875,13.692329406738281,-1.7730815410614014,0.6005984544754028
1773048895065838800,6.7818388671875,9.028717994689941,-0.5617151260375977,0.3655036687850952
1773048895075815700,6.791815673828125,11.906685829162598,0.486939400434494,0.15493527054786682
1773048895085792300,6.801792236328125,9.119645118713379,-0.7722834944725037,0.030508488416671753
1773048895095769000,6.81176904296875,10.220941543579102,-3.300898790359497,2.046461582183838
1773048895105746000,6.821745849609375,5.490331649780273,-0.2554338276386261,-0.6065805554389954
1773048895115722500,6.831722412109375,10.728818893432617,0.7310073375701904,-0.7549355626106262
1773048895125699300,6.84169921875,12.634103775024414,-0.1740778535604477,0.2267199456691742
1773048895135676000,6.851676025390625,7.0031938552856445,-1.8646070957183838,2.999403238296509
1773048895145652700,6.86165283203125,5.408377170562744,-0.633499801158905,1.1700903177261353
1773048895155629600,6.871629638671875,9.790233612060547,1.0564311742782593,-1.2526426315307617
1773048895165606100,6.881606201171875,15.88594913482666,-0.494716078042984,0.025722842663526535
1773048895175486200,6.891486328125,8.665008544921875,0.10348957777023315,0.7776673436164856
1773048895185304000,6.901303955078125,9.157930374145508,1.3776676654815674,0.2315055876970291
1773048895195484000,6.91148388671875,11.427522659301758,0.39601215720176697,0.8111668825149536
1773048895205518000,6.92151806640625,8.209774017333984,-0.10707881301641464,0.5288137793540955
1773048895215489500,6.931489501953125,9.009575843811035,0.9032905697822571,-0.1944168359041214
1773048895225470500,6.941470458984375,10.53200912475586,1.0755738019943237,0.3415754437446594
1773048895245423400,6.96142333984375,7.266404151916504,-0.2841476798057556,3.276970624923706
1773048895255396600,6.971396728515625,8.679366111755371,0.8171489238739014,0.9308080077171326
1773048895265376000,6.9813759765625,14.11406421661377,1.171286702156067,-1.4488540887832642
1773048895275350300,6.991350341796875,13.089338302612305,-0.4612165689468384,0.3415754437446594
1773048895285329200,7.0013291015625,5.8061842918396,-0.25064817070961,1.2945170402526855
1773048895295209000,7.011208984375,11.69133186340332,-0.11186445504426956,2.362314224243164
1773048895305026300,7.0210263671875,15.19143295288086,-0.4660021960735321,0.13579268753528595
1773048895315206400,7.031206298828125,5.466403484344482,0.07956135272979736,1.9746768474578857
1773048895325240300,7.041240234375,5.858826160430908,-0.049651071429252625,0.7345965504646301
1773048895335210500,7.05121044921875,10.503294944763184,0.046061836183071136,0.47557350993156433
1773048895345192400,7.0611923828125,10.75274658203125,-1.2083754539489746,2.300100803375244
1773048895355164000,7.071163818359375,8.094919204711914,0.0077766734175384045,0.1453639715909958
1773048895365144800,7.081144775390625,9.559925079345703,-0.01136590726673603,0.15493527054786682
1773048895375025000,7.09102490234375,12.907483100891113,-0.7872386574745178,0.11186445504426956
1773048895384841700,7.100841796875,10.4219388961792,0.1417747437953949,1.9028922319412231
1773048895394838000,7.110838134765625,7.999206066131592,-0.12622138857841492,0.11186445504426956
1773048895404799000,7.120799072265625,10.89153003692627,-0.21714866161346436,0.3846462368965149
1773048895414979000,7.13097900390625,8.688937187194824,-0.1453639715909958,1.3806586265563965
1773048895425012000,7.141011962890625,8.563912391662598,0.09870393574237823,-0.1657029688358307
1773048895434977800,7.150977783203125,7.285546779632568,0.7357929348945618,0.9116654396057129
1773048895444963300,7.16096337890625,12.380464553833008,0.2763710021972656,1.8550357818603516
1773048895454931200,7.17093115234375,7.716853141784668,-0.2554338276386261,-0.46719861030578613
1773048895464915200,7.180915283203125,10.316655158996582,0.6209374666213989,1.2179467678070068
1773048895474795000,7.190794921875,10.661819458007812,-0.21236300468444824,-0.33798620104789734
1773048895484611600,7.200611572265625,11.346166610717773,-0.11186445504426956,1.1126625537872314
1773048895494605600,7.21060546875,8.061419486999512,-0.2554338276386261,0.638883650302887
1773048895504568300,7.220568359375,11.116456031799316,-0.020937198773026466,0.7728816866874695
1773048895514748400,7.23074853515625,10.436295509338379,0.22791635990142822,-0.534795880317688
1773048895524780800,7.24078076171875,8.047062873840332,-0.025722842663526535,0.19800607860088348
1773048895534745300,7.250745361328125,10.354940414428711,-1.2897313833236694,2.300100803375244
1773048895544732000,7.26073193359375,7.486543655395508,0.6975077986717224,-0.4384847581386566
1773048895554698800,7.27069873046875,11.307881355285645,1.1808580160140991,-0.20398813486099243
1773048895564683500,7.28068359375,9.7998046875,0.11306086927652359,0.638883650302887
1773048895574563600,7.2905634765625,11.030314445495605,0.1944168359041214,-0.06520441919565201
1773048895584379600,7.300379638671875,8.037490844726562,0.39122650027275085,-0.1417747437953949
1773048895594559700,7.310559814453125,12.375679016113281,-0.6287141442298889,0.5670989751815796
1773048895604593000,7.320593017578125,9.023932456970215,-0.2267199456691742,0.4085744619369507
1773048895614472700,7.33047265625,10.086943626403809,0.39122650027275085,0.605384111404419
1773048895624288500,7.34028857421875,8.506484031677246,-0.09272187948226929,-0.251844584941864
1773048895634468400,7.35046826171875,9.45464038848877,-0.4612165689468384,-0.1178465187549591
1773048895644501200,7.360501220703125,8.875576972961426,0.1657029688358307,-0.2757728099822998
1773048895654466300,7.37046630859375,8.665008544921875,-0.15493527054786682,-0.050847481936216354
1773048895664452400,7.380452392578125,11.796615600585938,-1.3184453248977661,0.6819544434547424
1773048895674420000,7.390419921875,9.31585693359375,1.0325030088424683,0.12622138857841492
1773048895684404200,7.400404296875,10.939387321472168,0.7357929348945618,-0.08434699475765228
1773048895694373400,7.410373291015625,10.005587577819824,-0.4899304509162903,0.5862415432929993
1773048895704356000,7.420356201171875,9.69930648803711,-0.8207381963729858,0.11665010452270508
1773048895714236200,7.430236083984375,8.60758113861084,0.2715853750705719,0.01136590726673603
1773048895724052700,7.440052734375,10.307083129882812,-0.29371899366378784,2.324028968811035
1773048895734232800,7.45023291015625,10.9633150100708,0.36251261830329895,-0.34277185797691345
1773048895744266000,7.460265869140625,8.410771369934082,0.49172505736351013,-0.2757728099822998
1773048895754233900,7.47023388671875,8.894720077514648,-0.23629122972488403,0.5623133182525635
1773048895764217900,7.4802177734375,9.795019149780273,-0.2027917206287384,-0.2709871530532837
1773048895774187500,7.4901875,10.082158088684082,0.2183450609445572,-0.22791635990142822
1773048895784170000,7.500169921875,8.83250617980957,-1.093519926071167,0.7010970115661621
1773048895794050000,7.510050048828125,11.763115882873535,-0.42293140292167664,-0.18005990982055664
1773048895803866600,7.51986669921875,10.201799392700195,0.3481557071208954,0.5670989751815796
1773048895813861600,7.529861572265625,11.00160026550293,-0.9260223507881165,0.6005984544754028
1773048895823823600,7.53982373046875,10.465009689331055,0.4007977843284607,-0.46719861030578613
1773048895834003700,7.550003662109375,8.094919204711914,0.1704886108636856,2.9276185035705566
1773048895844036400,7.560036376953125,8.73200798034668,-1.4811571836471558,0.48514479398727417
1773048895854001400,7.57000146484375,8.511270523071289,-0.07357929646968842,-1.6504493951797485
1773048895863987700,7.57998779296875,12.543176651000977,1.0707881450653076,0.7824530005455017
1773048895873955000,7.589955078125,14.496915817260742,-0.20757736265659332,2.6213371753692627
1773048895883939300,7.599939208984375,8.468199729919434,-0.4612165689468384,0.8015955686569214
1773048895893908700,7.60990869140625,6.869195461273193,0.6735795736312866,1.5146567821502686
1773048895903891500,7.619891357421875,10.206584930419922,0.1178465187549591,0.5240281820297241
1773048895913771500,7.629771484375,9.1052885055542,-0.2793620526790619,-0.8171489238739014
1773048895923588000,7.639588134765625,11.159526824951172,0.7070791125297546,-0.12741780281066895
1773048895933768200,7.649768310546875,10.589436531066895,0.19920247793197632,0.6340979933738708
1773048895943801600,7.659801513671875,10.781460762023926,-0.5330012440681458,0.001794616924598813
1773048895953769200,7.669769287109375,6.480959892272949,0.6400800347328186,-0.09870393574237823
1773048895963753200,7.679753173828125,6.931408882141113,0.9511470198631287,0.4085744619369507
1773048895973723000,7.689722900390625,11.030314445495605,-0.2602194547653198,1.80717933177948
1773048895983705300,7.699705322265625,9.138788223266602,-0.39421752095222473,0.08315058797597885
1773048895993676500,7.709676513671875,9.7998046875,1.2526426315307617,-0.10827522724866867
1773048896003657700,7.71965771484375,14.396417617797852,0.28115665912628174,0.20757736265659332
1773048896013630000,7.7296298828125,7.304689407348633,-0.3367897868156433,-0.5054838061332703
1773048896023610400,7.7396103515625,7.213762283325195,0.23748764395713806,-0.33798620104789734
1773048896033583600,7.74958349609375,9.196215629577637,0.1944168359041214,-0.47676992416381836
1773048896043563300,7.759563232421875,12.600604057312012,-0.26979073882102966,-0.9176474809646606
1773048896053537000,7.769537109375,6.988836765289307,0.16091732680797577,-0.4289134442806244
1773048896063516200,7.77951611328125,6.519843578338623,0.4630111753940582,-0.07477571070194244
1773048896073490700,7.78949072265625,11.035099983215332,0.6065805554389954,0.7489534616470337
1773048896083469300,7.79946923828125,12.399606704711914,-0.2745763957500458,0.6628118753433228
1773048896093444400,7.8094443359375,8.477770805358887,-0.5808576941490173,0.1453639715909958
1773048896103422500,7.81942236328125,11.039885520935059,0.8793623447418213,0.7968099117279053
1773048896113397800,7.829397705078125,15.703496932983398,-0.2602194547653198,1.5433706045150757
1773048896123375600,7.839375732421875,6.131608009338379,-1.0169496536254883,0.45164528489112854
1773048896133351400,7.849351318359375,6.141179084777832,0.1944168359041214,0.5814558863639832
1773048896143329300,7.859329345703125,11.734402656555176,-0.39421752095222473,1.1174482107162476
1773048896153305000,7.86930517578125,10.40758228302002,0.046061836183071136,1.4524433612823486
1773048896163282400,7.879282470703125,6.6490559577941895,0.5587241053581238,-0.44327038526535034
1773048896173258500,7.889258544921875,7.82692289352417,0.5443671345710754,-0.5054838061332703
1773048896183235800,7.89923583984375,6.85962438583374,0.06520441919565201,-0.5252245664596558
1773048896193116000,7.909115966796875,10.110872268676758,-0.03529413416981697,0.6771687865257263
1773048896202933500,7.91893359375,14.726627349853516,-0.666999340057373,1.1461620330810547
1773048896212932900,7.928932861328125,13.529617309570312,-0.8207381963729858,0.9547362327575684
1773048896222891500,7.9388916015625,9.991230964660645,-0.3846462368965149,0.605384111404419
1773048896233071400,7.9490712890625,9.143573760986328,1.3154542446136475,0.5718846321105957
1773048896243104800,7.959104736328125,13.697114944458008,-0.39900317788124084,0.4420739710330963
1773048896253072400,7.969072265625,2.971287488937378,-0.6861419081687927,-0.14656038582324982
1773048896263056600,7.979056640625,5.988038539886475,0.3577269911766052,0.4181457459926605
1773048896273026000,7.989026123046875,12.480962753295898,1.4063814878463745,0.2554338276386261
1773048896283008800,7.9990087890625,13.060624122619629,-0.3367897868156433,0.32243284583091736
1773048896292979700,8.008979736328126,4.953741073608398,-0.26500511169433594,-0.1944168359041214
1773048896302961200,8.018961181640625,9.382855415344238,0.8554341197013855,0.6532405614852905
1773048896312841200,8.02884130859375,14.090136528015137,-0.11186445504426956,-0.22791635990142822
1773048896322658000,8.038657958984375,10.867602348327637,-0.7292127013206482,-0.12263216078281403
1773048896332838100,8.048838134765624,6.931408882141113,0.28115665912628174,0.5910272002220154
1773048896342871800,8.058871826171876,12.768699645996094,-0.4325026869773865,-0.14656038582324982
1773048896352840400,8.06884033203125,9.028717994689941,-2.4771697521209717,-0.4815555512905121
1773048896362823700,8.07882373046875,6.122036933898926,0.23748764395713806,3.463610887527466
1773048896372793900,8.0887939453125,5.9306111335754395,0.6879364848136902,2.0751755237579346
1773048896382776000,8.098776123046875,14.315061569213867,0.8745766878128052,-1.01814603805542
1773048896392747500,8.10874755859375,13.500903129577637,-2.1134605407714844,0.26979073882102966
1773048896402728400,8.118728515625,8.650651931762695,-0.5904290080070496,0.049651071429252625
1773048896412701200,8.128701171875,10.676176071166992,1.6360924243927002,0.2267199456691742
1773048896422681000,8.13868115234375,14.808581352233887,-0.2793620526790619,0.3320041298866272
1773048896432561200,8.14856103515625,11.437093734741211,-0.5904290080070496,-0.47198426723480225
1773048896442378500,8.15837841796875,6.356533527374268,0.30987054109573364,-0.2183450609445572
1773048896452558300,8.168558349609375,9.023932456970215,0.07477571070194244,0.45164528489112854
1773048896462592300,8.17859228515625,9.363713264465332,-1.648654818534851,-2.028515338897705
1773048896472561700,8.188561767578125,6.706483840942383,-0.049651071429252625,-0.6735795736312866
1773048896482544400,8.19854443359375,11.149955749511719,0.19920247793197632,1.0360921621322632
1773048896492515300,8.208515380859374,13.596616744995117,0.0891326442360878,-0.7070791125297546
1773048896502496800,8.218496826171876,14.870794296264648,-0.01615155301988125,-1.2239288091659546
1773048896512376800,8.228376953125,9.05264663696289,-3.253042459487915,-2.4879374504089355
1773048896522193700,8.238193603515626,9.502496719360352,-0.4325026869773865,-1.1377872228622437
1773048896532189700,8.248189697265625,8.008777618408203,1.0277173519134521,-0.15134602785110474
1773048896542151000,8.25815087890625,6.591628074645996,0.3481557071208954,-0.2183450609445572
1773048896552331000,8.2683310546875,5.8061842918396,0.050847481936216354,-0.4815555512905121
1773048896562364000,8.278364013671874,6.816553592681885,-0.10229317098855972,-0.5730810165405273
1773048896572329500,8.28832958984375,13.376477241516113,0.8219345808029175,-0.4049852192401886
1773048896582315300,8.298315185546874,16.68036651611328,-0.32721850275993347,-0.6352944374084473
1773048896592195300,8.3081953125,5.988038539886475,-0.6239284873008728,-0.06520441919565201
1773048896602011400,8.318011474609374,4.661816596984863,0.15134602785110474,0.5288137793540955
1773048896612003800,8.32800390625,12.145967483520508,0.49651068449020386,0.4468596279621124
1773048896621968000,8.3379677734375,13.759328842163086,-0.8973084688186646,-0.050847481936216354
1773048896632148000,8.34814794921875,5.370092391967773,-0.32721850275993347,0.3320041298866272
1773048896642180400,8.358180419921876,7.712067604064941,0.486939400434494,0.5527420043945312
1773048896652143900,8.368143798828125,9.780662536621094,0.7836494445800781,-0.12741780281066895
1773048896662131200,8.378131103515624,12.893126487731934,-0.9116654396057129,-0.23270200192928314
1773048896672097300,8.38809716796875,5.988038539886475,-3.3583266735076904,-0.8841479420661926
1773048896682082800,8.398082763671875,8.751151084899902,1.3202399015426636,0.4707878530025482
1773048896692051000,8.408051025390625,19.328622817993164,1.1856436729431152,1.2562319040298462
1773048896702034700,8.41803466796875,6.816553592681885,-0.6382854580879211,0.4085744619369507
1773048896712004600,8.428004638671876,6.826124668121338,-0.06400800496339798,-0.23748764395713806
1773048896721986800,8.43798681640625,12.17946720123291,-0.3415754437446594,0.025722842663526535
1773048896731867000,8.447866943359376,11.207383155822754,-0.355932354927063,-0.5443671345710754
1773048896741683700,8.45768359375,7.735995769500732,-0.3655036687850952,-0.2470589429140091
1773048896751863800,8.46786376953125,6.979265213012695,-0.24586252868175507,-0.39541393518447876
1773048896761897200,8.477897216796874,13.9513521194458,-0.23629122972488403,-1.5738791227340698
1773048896771865300,8.487865234375,9.34457015991211,-2.032104730606079,-0.11306086927652359
1773048896781849000,8.49784912109375,6.07896614074707,-0.25064817070961,0.9212366938591003
1773048896791729200,8.507729248046875,11.729616165161133,1.2335001230239868,0.15493527054786682
1773048896801545500,8.51754541015625,13.352548599243164,0.2667997181415558,0.19800607860088348
1773048896811539700,8.527539794921875,11.542378425598145,-3.7746777534484863,0.2267199456691742
1773048896821502500,8.53750244140625,5.777470111846924,-0.8398807644844055,0.25064817070961
1773048896831493000,8.5474931640625,10.273584365844727,1.6456637382507324,0.5623133182525635
1773048896841458700,8.557458740234376,18.083757400512695,0.3529413342475891,0.07357929646968842
1773048896851638800,8.567638671875,3.814159393310547,-0.5808576941490173,-0.0891326442360878
1773048896861671000,8.5776708984375,4.326223373413086,0.05563312768936157,-0.13220344483852386
1773048896871551000,8.587551025390624,8.530412673950195,0.49172505736351013,-0.44805604219436646
1773048896881365800,8.59736572265625,13.587044715881348,0.2183450609445572,-1.3004990816116333
1773048896891545600,8.607545654296874,6.251249313354492,-0.3128615617752075,-0.4911268353462219
1773048896901578000,8.617577880859375,8.401200294494629,0.022133609279990196,-0.5635097622871399
1773048896921434600,8.6374345703125,13.984851837158203,-1.1174482107162476,-0.47676992416381836
1773048896931249700,8.647249755859375,4.637888431549072,-2.7738797664642334,-0.5252245664596558
1773048896941429500,8.657429443359375,9.033503532409668,1.0995019674301147,0.19322042167186737
1773048896951461600,8.667461669921876,13.304692268371582,0.6209374666213989,-0.6496513485908508
1773048896961424100,8.677424072265625,6.375676155090332,-0.7627122402191162,-0.19920247793197632
1773048896971412500,8.68741259765625,4.412963390350342,0.01734796352684498,-0.0029910283628851175
1773048896981292500,8.69729248046875,13.582259178161621,0.9128618240356445,-0.8027920126914978
1773048896991108000,8.707108154296876,15.15314769744873,-0.09272187948226929,-1.6217355728149414
1773048897001288000,8.717287841796875,6.773482799530029,-3.631108283996582,-2.8043880462646484
1773048897011320600,8.727320556640626,6.122036933898926,-0.42771705985069275,-0.7597211599349976
1773048897021284900,8.737284912109375,16.881362915039062,1.7796618938446045,-0.9607182741165161
1773048897031271700,8.747271728515624,13.946566581726074,-0.6526423692703247,-0.9655039310455322
1773048897041238500,8.757238525390624,1.2376874685287476,-0.39421752095222473,0.18843477964401245
1773048897051223300,8.767223388671875,9.153144836425781,-0.09272187948226929,-0.5874379873275757
1773048897061103400,8.777103271484375,18.303895950317383,-0.37028929591178894,-1.7413766384124756
1773048897070919700,8.786919677734375,6.543771743774414,-0.26979073882102966,-0.534795880317688
1773048897080913000,8.796912841796875,4.546961307525635,-0.12622138857841492,-0.5252245664596558
1773048897090876400,8.80687646484375,5.624329566955566,-0.6095715761184692,-1.4775680303573608
1773048897101056300,8.81705615234375,13.98963737487793,-1.9411773681640625,-3.6370904445648193
1773048897111089000,8.8270888671875,8.070990562438965,-1.9459630250930786,-1.784447431564331
1773048897121053000,8.837052978515626,14.43470287322998,-0.006580262444913387,-0.9224331378936768
1773048897131040000,8.8470400390625,12.256037712097168,0.534795880317688,-1.2143574953079224
1773048897141006600,8.857006591796875,9.521639823913574,-1.9124635457992554,0.0687936544418335
1773048897150991600,8.86699169921875,5.763113498687744,0.4247260093688965,-0.4049852192401886
1773048897160968400,8.876968505859375,10.61815071105957,1.1234302520751953,-0.6640082597732544
1773048897170936800,8.886936767578124,11.72004508972168,-2.6638097763061523,-0.5300102233886719
1773048897180920300,8.89692041015625,6.773482799530029,-1.648654818534851,-0.2949153780937195
1773048897190890500,8.906890380859375,7.429116249084473,1.2287144660949707,-0.6831508874893188
1773048897200872700,8.916872802734375,17.039888381958008,1.358525037765503,-1.3435698747634888
1773048897210844200,8.92684423828125,15.473785400390625,-0.12622138857841492,0.7824530005455017
1773048897220825000,8.9368251953125,4.958526611328125,-0.5712863802909851,0.5138586759567261
1773048897230797800,8.9467978515625,2.2671995162963867,-1.0360921621322632,0.3032902777194977
1773048897240778000,8.956778076171876,19.151554107666016,-2.0608184337615967,0.16450655460357666
1773048897250751200,8.966751220703125,15.033506393432617,-1.0169496536254883,-0.7022934556007385
1773048897260731000,8.97673095703125,6.27996301651001,0.026919255033135414,-0.0029910283628851175
1773048897270610700,8.986610595703125,11.618948936462402,-0.5042873620986938,-0.36191442608833313
1773048897280428000,8.996427978515625,9.019146919250488,0.0029910283628851175,-0.711864709854126
1773048897290425600,9.006425537109376,4.287938117980957,0.381655216217041,-0.09391828626394272
1773048897300385500,9.016385498046875,11.671590805053711,0.46779683232307434,-1.0612168312072754
1773048897310572800,9.02657275390625,6.4187469482421875,0.15613168478012085,-0.46719861030578613
1773048897320556000,9.03655615234375,11.063814163208008,-0.32243284583091736,0.29371899366378784
1773048897330565400,9.0465654296875,9.7998046875,-2.017747640609741,-0.30927231907844543
1773048897340551200,9.05655126953125,7.975277900695801,0.20398813486099243,-0.5150550603866577
1773048897350519000,9.06651904296875,14.477773666381836,0.2566302418708801,-1.3914263248443604
1773048897360503000,9.0765029296875,10.29751205444336,-2.4915266036987305,-0.7836494445800781
1773048897370472700,9.08647265625,7.544569969177246,-0.11665010452270508,-0.5395814776420593
1773048897380455200,9.096455078125,8.468199729919434,1.046859860420227,-0.8458628058433533
1773048897390426000,9.106426025390626,12.730414390563965,-0.030508488416671753,-1.333998680114746
1773048897400407600,9.116407470703125,3.119642496109009,-0.1740778535604477,-0.2757728099822998
1773048897410379800,9.1263798828125,10.465009689331055,-0.054436713457107544,-1.1569297313690186
1773048897420360400,9.1363603515625,11.020742416381836,-1.2562319040298462,-1.2095718383789062
1773048897430333400,9.14633349609375,9.598209381103516,-1.960319995880127,-0.9846464991569519
1773048897440313000,9.15631298828125,9.742377281188965,0.49172505736351013,-1.2287144660949707
1773048897450287000,9.166287109375,9.569496154785156,0.1417747437953949,-1.2717852592468262
1773048897460266200,9.176266357421875,14.295918464660645,-1.2658032178878784,-3.2590243816375732
1773048897470240500,9.186240478515625,8.195417404174805,-1.5337992906570435,-2.6081767082214355
1773048897480219100,9.19621923828125,8.482556343078613,-0.6765705943107605,-1.0516455173492432
1773048897490233000,9.206233154296875,10.853245735168457,0.778863787651062,-0.8697910308837891
1773048897500215300,9.21621533203125,9.991230964660645,0.5826523303985596,-1.0612168312072754
1773048897510147800,9.22614794921875,7.683353424072266,-0.48035913705825806,-0.5682953596115112
1773048897520125000,9.236125,4.163511276245117,-2.2570300102233887,0.3128615617752075
1773048897530101200,9.246101318359376,11.523235321044922,0.04127619042992592,-0.9750752449035645
1773048897540078600,9.25607861328125,17.231313705444336,-3.568894863128662,-1.4919248819351196
1773048897550055000,9.266054931640625,11.441879272460938,0.18963119387626648,0.32721850275993347
1773048897560032000,9.276031982421875,12.998411178588867,1.2717852592468262,-0.836291491985321
1773048897570008600,9.286008544921875,14.31027603149414,0.04127619042992592,-1.7030915021896362
1773048897579985400,9.2959853515625,6.893123626708984,-0.9068797826766968,-0.711864709854126
1773048897589962000,9.3059619140625,-1.0606186389923096,-1.9076778888702393,0.14057832956314087
1773048897599939000,9.31593896484375,10.810174942016602,0.7836494445800781,-1.4775680303573608
1773048897609915600,9.32591552734375,15.105291366577148,0.3720839321613312,-1.9040886163711548
1773048897619892500,9.335892578125,12.466606140136719,-2.8797619342803955,-1.2047861814498901
1773048897629869300,9.345869384765624,10.04865837097168,-0.6239284873008728,-1.109073281288147
1773048897639846100,9.35584619140625,10.302297592163086,-1.0552347898483276,-2.4735803604125977
1773048897649822700,9.36582275390625,13.677972793579102,-1.1413763761520386,-3.0340991020202637
1773048897659799600,9.375799560546875,7.798209190368652,1.3441680669784546,-0.3284149169921875
1773048897669776400,9.3857763671875,13.49611759185791,0.2907279431819916,-1.2526426315307617
1773048897679753200,9.395753173828124,5.3318071365356445,-0.42771705985069275,-0.5635097622871399
1773048897689729800,9.405729736328125,6.582056999206543,-1.6247265338897705,-0.46719861030578613
1773048897699706600,9.41570654296875,13.366905212402344,0.3242274820804596,-1.01814603805542
1773048897709683500,9.425683349609375,7.740781307220459,-0.7674978375434875,-0.836291491985321
1773048897719660300,9.435660400390624,8.405985832214355,-0.8973084688186646,-1.3244273662567139
1773048897739614000,9.455614013671875,12.457035064697266,-0.7339983582496643,0.8590233325958252
1773048897749590500,9.465590576171875,7.8795647621154785,-0.3320041298866272,-0.5730810165405273
1773048897759567400,9.4755673828125,7.530212879180908,0.5682953596115112,-0.9032905697822571
1773048897769544200,9.485544189453124,10.029516220092773,-0.054436713457107544,-0.9846464991569519
1773048897779521000,9.49552099609375,5.054239749908447,-0.10707881301641464,-0.5150550603866577
1773048897789497900,9.505497802734375,7.712067604064941,0.3002992272377014,-0.9320043921470642
1773048897799474400,9.515474365234375,9.756733894348145,-0.03529413416981697,-1.113858938217163
1773048897809451300,9.525451171875,9.593423843383789,-1.7443677186965942,-2.4975085258483887
1773048897819428000,9.535427978515624,10.240084648132324,-0.2315055876970291,-1.3004990816116333
1773048897829405000,9.545405029296875,8.583653450012207,0.5204389095306396,-0.534795880317688
1773048897839381800,9.5553818359375,10.676176071166992,-0.08315058797597885,-0.9846464991569519
1773048897849358300,9.5653583984375,8.037490844726562,-1.1461620330810547,0.4181457459926605
1773048897859335200,9.575335205078124,9.334999084472656,0.6496513485908508,-0.8171489238739014
1773048897869351000,9.585350830078125,10.867602348327637,-1.093519926071167,-1.4919248819351196
1773048897879331600,9.59533154296875,7.0271220207214355,-0.3655036687850952,-0.8554341197013855
1773048897889265700,9.605265625,8.496912956237793,0.01734796352684498,-1.085145115852356
1773048897899241700,9.61524169921875,10.335797309875488,-0.9116654396057129,-1.2861422300338745
1773048897909219000,9.625218994140624,8.291130065917969,-0.3846462368965149,-1.046859860420227
1773048897919195400,9.6351953125,8.190631866455078,-0.37507495284080505,-1.0516455173492432
1773048897929172700,9.6451728515625,10.38365364074707,-2.0656042098999023,-1.085145115852356
1773048897939149000,9.655149169921875,11.47537899017334,-0.633499801158905,-1.109073281288147
1773048897949126100,9.665126220703126,8.84207820892334,-0.4133601188659668,-0.9272187948226929
1773048897959102700,9.675102783203124,11.575878143310547,-2.668595552444458,-0.9990034699440002
1773048897969079800,9.685079833984375,7.524828910827637,0.8315058946609497,-0.8745766878128052
1773048897979056400,9.695056396484375,13.826925277709961,0.4055834412574768,-1.7030915021896362
1773048897989033500,9.705033447265626,10.901102066040039,-0.8398807644844055,-1.2143574953079224
1773048897999009800,9.715009765625,3.6227335929870605,-1.1078768968582153,-0.18005990982055664
1773048898008987000,9.72498681640625,15.77528190612793,-0.37028929591178894,-1.8323038816452026
1773048898018963500,9.73496337890625,8.243273735046387,-2.410170555114746,-1.0372886657714844
1773048898028940500,9.7449404296875,8.703293800354004,0.6161518096923828,-1.0947163105010986
1773048898038917000,9.754917236328126,10.412367820739746,0.4103690981864929,-1.32921302318573
1773048898048894000,9.76489404296875,9.224929809570312,0.046061836183071136,-1.0660024881362915
1773048898058870800,9.774870849609375,12.610175132751465,-1.2945170402526855,-1.6648063659667969
1773048898068847600,9.78484765625,9.478569030761719,-0.8111668825149536,-1.171286702156067
1773048898078824400,9.794824462890626,11.164312362670898,0.6400800347328186,-1.2382856607437134
1773048898088801300,9.80480126953125,10.302297592163086,-1.007378339767456,-1.113858938217163
1773048898098777900,9.81477783203125,7.659425258636475,-1.4428720474243164,-0.6735795736312866
1773048898108754700,9.824754638671875,12.17946720123291,0.6640082597732544,-1.353141188621521
1773048898118731500,9.8347314453125,10.350153923034668,-1.5720844268798828,-5.365904808044434
1773048898128708400,9.844708251953126,9.497711181640625,-0.9643075466156006,-1.420140266418457
1773048898138685000,9.854684814453124,11.37488079071045,-0.4899304509162903,1.1461620330810547
1773048898148661800,9.864661865234375,9.435498237609863,0.06999006122350693,-0.31405797600746155
1773048898158638600,9.874638671875,9.57906723022461,-0.48514479398727417,-0.9272187948226929
1773048898168615400,9.884615478515625,10.120443344116211,-0.8063812255859375,-0.49591249227523804
1773048898178592300,9.89459228515625,9.41635513305664,-0.0975075215101242,-0.592223584651947
1773048898188569000,9.904569091796875,10.824531555175781,-1.4572290182113647,-1.6265212297439575
1773048898198545700,9.914545654296875,9.828518867492676,-1.2179467678070068,-0.9415757060050964
1773048898208522500,9.9245224609375,8.02791976928711,-0.07836493849754333,-0.44805604219436646
1773048898218499300,9.934499267578126,11.01595687866211,-0.8015955686569214,0.01136590726673603
1773048898238452700,9.95445263671875,7.2951178550720215,-0.025722842663526535,-0.8745766878128052
1773048898248429600,9.9644296875,10.517651557922363,-0.6430711150169373,0.15972091257572174
1773048898258406400,9.974406494140625,10.302297592163086,-0.6861419081687927,-0.44805604219436646
1773048898268344300,9.98434423828125,9.392427444458008,-0.5856433510780334,-1.0325030088424683
1773048898278317300,9.9943173828125,9.047860145568848,-0.5665007829666138,-1.1234302520751953
1773048898288298000,10.004298095703126,9.919445991516113,-0.6765705943107605,0.1501496136188507
1773048898298271500,10.014271484375,10.398011207580566,-1.337587833404541,-1.1377872228622437
1773048898308251400,10.02425146484375,8.056633949279785,-0.40378883481025696,-1.6265212297439575
1773048898318225700,10.0342255859375,9.866804122924805,-0.6526423692703247,-0.3188436031341553
1773048898328205000,10.044205078125,9.962516784667969,-1.222732424736023,-1.3627125024795532
1773048898338179800,10.054179931640626,7.659425258636475,-0.2027917206287384,-0.7597211599349976
1773048898348158500,10.064158447265624,9.80937671661377,-0.6191428303718567,-0.7980063557624817
1773048898358133800,10.0741337890625,9.608379364013672,-0.8733802437782288,-1.5882359743118286
1773048898368073200,10.0840732421875,9.608379364013672,-0.6478567123413086,-0.6305087804794312
1773048898378045000,10.094044921875,9.613164901733398,-0.6765705943107605,-0.6735795736312866
1773048898388065500,10.1040654296875,10.503294944763184,-0.8542376756668091,-1.607378602027893
1773048898398042000,10.1140419921875,9.277571678161621,-0.7292127013206482,-1.6265212297439575
1773048898408019200,10.124019287109375,9.583852767944336,-0.3367897868156433,-1.0085747241973877
1773048898417995500,10.13399560546875,9.80937671661377,-0.7722834944725037,-1.2239288091659546
1773048898427972600,10.14397265625,9.492925643920898,-0.1740778535604477,-2.3443679809570312
1773048898437949200,10.15394921875,9.311071395874023,-0.31764721870422363,-0.6640082597732544
1773048898447965200,10.163965087890626,10.412367820739746,-0.4660021960735321,-1.5690934658050537
1773048898457945600,10.173945556640625,9.148359298706055,0.14656038582324982,-1.9423737525939941
1773048898467841000,10.183841064453125,10.354940414428711,-0.16929219663143158,-1.0085747241973877
1773048898477813000,10.19381298828125,9.818947792053223,-0.06400800496339798,-1.999801516532898
1773048898487833300,10.203833251953125,10.096514701843262,-0.006580262444913387,-0.4097708761692047
1773048898497810200,10.21381005859375,9.948160171508789,0.20877377688884735,-1.0277173519134521
1773048898507748000,10.223748046875,10.657033920288086,0.05563312768936157,-1.420140266418457
1773048898517721000,10.23372119140625,9.77109146118164,-0.7339983582496643,-0.5970092415809631
1773048898527662800,10.243662841796874,8.338987350463867,0.47258245944976807,-1.2765709161758423
1773048898537632500,10.253632568359375,10.01037311553955,0.06041877344250679,-1.9232312440872192
1773048898547577300,10.263577392578124,10.000802040100098,-1.1509476900100708,-0.3332005441188812
1773048898557545000,10.273544921875,8.061419486999512,0.5204389095306396,-2.1481566429138184
1773048898567531000,10.283531005859375,9.483354568481445,-0.22193430364131927,-0.534795880317688
1773048898577500200,10.293500244140626,11.59980583190918,-0.9547362327575684,1.2705888748168945
1773048898587406800,10.30340673828125,9.05264663696289,0.1417747437953949,-1.8705891370773315
1773048898597369900,10.313369873046875,9.967302322387695,-0.7968099117279053,-0.47198426723480225
1773048898607321600,10.323321533203124,10.067801475524902,0.026919255033135414,-0.09870393574237823
1773048898617283300,10.333283447265625,9.723235130310059,-0.6526423692703247,-1.693520188331604
1773048898627275000,10.34327490234375,9.56471061706543,-1.069591760635376,-0.5443671345710754
1773048898637239800,10.35323974609375,7.769495010375977,0.30508488416671753,-2.1960129737854004
1773048898647112400,10.363112548828125,11.240882873535156,-0.4372883439064026,-0.8075776696205139
1773048898657068000,10.373068115234375,10.24487018585205,-0.9595218896865845,0.5431707501411438
1773048898666950000,10.382949951171875,9.019146919250488,0.13698910176753998,-2.60339093208313
1773048898676898000,10.39289794921875,9.943374633789062,-0.03529413416981697,-0.6783652305603027
1773048898686941400,10.40294140625,10.398011207580566,-0.666999340057373,1.4189438819885254
1773048898696899300,10.4128994140625,10.575079917907715,-0.3080759048461914,-0.7932206988334656
1773048898706894800,10.422894775390626,8.889934539794922,-0.10229317098855972,-0.8889335989952087
1773048898716856300,10.432856201171875,11.145169258117676,-0.633499801158905,-0.22791635990142822
1773048898726771000,10.44277099609375,9.881160736083984,-0.355932354927063,-0.06520441919565201
1773048898736727800,10.452727783203125,9.196215629577637,-0.09272187948226929,-1.3674981594085693
1773048898746647000,10.46264697265625,10.273584365844727,-0.1501496136188507,-1.1904292106628418
1773048898756600000,10.47260009765625,9.675378799438477,-0.9834501147270203,-0.26141586899757385
1773048898766480100,10.482480224609375,9.023932456970215,-0.07357929646968842,-1.6456637382507324
1773048898776304000,10.49230419921875,10.517651557922363,-0.20757736265659332,-0.6592226624488831
1773048898786484200,10.502484130859376,11.571091651916504,-1.2275179624557495,0.24586252868175507
1773048898796477200,10.512477294921876,9.234500885009766,0.41515472531318665,-1.4249259233474731
1773048898806657000,10.522656982421875,10.479366302490234,-0.16929219663143158,0.3080759048461914
1773048898816837000,10.532837158203124,10.944172859191895,-1.179661512374878,0.494716078042984
1773048898827017200,10.543017333984375,8.751151084899902,0.251844584941864,-2.2342982292175293
1773048898837081000,10.5530810546875,9.138788223266602,-0.37028929591178894,-0.10348957777023315
1773048898847035400,10.563035400390625,11.456236839294434,-0.7872386574745178,-0.3188436031341553
1773048898857030400,10.573030517578125,8.439485549926758,0.09391828626394272,-3.555734395980835
1773048898866989000,10.582989013671876,8.913862228393555,-0.31764721870422363,0.025722842663526535
1773048898876980200,10.592980224609375,11.317452430725098,-0.24107688665390015,-0.5395814776420593
1773048898886942700,10.602942626953125,9.790233612060547,-0.11665010452270508,-2.507079839706421
1773048898896931000,10.61293115234375,9.196215629577637,-0.494716078042984,0.6197410821914673
1773048898906896400,10.622896484375,10.077372550964355,0.4630111753940582,-0.2997010350227356
1773048898916882400,10.63288232421875,10.622936248779297,-0.5138586759567261,-2.200798511505127
1773048898926849800,10.642849853515624,7.913064479827881,-0.7627122402191162,-0.6065805554389954
1773048898936834000,10.652833984375,8.367700576782227,0.12741780281066895,0.11186445504426956
1773048898946842400,10.66284228515625,12.160325050354004,-1.074377417564392,-1.5445669889450073
1773048898956829200,10.6728291015625,10.800602912902832,-0.11186445504426956,-2.2677977085113525
1773048898966757000,10.682757080078124,8.181060791015625,0.6161518096923828,-0.6161518096923828
1773048898976737800,10.69273779296875,11.030314445495605,-0.9403793215751648,-0.7022934556007385
1773048898986710800,10.702710693359375,8.765507698059082,-0.001794616924598813,-1.2143574953079224
1773048898996690700,10.712690673828124,8.755936622619629,-0.054436713457107544,-0.6735795736312866
1773048899006664200,10.722664306640626,9.641879081726074,-0.054436713457107544,-0.6065805554389954
1773048899016643600,10.7326435546875,10.292726516723633,-0.3798605799674988,-0.45284169912338257
1773048899026617900,10.742617919921875,9.435498237609863,-0.6957131624221802,-0.22791635990142822
1773048899036596700,10.7525966796875,9.34457015991211,0.745364248752594,-2.028515338897705
1773048899046571300,10.7625712890625,11.317452430725098,-0.9786644577980042,0.16929219663143158
1773048899056549600,10.772549560546874,9.943374633789062,-0.5617151260375977,-0.2949153780937195
1773048899066525000,10.78252490234375,8.578866958618164,0.534795880317688,-2.4640090465545654
1773048899076503000,10.7925029296875,10.115657806396484,-0.5186443328857422,-0.8027920126914978
1773048899086382800,10.8023828125,10.431509971618652,-0.21714866161346436,-0.2949153780937195
1773048899096200400,10.812200439453125,8.650651931762695,-0.4420739710330963,-0.9607182741165161
1773048899106380500,10.822380615234374,8.578866958618164,0.486939400434494,-0.2997010350227356
1773048899116414500,10.83241455078125,10.700104713439941,-0.2267199456691742,-0.7022934556007385
1773048899126385400,10.842385498046875,10.268798828125,-1.1174482107162476,0.6484549641609192
1773048899136366800,10.852366943359375,8.727222442626953,0.6113662123680115,0.11665010452270508
1773048899146339000,10.862339111328126,11.21216869354248,-0.001794616924598813,-0.9032905697822571
1773048899156319500,10.872319580078125,11.006385803222656,-1.2562319040298462,-0.8171489238739014
1773048899166292500,10.88229248046875,6.917052268981934,0.39122650027275085,0.24107688665390015
1773048899176272400,10.8922724609375,10.690533638000488,-0.18364913761615753,-1.1617153882980347
1773048899186246100,10.90224609375,10.4219388961792,-0.5042873620986938,-1.0277173519134521
1773048899196225300,10.912225341796875,9.449854850769043,-0.12143574655056,0.7489534616470337
1773048899206105300,10.922105224609375,8.48734188079834,0.1657029688358307,-0.6209374666213989
1773048899215922700,10.931922607421875,12.112467765808105,-0.22193430364131927,-0.17527425289154053
1773048899226102500,10.9421025390625,9.220144271850586,-0.48035913705825806,1.1700903177261353
1773048899236136400,10.952136474609375,8.851649284362793,0.41515472531318665,-0.3044866919517517
1773048899246106600,10.962106689453124,11.528020858764648,-0.7148557901382446,0.01136590726673603
1773048899256088800,10.9720888671875,10.450653076171875,-0.5042873620986938,0.16450655460357666
1773048899266060000,10.98206005859375,8.429914474487305,0.5156532526016235,-1.1282159090042114
1773048899276041200,10.992041259765625,11.370095252990723,-0.48514479398727417,-0.4384847581386566
1773048899285921300,11.00192138671875,10.115657806396484,-0.29850462079048157,-0.3523431420326233
1773048899295738000,11.011738037109374,9.09093189239502,0.23748764395713806,-1.2813565731048584
1773048899305734400,11.021734375,10.13479995727539,-0.3415754437446594,0.8446664214134216
1773048899315695400,11.0316953125,9.531210899353027,0.7836494445800781,-0.30927231907844543
1773048899325875500,11.04187548828125,10.517651557922363,0.28115665912628174,-0.8697910308837891
1773048899335908400,11.051908447265625,8.760722160339355,-1.4093725681304932,1.4333007335662842
1773048899345874000,11.0618740234375,7.6737823486328125,0.7022934556007385,0.1788634955883026
1773048899355859700,11.071859619140625,11.580663681030273,0.5539384484291077,-1.3627125024795532
1773048899365827600,11.08182763671875,11.618948936462402,-0.6813562512397766,0.03529413416981697
1773048899375811600,11.0918115234375,7.055835723876953,-1.2370892763137817,0.50907301902771
1773048899385691400,11.10169140625,8.669795036315918,1.0947163105010986,-2.919243574142456
1773048899395508000,11.111508056640625,13.405190467834473,0.3529413342475891,0.21236300468444824
1773048899405687800,11.121687744140624,9.124430656433105,-1.552941918373108,1.2179467678070068
1773048899415721200,11.13172119140625,5.825326919555664,0.18963119387626648,-0.37148571014404297
1773048899425688000,11.14168798828125,11.46102237701416,1.01814603805542,0.04486542567610741
1773048899435672800,11.1516728515625,12.41396427154541,-0.9020941257476807,0.6580262184143066
1773048899445641700,11.161641845703125,8.118846893310547,-0.849452018737793,-0.3044866919517517
1773048899455624700,11.171624755859375,7.366902828216553,0.625723123550415,-0.3332005441188812
1773048899465595400,11.181595458984376,12.917055130004883,-0.973878800868988,-0.0891326442360878
1773048899475577000,11.1915771484375,9.866804122924805,-0.4899304509162903,-1.1330015659332275
1773048899485457200,11.20145703125,8.60758113861084,0.3194418251514435,-1.200000524520874
1773048899495274000,11.21127392578125,10.000802040100098,-0.054436713457107544,0.39900317788124084
1773048899505453800,11.221453857421874,10.426724433898926,-0.4420739710330963,-0.8793623447418213
1773048899515487500,11.231487548828126,8.157132148742676,0.3433700501918793,-0.251844584941864
1773048899525456000,11.241455810546874,10.388439178466797,-0.01615155301988125,0.1453639715909958
1773048899535439400,11.251439453125,9.78544807434082,-0.7435696125030518,0.5862415432929993
1773048899545409500,11.261409423828125,9.516854286193848,0.3002992272377014,0.20757736265659332
1773048899555391500,11.2713916015625,10.292726516723633,0.09870393574237823,-0.7884350419044495
1773048899565363000,11.281363037109376,11.288739204406738,-0.9212366938591003,-0.29012975096702576
1773048899575344000,11.29134423828125,8.104490280151367,0.7166503667831421,-1.3722838163375854
1773048899585316600,11.301316650390625,10.412367820739746,-0.10229317098855972,-1.2095718383789062
1773048899595296800,11.311296875,9.780662536621094,0.13220344483852386,0.13100704550743103
1773048899605176800,11.3211767578125,9.732806205749512,0.28115665912628174,-1.3962119817733765
1773048899614994000,11.330993896484374,9.05264663696289,-0.025722842663526535,-0.022133609279990196
1773048899624990700,11.34099072265625,11.035099983215332,-0.09272187948226929,0.916451096534729
1773048899634951200,11.350951171875,8.880363464355469,0.4342973232269287,-1.2574282884597778
1773048899645131300,11.36113134765625,9.076574325561523,0.6209374666213989,0.3607180118560791
1773048899655164200,11.3711640625,11.575878143310547,-0.8303094506263733,0.355932354927063
1773048899665130500,11.381130615234374,7.802994728088379,-0.2841476798057556,-0.592223584651947
1773048899675115500,11.391115478515625,10.206584930419922,1.290927767753601,-1.9280169010162354
1773048899684995600,11.40099560546875,11.355737686157227,-0.7968099117279053,0.7393822073936462
1773048899694811600,11.410811767578124,9.224929809570312,-0.7292127013206482,-0.534795880317688
1773048899704991700,11.42099169921875,7.2711896896362305,1.2717852592468262,-2.861815929412842
1773048899715024600,11.431024658203125,11.437093734741211,0.09870393574237823,1.2418749332427979
1773048899724991000,11.440990966796875,10.201799392700195,-0.4660021960735321,0.8159525394439697
1773048899734976300,11.450976318359375,7.8317084312438965,-0.08315058797597885,-0.37148571014404297
1773048899744944600,11.460944580078126,10.029516220092773,0.7405785918235779,0.4372883439064026
1773048899754928000,11.47092822265625,11.370095252990723,-0.20757736265659332,0.6005984544754028
1773048899764898000,11.48089794921875,9.114859580993652,-0.600000262260437,-0.8602197170257568
1773048899774880300,11.49088037109375,7.524828910827637,0.7022934556007385,-0.5443671345710754
1773048899784760300,11.50076025390625,11.532807350158691,-0.389431893825531,-0.7070791125297546
1773048899794577200,11.5105771484375,10.29751205444336,0.09870393574237823,-0.4911268353462219
1773048899804757000,11.520757080078125,8.444271087646484,0.6783652305603027,0.049651071429252625
1773048899814790400,11.530790283203125,10.067801475524902,-0.542572557926178,-0.30927231907844543
1773048899824758800,11.5407587890625,9.009575843811035,0.4103690981864929,0.20757736265659332
1773048899834742300,11.5507421875,11.073385238647461,-0.07836493849754333,1.2801600694656372
1773048899844712200,11.560712158203126,9.483354568481445,-0.07357929646968842,-0.06041877344250679
1773048899854694400,11.5706943359375,9.588638305664062,-0.20757736265659332,-0.4289134442806244
1773048899864665600,11.58066552734375,8.449056625366211,0.3529413342475891,-0.18484555184841156
1773048899874646800,11.590646728515624,11.72004508972168,0.04127619042992592,-1.1234302520751953
1773048899884619300,11.600619384765626,9.54078197479248,-0.5473581552505493,-1.085145115852356
1773048899894599700,11.610599609375,8.070990562438965,0.898504912853241,0.030508488416671753
1773048899904572700,11.62057275390625,11.810972213745117,0.0077766734175384045,-0.4097708761692047
1773048899914552300,11.63055224609375,9.287142753601074,-0.10707881301641464,0.5479564070701599
1773048899924526300,11.6405263671875,9.009575843811035,0.11306086927652359,0.2745763957500458
1773048899934505500,11.65050537109375,9.392427444458008,0.1944168359041214,0.0687936544418335
1773048899944479700,11.660479736328124,11.93061351776123,-0.01615155301988125,0.4899304509162903
1773048899954458400,11.670458251953125,8.789435386657715,-0.4899304509162903,-0.046061836183071136
1773048899964433400,11.680433349609375,8.415556907653809,0.39601215720176697,-0.1417747437953949
1773048899974411500,11.69041162109375,10.522438049316406,0.5395814776420593,-0.989432156085968
1773048899984386800,11.70038671875,11.154741287231445,-0.7244270443916321,0.05922235921025276
1773048899994365000,11.710364990234375,8.669795036315918,0.18005990982055664,-0.44327038526535034
1773048900004340500,11.720340576171875,10.28315544128418,0.046061836183071136,0.4995017349720001
1773048900014318000,11.730318115234375,10.953743934631348,0.07477571070194244,-0.20877377688884735
1773048900024198100,11.7401982421875,9.31585693359375,-0.3032902777194977,1.1700903177261353
1773048900034015700,11.750015625,8.214560508728027,0.0364905446767807,0.6340979933738708
1773048900044195800,11.76019580078125,10.61815071105957,0.1657029688358307,-0.1704886108636856
1773048900054229800,11.770229736328124,10.704890251159668,-0.12622138857841492,0.6915257573127747
1773048900064201000,11.780200927734375,8.85643482208252,-0.26500511169433594,-0.251844584941864
1773048900074182100,11.79018212890625,10.067801475524902,-0.1501496136188507,-0.36191442608833313
1773048900084062200,11.800062255859375,9.244071960449219,0.5300102233886719,-0.5826523303985596
1773048900093879000,11.809879150390625,11.551949501037598,0.19920247793197632,-0.19920247793197632
1773048900104059100,11.82005908203125,8.937790870666504,-0.355932354927063,0.9786644577980042
1773048900114092500,11.830092529296875,8.26241683959961,0.5491527915000916,0.3607180118560791
1773048900124061400,11.8400615234375,11.93061351776123,-0.23629122972488403,1.0887342691421509
1773048900134044700,11.850044677734376,9.296713829040527,-0.26500511169433594,1.2323036193847656
1773048900144014800,11.860014892578125,9.253643035888672,0.2955136001110077,0.2267199456691742
1773048900153996800,11.869996826171874,9.795019149780273,-0.14057832956314087,-0.37148571014404297
1773048900163968500,11.879968505859376,10.110872268676758,0.4534398913383484,-0.711864709854126
1773048900173949400,11.889949462890625,9.90987491607666,-0.01615155301988125,0.24107688665390015
1773048900183829200,11.899829345703125,10.053443908691406,0.10827522724866867,0.2841476798057556
1773048900193646300,11.909646240234375,9.569496154785156,0.06041877344250679,-0.6400800347328186
1773048900203826200,11.919826171875,9.967302322387695,-0.025722842663526535,0.8303094506263733
1773048900213859800,11.92985986328125,9.339784622192383,0.381655216217041,0.9882357716560364
1773048900223829000,11.9398291015625,9.919445991516113,-0.04007977992296219,0.16450655460357666
1773048900233812000,11.94981201171875,9.521639823913574,-0.23629122972488403,0.4899304509162903
1773048900243782400,11.959782470703125,8.794221878051758,0.22791635990142822,0.4899304509162903
1773048900253764400,11.969764404296875,9.78544807434082,0.5204389095306396,0.4660021960735321
1773048900263736000,11.979736083984376,12.409177780151367,-0.7872386574745178,-0.6496513485908508
1773048900273716700,11.989716796875,6.485745906829834,0.30508488416671753,-0.2470589429140091
1773048900283596800,11.9995966796875,10.661819458007812,0.43908295035362244,0.5288137793540955
1773048900293413600,12.00941357421875,11.437093734741211,-0.0975075215101242,0.3607180118560791
1773048900303593700,12.01959375,9.253643035888672,0.3481557071208954,0.48514479398727417
1773048900313627400,12.02962744140625,8.37727165222168,-0.6909275650978088,1.031306505203247
1773048900323507500,12.039507568359374,9.339784622192383,0.4055834412574768,0.729810893535614
1773048900333323500,12.049323486328126,10.781460762023926,0.2183450609445572,-0.19920247793197632
1773048900343503600,12.059503662109375,9.287142753601074,-0.29371899366378784,0.5862415432929993
1773048900353536800,12.069536865234374,8.482556343078613,0.24227328598499298,0.3415754437446594
1773048900363503400,12.07950341796875,9.569496154785156,0.23748764395713806,-0.42412781715393066
1773048900373488000,12.089488037109374,13.065409660339355,-0.6765705943107605,1.3806586265563965
1773048900383457000,12.09945703125,7.366902828216553,0.11306086927652359,-0.17527425289154053
1773048900393440300,12.109440185546875,9.598209381103516,0.9080761671066284,0.29850462079048157
1773048900403410400,12.119410400390626,11.427522659301758,-0.030508488416671753,1.1078768968582153
1773048900413392400,12.129392333984375,8.008777618408203,-0.3320041298866272,0.11186445504426956
1773048900423364000,12.139364013671875,9.320642471313477,0.26201409101486206,0.9068797826766968
1773048900433345000,12.149344970703124,10.97767162322998,-0.04007977992296219,0.9499505758285522
1773048900443317500,12.1593173828125,9.2919282913208,-0.15972091257572174,-0.7166503667831421
1773048900453297700,12.169297607421875,8.382058143615723,-0.12143574655056,-0.15613168478012085
1773048900463271200,12.179271240234375,9.296713829040527,0.6209374666213989,0.6819544434547424
1773048900473250600,12.18925048828125,12.04068374633789,-0.001794616924598813,-0.03170489892363548
1773048900483130400,12.19913037109375,9.613164901733398,-0.16450655460357666,0.4085744619369507
1773048900492947700,12.20894775390625,9.19143009185791,0.16091732680797577,1.0600204467773438
1773048900503127800,12.2191279296875,10.589436531066895,-0.025722842663526535,1.093519926071167
1773048900513161700,12.22916162109375,10.24487018585205,0.17527425289154053,0.37028929591178894
1773048900523041500,12.23904150390625,9.172286987304688,-0.6957131624221802,0.7776673436164856
1773048900532857900,12.24885791015625,7.917850017547607,0.6927221417427063,-0.1944168359041214
1773048900543038000,12.259037841796875,10.15872859954834,0.33379876613616943,0.4133601188659668
1773048900553071000,12.269071044921875,10.819746017456055,-0.494716078042984,-0.3236292600631714
1773048900563038500,12.27903857421875,6.768697261810303,0.3194418251514435,0.6005984544754028
1773048900573022700,12.289022705078125,11.96889877319336,0.4534398913383484,1.0408778190612793
1773048900582902800,12.29890283203125,11.073385238647461,-0.20757736265659332,0.8638089895248413
1773048900592719000,12.308718994140625,10.015159606933594,-0.2793620526790619,0.6628118753433228
1773048900602712600,12.318712646484375,8.38684368133545,0.18484555184841156,0.5575276613235474
1773048900612675600,12.328675537109374,11.054242134094238,-0.2027917206287384,0.7824530005455017
1773048900622855700,12.338855712890625,9.459425926208496,-0.34636107087135315,0.5042873620986938
1773048900632888300,12.348888427734375,8.684151649475098,-0.16450655460357666,-0.5826523303985596
1773048900642852400,12.358852294921874,8.952147483825684,0.711864709854126,-0.1657029688358307
1773048900652839200,12.368839111328125,11.451451301574707,0.4247260093688965,0.9116654396057129
1773048900662806000,12.378805908203125,8.861220359802246,-0.9834501147270203,0.9690931439399719
1773048900672790800,12.388790771484375,8.894720077514648,0.9176474809646606,-0.16091732680797577
1773048900682670800,12.3986708984375,11.059027671813965,0.251844584941864,1.0360921621322632
1773048900692487000,12.40848681640625,12.394821166992188,-0.633499801158905,1.332802176475525
1773048900702667000,12.4186669921875,7.45782995223999,-0.5138586759567261,0.8350951075553894
1773048900712700000,12.428699951171875,10.86281681060791,0.4821537733078003,-0.9415757060050964
1773048900722666500,12.43866650390625,9.354142189025879,0.3768695592880249,0.3798605799674988
1773048900732651500,12.448651611328126,10.98724365234375,-0.6382854580879211,0.6101697683334351
1773048900742620000,12.458619873046874,6.754340171813965,0.6687939167022705,-0.47198426723480225
1773048900752603400,12.468603271484374,11.12602710723877,0.625723123550415,0.7537391185760498
1773048900762573600,12.478573486328125,10.896316528320312,-0.06400800496339798,1.069591760635376
1773048900772555500,12.488555419921875,8.090133666992188,-0.24107688665390015,0.37507495284080505
1773048900782527000,12.49852685546875,10.771889686584473,0.4630111753940582,-0.2470589429140091
1773048900792508200,12.508508056640625,11.164312362670898,-0.3607180118560791,1.3280165195465088
1773048900802388000,12.518387939453126,10.13479995727539,-0.2267199456691742,0.8350951075553894
1773048900812204800,12.528204833984375,8.482556343078613,0.15613168478012085,-0.9032905697822571
1773048900822201000,12.538201171875,10.139585494995117,0.24227328598499298,0.2315055876970291
1773048900832162000,12.548162109375,10.015159606933594,0.21355941891670227,0.729810893535614
1773048900842342100,12.558342041015624,9.268000602722168,-0.049651071429252625,0.8542376756668091
1773048900852375000,12.568375,8.343772888183594,0.046061836183071136,0.6915257573127747
1773048900862340900,12.5783408203125,10.479366302490234,-0.5665007829666138,1.2131611108779907
1773048900872326400,12.588326416015626,9.196215629577637,0.7884350419044495,0.40378883481025696
1773048900882206500,12.59820654296875,11.638091087341309,-0.22193430364131927,0.8733802437782288
1773048900892022300,12.608022216796876,8.15234661102295,-1.1222338676452637,0.5042873620986938
1773048900902015000,12.618014892578126,8.267202377319336,1.0803594589233398,-0.18484555184841156
1773048900911978800,12.627978759765625,13.457832336425781,0.15613168478012085,0.18364913761615753
1773048900921968400,12.637968505859375,7.381259441375732,-0.31764721870422363,0.7393822073936462
1773048900931934700,12.647934814453125,6.413960933685303,0.3290131092071533,-0.06520441919565201
1773048900942114800,12.65811474609375,13.242478370666504,0.7836494445800781,0.5527420043945312
1773048900952146700,12.668146728515625,10.0343017578125,-0.3367897868156433,1.428515076637268
1773048900961952800,12.677952880859374,7.199405193328857,-0.8925228714942932,1.337587833404541
1773048900971926500,12.687926513671876,8.47298526763916,0.7262216806411743,-0.026919255033135414
1773048900982061600,12.6980615234375,13.189836502075195,0.026919255033135414,1.1270195245742798
1773048900992051500,12.708051513671874,10.666604995727539,-0.5377869009971619,0.7058826684951782
1773048901002015200,12.71801513671875,7.1611199378967285,0.1944168359041214,-0.5826523303985596
1773048901012002600,12.72800244140625,11.011171340942383,0.9224331378936768,-0.4624129831790924
1773048901021968600,12.73796875,11.441879272460938,-0.001794616924598813,1.160519003868103
1773048901031954000,12.747953857421875,8.976076126098633,-0.28893333673477173,0.9355936646461487
1773048901041922300,12.75792236328125,6.931408882141113,0.18005990982055664,-0.2997010350227356
1773048901051905800,12.76790576171875,12.44267749786377,0.486939400434494,0.6484549641609192
1773048901061785900,12.777785888671875,10.786246299743652,-1.4859428405761719,2.1852452754974365
1773048901071602200,12.787602294921875,6.7447686195373535,0.5300102233886719,-0.5252245664596558
1773048901081596400,12.797596435546875,10.345368385314941,0.6544370055198669,-0.9176474809646606
1773048901091559200,12.80755908203125,11.575878143310547,0.03170489892363548,1.074377417564392
1773048901101739000,12.817739013671876,10.029516220092773,-0.04007977992296219,1.1509476900100708
1773048901111771600,12.827771728515625,9.46899700164795,0.0364905446767807,-0.06520441919565201
1773048901121651700,12.837651611328125,11.303095817565918,-0.1453639715909958,0.9834501147270203
1773048901131467000,12.847467041015625,9.632308006286621,-0.2841476798057556,1.5242279767990112
1773048901141646800,12.857646728515626,8.382058143615723,0.18963119387626648,-0.12263216078281403
1773048901151679200,12.86767919921875,9.425926208496094,-0.2027917206287384,-0.6687939167022705
1773048901161559300,12.877559326171875,10.335797309875488,0.012562318705022335,0.7920243144035339
1773048901171374300,12.887374267578124,10.335797309875488,0.0891326442360878,1.155733346939087
1773048901181554400,12.897554443359375,9.838089942932129,0.3720839321613312,0.020937198773026466
1773048901191586800,12.9075869140625,9.492925643920898,-0.11186445504426956,0.24107688665390015
1773048901201467000,12.917466796875,9.272786140441895,0.4534398913383484,0.8446664214134216
1773048901211281700,12.92728173828125,9.93380355834961,0.3529413342475891,0.9690931439399719
1773048901221270800,12.937270751953125,11.398808479309082,-0.3367897868156433,0.9834501147270203
