time,seconds_elapsed,z,y,x
1773048888511167200,0.227167236328125,0,0,0
1773048888521115600,0.23711572265625,-0.179534912109375,-0.07629039883613586,0.07877451181411743
1773048888531098000,0.24709814453125,-0.15164661407470703,0.08933243155479431,-0.09088104963302612
1773048888540978200,0.256978271484375,-0.16039466857910156,0.09534522891044617,-0.09028345346450806
1773048888550858200,0.266858154296875,0.3312206268310547,0.049065738916397095,-0.07428598403930664
1773048888560702500,0.276702392578125,-0.05911540985107422,-0.0070733726024627686,0.2046414613723755
1773048888570882600,0.286882568359375,-0.3461141586303711,0.21941852569580078,-0.14166182279586792
1773048888580748000,0.296748046875,0.015550613403320312,0.14967365562915802,-0.29977482557296753
1773048888590614300,0.3066142578125,0.23081398010253906,-0.14387771487236023,0.7178098559379578
1773048888600696800,0.31669677734375,-0.12839126586914062,-0.2759339511394501,0.020905256271362305
1773048888610651400,0.3266513671875,-0.621490478515625,-0.007364034652709961,-0.3622041940689087
1773048888620831200,0.336831298828125,0.41321849822998047,0.3524162173271179,-0.10024791955947876
1773048888630946800,0.34694677734375,0.2886476516723633,0.46242791414260864,0.08383619785308838
1773048888640826600,0.35682666015625,-0.09648418426513672,0.14436212182044983,-0.32369840145111084
1773048888650706700,0.366706787109375,-0.19729900360107422,-0.3120674788951874,0.14466744661331177
1773048888660787000,0.376786865234375,0.30870628356933594,-0.08673989772796631,0.18194687366485596
1773048888670843400,0.386843505859375,-0.0067920684814453125,0.28722792863845825,-0.19551563262939453
1773048888680742100,0.3967421875,-0.06073570251464844,0.4743986427783966,0.08723253011703491
1773048888690734800,0.40673486328125,0.06030082702636719,-0.03617146611213684,0.4378066658973694
1773048888700615000,0.416614990234375,-0.37023258209228516,-0.17083805799484253,-0.23115646839141846
1773048888710495000,0.426494873046875,-0.22948551177978516,-0.06313815712928772,-0.45286235213279724
1773048888720646700,0.436646728515625,0.19682693481445312,0.08142705261707306,0.1306830644607544
1773048888730713000,0.446713134765625,0.4767141342163086,0.47131747007369995,-0.2905315160751343
1773048888740593200,0.45659326171875,-0.2816629409790039,0.07050906121730804,0.6030551195144653
1773048888750473200,0.46647314453125,0.3406820297241211,-0.19414126873016357,0.38075852394104004
1773048888760555800,0.4765556640625,-0.06367301940917969,-0.19198951125144958,-0.3584083318710327
1773048888770550300,0.48655029296875,-0.21343326568603516,0.11424174904823303,-0.12925755977630615
1773048888780509400,0.496509521484375,0.2650022506713867,0.4147193431854248,-0.2841969132423401
1773048888790489900,0.50648974609375,0.020172119140625,0.14083844423294067,0.09392911195755005
1773048888800463000,0.516463134765625,-0.2582063674926758,-0.06739813089370728,0.1275930404663086
1773048888810440400,0.5264404296875,-0.20349407196044922,-0.3106977045536041,-0.19216662645339966
1773048888820416300,0.536416259765625,0.26202964782714844,-0.04643341898918152,0.33878588676452637
1773048888830393300,0.546393310546875,0.2819375991821289,0.535689115524292,-0.028756260871887207
1773048888840369700,0.55636962890625,0.1203165054321289,0.5797501802444458,-0.11696183681488037
1773048888850346500,0.566346435546875,0.19120121002197266,-0.09239134192466736,0.3064884543418884
1773048888860323000,0.576322998046875,-0.3866758346557617,-0.4247938394546509,-0.24724826216697693
1773048888870300000,0.5862998046875,-0.4552888870239258,-0.36293938755989075,-0.41043993830680847
1773048888880276500,0.5962763671875,0.6520614624023438,0.052357420325279236,0.1218801736831665
1773048888890253300,0.60625341796875,0.19693374633789062,1.007181167602539,-0.23809322714805603
1773048888900230000,0.61622998046875,-0.027207374572753906,0.6261866092681885,0.30625271797180176
1773048888910206500,0.62620654296875,0.5196399688720703,-0.15452706813812256,0.6406607627868652
1773048888920183300,0.636183349609375,-1.170445442199707,-0.4177931845188141,-0.12313812971115112
1773048888930159900,0.646159912109375,-0.5492563247680664,-0.6015615463256836,0.19273805618286133
1773048888940136700,0.65613671875,1.2362213134765625,0.05869431793689728,-0.6042117476463318
1773048888950113300,0.66611328125,-0.6307039260864258,1.3436435461044312,-0.5566971898078918
1773048888960089900,0.67608984375,0.6057720184326172,0.6481912136077881,0.35229814052581787
1773048888970066700,0.686066650390625,1.3186941146850586,-0.39970171451568604,0.0861547589302063
1773048888980043300,0.696043212890625,-1.9617438316345215,-0.3417634963989258,0.4086458683013916
1773048888990019800,0.706019775390625,-0.406829833984375,-0.6937135457992554,0.6603525280952454
1773048888999996700,0.71599658203125,2.1343955993652344,0.21224625408649445,-0.602948009967804
1773048889009973200,0.72597314453125,-1.493271827697754,1.3890719413757324,-0.44725731015205383
1773048889019950000,0.7359501953125,0.6115188598632812,1.3049530982971191,0.28499919176101685
1773048889029926700,0.7459267578125,1.0503301620483398,-0.023989513516426086,-0.2186354398727417
1773048889039903500,0.755903564453125,-2.168398380279541,-0.9875858426094055,0.09795290231704712
1773048889049880000,0.765880126953125,-0.5068683624267578,-0.9736413955688477,0.6715865731239319
1773048889059857000,0.77585693359375,3.051325798034668,0.24344468116760254,-0.5526015162467957
1773048889069833500,0.78583349609375,-1.6309309005737305,1.3240889310836792,-0.7979975938796997
1773048889079810000,0.79581005859375,1.404728889465332,1.5719678401947021,0.37080079317092896
1773048889089787000,0.805786865234375,0.9424295425415039,0.2485053688287735,0.558083713054657
1773048889099763500,0.815763427734375,-2.8057827949523926,-0.4426264762878418,0.036061763763427734
1773048889109740300,0.825740234375,-1.2889652252197266,-2.116147041320801,0.82321697473526
1773048889119716900,0.835716796875,3.567920684814453,0.46058833599090576,-0.13245344161987305
1773048889129693700,0.845693603515625,-1.688096046447754,1.409462809562683,-0.9964028596878052
1773048889139670300,0.855670166015625,0.7233238220214844,1.569786787033081,-0.36416521668434143
1773048889149647000,0.865647216796875,1.239908218383789,0.8023195266723633,-0.1792846918106079
1773048889159623700,0.875623779296875,-2.7761330604553223,-0.44225963950157166,-0.1995866298675537
1773048889169600300,0.885600341796875,-0.047661781311035156,-0.8209095001220703,2.4049229621887207
1773048889179577000,0.8955771484375,2.8725032806396484,-1.986633062362671,-1.403022289276123
1773048889189553700,0.9055537109375,-1.5594472885131836,1.4119439125061035,-0.6782674789428711
1773048889199530500,0.915530517578125,1.4260454177856445,1.9176054000854492,-0.13353466987609863
1773048889209507000,0.925507080078125,0.2998466491699219,1.0444650650024414,0.6709473133087158
1773048889219484000,0.93548388671875,-3.872760772705078,0.10633404552936554,0.06305563449859619
1773048889229460500,0.94546044921875,0.1783456802368164,-0.6223695874214172,0.9642603993415833
1773048889239437300,0.955437255859375,3.874526023864746,-0.4408787488937378,-0.40338510274887085
1773048889249414000,0.965413818359375,-2.7868313789367676,0.7856135368347168,-0.9883808493614197
1773048889259390500,0.975390380859375,2.702939987182617,1.7325079441070557,-0.026232481002807617
1773048889269367300,0.9853671875,0.31195068359375,0.5323926210403442,0.017365872859954834
1773048889279343900,0.99534375,-4.389775276184082,-0.1653977632522583,-0.28342390060424805
1773048889289320700,1.00532080078125,0.013582229614257812,-0.6743079423904419,1.5168416500091553
1773048889299297300,1.01529736328125,4.268080711364746,-0.5529606938362122,0.39948099851608276
1773048889309274000,1.025274169921875,-2.5297560691833496,0.9269014596939087,-1.2134106159210205
1773048889319250700,1.035250732421875,2.1271657943725586,1.770754337310791,-0.3730389475822449
1773048889329227500,1.0452275390625,-0.08579349517822266,0.6675445437431335,-0.303208589553833
1773048889339204000,1.0552041015625,-4.895177364349365,-0.20345477759838104,-0.37030839920043945
1773048889349180700,1.0651806640625,2.15531063079834,-0.4563782215118408,0.09937655925750732
1773048889359157500,1.075157470703125,2.0925912857055664,-2.2665693759918213,-0.10286444425582886
1773048889369134000,1.085134033203125,-1.3868951797485352,1.1014742851257324,-0.38468945026397705
1773048889379111000,1.09511083984375,3.650867462158203,1.939314365386963,0.1777045726776123
1773048889389087500,1.10508740234375,-2.4780354499816895,0.6614229083061218,0.7660080790519714
1773048889399064300,1.115064208984375,-4.805248737335205,0.11106471717357635,0.8229118585586548
1773048889409041000,1.125041015625,4.417612075805664,-0.6300874948501587,0.31488943099975586
1773048889419017700,1.135017822265625,0.1382579803466797,-0.17870089411735535,-1.1277194023132324
1773048889428994300,1.144994384765625,-2.3422484397888184,1.1246813535690308,-0.5045919418334961
1773048889438971100,1.15497119140625,5.356997489929199,1.6424238681793213,0.8315398097038269
1773048889448947700,1.16494775390625,-2.8942456245422363,0.07279148697853088,1.0804396867752075
1773048889458924500,1.174924560546875,-5.228549480438232,-0.41544967889785767,0.5664398074150085
1773048889468901000,1.184901123046875,4.198877334594727,-0.8174657225608826,-0.11817723512649536
1773048889478878000,1.1948779296875,1.4251585006713867,-0.06081639602780342,-1.3904786109924316
1773048889488854500,1.2048544921875,-2.417123317718506,1.5374977588653564,-0.6861045360565186
1773048889498831000,1.2148310546875,4.584895133972168,2.1373422145843506,-0.259648859500885
1773048889508808000,1.224807861328125,-2.9244465827941895,-0.04097927734255791,1.1663752794265747
1773048889518784500,1.234784423828125,-4.71065616607666,-0.6656150221824646,0.6864548325538635
1773048889528761300,1.24476123046875,5.311089515686035,-1.2363731861114502,-0.13314944505691528
1773048889538738000,1.254738037109375,-0.7731666564941406,0.019603364169597626,-1.092768669128418
1773048889548714800,1.26471484375,-1.4658031463623047,1.321459174156189,-0.4567955434322357
1773048889558652700,1.274652587890625,4.705611228942871,2.2684555053710938,0.7271034717559814
1773048889568625400,1.28462548828125,-4.52664852142334,0.4157300591468811,-0.04112398624420166
1773048889578644700,1.294644775390625,-3.7200841903686523,-0.6638613939285278,0.608735203742981
1773048889588622300,1.304622314453125,7.114693641662598,-1.1917246580123901,-0.29616138339042664
1773048889598598100,1.31459814453125,-2.507524013519287,0.1309998631477356,-1.006678819656372
1773048889608575500,1.324575439453125,-0.0062389373779296875,1.5145835876464844,-0.3301335573196411
1773048889618551600,1.334551513671875,4.203832626342773,2.0968804359436035,0.25784969329833984
1773048889628529000,1.34452880859375,-6.796019554138184,0.2106960564851761,1.5420012474060059
1773048889638505000,1.3545048828125,-0.8498020172119141,-0.8032912015914917,0.18212133646011353
1773048889648482000,1.36448193359375,7.0445556640625,-0.993047833442688,-0.4146118760108948
1773048889658458400,1.374458251953125,-5.132331371307373,0.40911030769348145,-0.8090834617614746
1773048889668435500,1.384435546875,2.792957305908203,1.7613781690597534,-0.43462106585502625
1773048889678411800,1.394411865234375,2.8177547454833984,1.7065178155899048,-1.023040771484375
1773048889688388600,1.404388671875,-8.067407608032227,0.03703144192695618,2.1180450916290283
1773048889698365200,1.414365234375,2.779458999633789,-0.7945929169654846,0.25155144929885864
1773048889708342000,1.424342041015625,4.83889102935791,-0.6881804466247559,-0.6100241541862488
1773048889718318600,1.434318603515625,-5.388299465179443,0.7123984694480896,-0.6298830509185791
1773048889728295400,1.44429541015625,4.491959571838379,2.1998414993286133,-0.04379040002822876
1773048889738272000,1.45427197265625,-0.5411872863769531,1.146581768989563,1.581911325454712
1773048889748248800,1.464248779296875,-7.622304916381836,-0.3366885185241699,-0.3708364963531494
1773048889758225400,1.474225341796875,7.197918891906738,-0.9910953044891357,-0.6127908825874329
1773048889768202200,1.4842021484375,-0.038758277893066406,-0.17385968565940857,-0.420482873916626
1773048889778140000,1.494139892578125,-3.2113771438598633,1.0830373764038086,-0.08354902267456055
1773048889788113000,1.50411279296875,5.6747331619262695,2.2367467880249023,1.579516053199768
1773048889798132200,1.51413232421875,-4.252789497375488,0.4133632183074951,0.3907192349433899
1773048889808109800,1.52410986328125,-4.760393142700195,-0.5003178715705872,-0.5873968005180359
1773048889818046700,1.534046630859375,8.239370346069336,-0.7591352462768555,-0.3867289423942566
1773048889828020200,1.544020263671875,-3.3909740447998047,0.47545748949050903,-0.5844783186912537
1773048889838000000,1.554000244140625,0.4942922592163086,1.4850966930389404,0.7276013493537903
1773048889847974400,1.563974365234375,2.7857608795166016,1.605986475944519,1.1757073402404785
1773048889857953500,1.57395361328125,-6.68422794342041,-0.1995660364627838,-1.0800142288208008
1773048889867928300,1.58392822265625,2.986419677734375,-0.8065924644470215,0.2578347325325012
1773048889877945900,1.59394580078125,2.198361396789551,-0.05243751406669617,-0.47683945298194885
1773048889887924700,1.6039248046875,-3.0465545654296875,1.1872947216033936,-0.33341389894485474
1773048889897899300,1.613899169921875,4.230899810791016,1.8035565614700317,0.9580858945846558
1773048889907878000,1.6238779296875,-2.840334415435791,-0.004140302538871765,-0.38647305965423584
1773048889917814000,1.63381396484375,-3.7559423446655273,-0.02577728033065796,0.24026215076446533
1773048889927788300,1.643788330078125,6.753688812255859,-0.4507104158401489,-0.6309460401535034
1773048889937728500,1.653728515625,-3.104403495788574,0.5676840543746948,-0.24370980262756348
1773048889947699500,1.663699462890625,1.5823650360107422,1.983353614807129,1.2477233409881592
1773048889957565700,1.673565673828125,0.5968151092529297,0.2797803580760956,0.4384980797767639
1773048889967526000,1.68352587890625,-4.3141374588012695,-0.004217237234115601,-0.30169034004211426
1773048889977518800,1.693518798828125,3.9468326568603516,-0.2651117146015167,-0.6554157733917236
1773048889987482600,1.703482666015625,-0.8083829879760742,0.43691152334213257,-0.6472484469413757
1773048889997472300,1.71347216796875,-0.6262073516845703,1.4795438051223755,0.9790523648262024
1773048890007438300,1.723438232421875,1.831954002380371,0.33905547857284546,0.20683372020721436
1773048890017386800,1.73338671875,-2.2610020637512207,0.1105731725692749,-0.09157538414001465
1773048890027351000,1.74335107421875,0.8508310317993164,0.6593933701515198,-0.3826025128364563
1773048890037262600,1.7532626953125,0.4788980484008789,0.8696531057357788,0.5105010867118835
1773048890047221800,1.7632216796875,-0.6418523788452148,0.3806321620941162,0.14079052209854126
1773048890057177000,1.773177001953125,1.3407554626464844,-0.8065183162689209,-0.6365799903869629
1773048890067136000,1.783135986328125,-1.8214306831359863,0.46895405650138855,-0.6331405639648438
1773048890077091800,1.793091796875,0.9500608444213867,1.1737083196640015,0.1388605833053589
1773048890087050200,1.80305029296875,0.09210777282714844,1.1440211534500122,0.7542598247528076
1773048890097006300,1.81300634765625,-1.0789718627929688,-0.004028767347335815,0.7339283227920532
1773048890106964500,1.822964599609375,0.9020557403564453,-0.5260233879089355,-0.45939144492149353
1773048890116920800,1.8329208984375,-1.5441694259643555,0.8564733266830444,-0.34480080008506775
1773048890126879000,1.84287890625,1.4675798416137695,1.2975385189056396,-0.025015592575073242
1773048890136796700,1.852796630859375,0.6582927703857422,0.3051668405532837,-0.41053229570388794
1773048890146750700,1.862750732421875,-0.7726278305053711,-0.5423816442489624,0.3755314350128174
1773048890156634400,1.87263427734375,0.06004905700683594,0.579475998878479,0.5462499260902405
1773048890166581200,1.882581298828125,0.23563671112060547,1.268311858177185,-0.05385124683380127
1773048890176587000,1.8925869140625,1.0575056076049805,1.078800916671753,-0.2792947292327881
1773048890186540000,1.9025400390625,-0.828740119934082,-0.17361806333065033,0.6710867881774902
1773048890196501500,1.91250146484375,-1.0000677108764648,-0.47659754753112793,0.28220516443252563
1773048890206455300,1.922455322265625,-0.19459819793701172,0.681637167930603,-0.8266263008117676
1773048890216454700,1.93245458984375,0.02559947967529297,1.2765415906906128,-0.07977968454360962
1773048890226413000,1.9424130859375,1.2011032104492188,0.646033763885498,1.146966814994812
1773048890236593000,1.952593017578125,0.6467695236206055,-0.7712286710739136,0.07768505811691284
1773048890246773000,1.96277294921875,-1.2418651580810547,0.30343738198280334,-0.332243949174881
1773048890256952800,1.972952880859375,-0.1447772979736328,1.366763949394226,0.4734587073326111
1773048890267058200,1.98305810546875,1.0843591690063477,1.0091381072998047,-0.826811671257019
1773048890277014000,1.993013916015625,-0.07855796813964844,-0.31122642755508423,-0.029420197010040283
1773048890287007500,2.003007568359375,-1.4158058166503906,-0.5859050750732422,0.42674368619918823
1773048890296967400,2.012967529296875,-1.3981399536132812,0.9807775020599365,-0.43000173568725586
1773048890306957600,2.02295751953125,1.5900497436523438,1.2987523078918457,-0.04791980981826782
1773048890316921000,2.032921142578125,1.475947380065918,0.3458109498023987,0.015934884548187256
1773048890326908400,2.042908447265625,-1.0032539367675781,-0.5068334341049194,-0.790538489818573
1773048890336874500,2.05287451171875,-1.7403955459594727,0.8660950660705566,0.010356724262237549
1773048890346859800,2.06285986328125,1.897287368774414,1.3115402460098267,-0.11280077695846558
1773048890356828200,2.072828125,1.4538440704345703,0.21269190311431885,0.21499931812286377
1773048890366811600,2.082811767578125,-0.6778488159179688,-1.0853211879730225,0.35174012184143066
1773048890376781600,2.092781494140625,-2.121901035308838,0.42614251375198364,-0.34907472133636475
1773048890386763800,2.102763671875,0.46138763427734375,1.2806764841079712,-0.3925977945327759
1773048890396735000,2.11273486328125,2.649481773376465,1.0388909578323364,0.207544207572937
1773048890406716200,2.122716064453125,-0.7555112838745117,-0.8392777442932129,0.3144274353981018
1773048890416688400,2.1326884765625,-2.670729160308838,-0.014521569013595581,-0.2751324772834778
1773048890426668800,2.142668701171875,0.40577125549316406,1.2299413681030273,-0.015671730041503906
1773048890436641800,2.152641845703125,3.2662277221679688,0.964015007019043,0.5244457125663757
1773048890446621400,2.162621337890625,0.6964712142944336,-0.8523979187011719,0.11491084098815918
1773048890456595500,2.172595458984375,-2.441201686859131,-0.040859341621398926,-0.7271788120269775
1773048890466574300,2.18257421875,-0.5947208404541016,1.2241520881652832,0.15050554275512695
1773048890476548900,2.192548828125,2.871148109436035,1.0635712146759033,0.5928971171379089
1773048890486527200,2.20252734375,0.9513053894042969,-0.7883071899414062,0.032422423362731934
1773048890496502300,2.212502197265625,-2.45463228225708,-0.46627938747406006,-0.02951270341873169
1773048890506480400,2.22248046875,-1.480123519897461,1.0355209112167358,-0.18896561861038208
1773048890516455700,2.23245556640625,2.371718406677246,1.4035356044769287,0.2446994185447693
1773048890526433500,2.24243359375,2.0023250579833984,-0.11225154995918274,0.0801929235458374
1773048890536409000,2.2524091796875,-2.5382580757141113,-0.6729442477226257,0.6073299646377563
1773048890546387000,2.262386962890625,-1.7302227020263672,0.7541546821594238,-0.44699347019195557
1773048890556362500,2.272362548828125,1.7231578826904297,1.2751133441925049,0.21275466680526733
1773048890566340000,2.282340087890625,3.0581140518188477,-0.2486993819475174,0.20733535289764404
1773048890576316200,2.292316162109375,-1.8214068412780762,-0.5042974352836609,-0.013490498065948486
1773048890586293500,2.30229345703125,-3.3657636642456055,0.7940260767936707,-0.18575137853622437
1773048890596269600,2.31226953125,1.7202978134155273,1.3496755361557007,0.09961634874343872
1773048890606246700,2.32224658203125,3.408121109008789,-0.21822470426559448,0.7872229814529419
1773048890616223000,2.332222900390625,-2.030651569366455,-0.8933112621307373,0.09464836120605469
1773048890626200000,2.342199951171875,-4.017246246337891,0.5706558227539062,-0.7736196517944336
1773048890636176400,2.35217626953125,2.206263542175293,1.4562394618988037,-0.05107671022415161
1773048890646153500,2.362153564453125,4.477779388427734,0.17194655537605286,-0.03164052963256836
1773048890656129800,2.3721298828125,-2.8729891777038574,-0.5250439047813416,0.28055673837661743
1773048890666107000,2.38210693359375,-3.8505945205688477,0.6760879755020142,0.09045052528381348
1773048890676083200,2.392083251953125,2.1532135009765625,1.2827003002166748,-0.30196964740753174
1773048890686060300,2.402060302734375,3.8015670776367188,0.19826394319534302,0.26937103271484375
1773048890696036600,2.41203662109375,-1.878126621246338,-0.32526475191116333,0.2321816086769104
1773048890706013700,2.422013671875,-3.809041976928711,0.7053547501564026,-0.472280353307724
1773048890715990300,2.431990234375,1.4654951095581055,1.1738412380218506,0.600488543510437
1773048890725967000,2.441967041015625,2.816499710083008,-0.47443386912345886,0.1227906346321106
1773048890735943700,2.451943603515625,-1.70977783203125,0.05120956897735596,0.16947686672210693
1773048890745920500,2.46192041015625,-2.502805233001709,0.8783398270606995,-0.20027095079421997
1773048890755800300,2.47180029296875,2.360629081726074,0.6385155916213989,-0.8100035786628723
1773048890765660700,2.48166064453125,2.2211599349975586,-0.46876734495162964,0.36504197120666504
1773048890775850200,2.491850341796875,-1.8211607933044434,0.3469928205013275,1.1788188219070435
1773048890785831400,2.50183154296875,-1.517848014831543,0.647172212600708,-0.7956506013870239
1773048890795804000,2.511803955078125,1.0341978073120117,0.19945037364959717,0.36289703845977783
1773048890805784000,2.5217841796875,1.5681238174438477,-0.08564165234565735,0.0832754373550415
1773048890815757300,2.53175732421875,-1.4846115112304688,0.3669350743293762,0.0328332781791687
1773048890825736700,2.54173681640625,-1.0064945220947266,0.18500372767448425,0.38361287117004395
1773048890835749600,2.55174951171875,1.214395523071289,0.16888290643692017,-0.5411695241928101
1773048890845732400,2.561732421875,0.4892997741699219,-0.21959400177001953,0.27197378873825073
1773048890855664400,2.571664306640625,-0.2564201354980469,-0.12886512279510498,0.5717470645904541
1773048890865642000,2.58164208984375,-0.9368963241577148,0.469584584236145,-1.2494052648544312
1773048890875617800,2.59161767578125,1.198486328125,-0.05023875832557678,-0.3369835615158081
1773048890885595100,2.60159521484375,1.4221858978271484,-0.48413288593292236,1.1517983675003052
1773048890895571200,2.6115712890625,-1.9686341285705566,0.0567130446434021,-0.1871010661125183
1773048890905548500,2.621548583984375,-1.7316169738769531,0.10649150609970093,-0.4420698881149292
1773048890915524600,2.631524658203125,1.9945507049560547,-0.491680383682251,-0.1543835997581482
1773048890925502000,2.641501953125,0.3557548522949219,-0.3643479347229004,0.2949070334434509
1773048890935478000,2.65147802734375,-1.3383607864379883,0.2870200276374817,-0.697188675403595
1773048890945455000,2.661455078125,-0.884770393371582,-0.36122259497642517,0.14595186710357666
1773048890955431400,2.671431396484375,2.0034217834472656,-1.0859514474868774,0.3799014091491699
1773048890965408500,2.681408447265625,-0.13123130798339844,-0.18816830217838287,-0.2858177423477173
1773048890975385000,2.691385009765625,-0.979522705078125,-0.12900608777999878,0.4768831729888916
1773048890985362000,2.70136181640625,0.9934959411621094,-0.7299027442932129,-0.030419230461120605
1773048890995242000,2.711241943359375,-0.8844671249389648,-0.15949250757694244,-1.0213913917541504
1773048891005102000,2.72110205078125,-0.4517364501953125,-0.23648221790790558,1.6474769115447998
1773048891015291600,2.731291748046875,0.3986072540283203,-0.40686848759651184,-0.47427186369895935
1773048891025272800,2.74127294921875,-0.8568782806396484,-0.24844513833522797,-0.0913124680519104
1773048891035245300,2.751245361328125,0.9774875640869141,-0.6915038824081421,0.40447676181793213
1773048891045225500,2.7612255859375,-0.2806520462036133,-0.21369153261184692,-0.839747965335846
1773048891055105500,2.77110546875,-1.395263671875,-0.2879329025745392,0.77036452293396
1773048891064964900,2.78096484375,1.609572410583496,-0.7164325714111328,0.021039485931396484
1773048891075152000,2.79115185546875,0.4302244186401367,-0.5076013803482056,-0.311806857585907
1773048891085135000,2.801135009765625,-0.7875452041625977,-0.2879311144351959,1.0687603950500488
1773048891095105500,2.81110546875,-0.11699581146240234,-0.13193751871585846,-0.6597474813461304
1773048891105087500,2.82108740234375,0.12201309204101562,-0.5032817125320435,-0.7152425646781921
1773048891115059000,2.831058837890625,-0.15515804290771484,-0.20586638152599335,0.7838777899742126
1773048891125039900,2.841039794921875,-1.4565839767456055,-0.22674517333507538,0.6864731907844543
1773048891135012400,2.851012451171875,0.8954706192016602,-0.530799150466919,-0.8901667594909668
1773048891144992500,2.860992431640625,0.586944580078125,-0.1932608038187027,-0.4933328330516815
1773048891154872600,2.87087255859375,-0.4835538864135742,-0.06649783253669739,0.8115321397781372
1773048891164732000,2.88073193359375,-0.10013866424560547,0.029779285192489624,-0.5318647623062134
1773048891174919200,2.890919189453125,0.8161478042602539,-0.48106294870376587,-0.31475168466567993
1773048891184902400,2.90090234375,0.3838157653808594,0.22423747181892395,0.6914815902709961
1773048891194872800,2.910872802734375,-1.711258888244629,0.18421155214309692,-0.4014284610748291
1773048891204854500,2.9208544921875,1.409067153930664,-0.48190709948539734,-1.0614979267120361
1773048891214826200,2.930826171875,0.35425281524658203,0.30300024151802063,-0.1650393009185791
1773048891224807000,2.940806884765625,-1.5251636505126953,0.4932089149951935,1.8297861814498901
1773048891234779600,2.950779541015625,1.127608299255371,-0.12078557908535004,-0.7831176519393921
1773048891244759800,2.960759765625,-0.0077571868896484375,0.17557930946350098,-1.3254423141479492
1773048891254733000,2.970733154296875,-0.06421947479248047,0.6621091365814209,0.9363607168197632
1773048891264712400,2.98071240234375,0.8334541320800781,0.25937554240226746,-0.0937349796295166
1773048891274686700,2.990686767578125,0.9642677307128906,0.02885398268699646,-0.16534918546676636
1773048891284665300,3.000665283203125,-1.1188602447509766,0.5334903001785278,0.2534552812576294
1773048891294640000,3.01064013671875,-0.30815601348876953,0.9952854514122009,-0.7138115763664246
1773048891304618500,3.020618408203125,2.708329200744629,0.32472679018974304,0.7468844652175903
1773048891314593500,3.030593505859375,-1.0602874755859375,0.40861067175865173,0.19544607400894165
1773048891324571600,3.040571533203125,-1.6711359024047852,0.8307490348815918,-0.9584516286849976
1773048891334547000,3.050546875,1.698105812072754,1.0947985649108887,1.2915500402450562
1773048891344524800,3.06052490234375,1.014449119567871,0.4967074692249298,-0.7382746934890747
1773048891354500600,3.07050048828125,-3.187398910522461,0.4644239544868469,-1.1087729930877686
1773048891364478000,3.08047802734375,1.6523418426513672,1.1332740783691406,1.6963329315185547
1773048891374454000,3.0904541015625,1.5654354095458984,0.4345782399177551,-0.12092870473861694
1773048891384431400,3.100431396484375,-2.466261386871338,0.544775128364563,-1.0366638898849487
1773048891394407400,3.110407470703125,0.6054964065551758,1.051590085029602,1.1376756429672241
1773048891404384500,3.120384521484375,2.8025999069213867,-0.5271431803703308,1.122698187828064
1773048891414360800,3.13036083984375,-2.1685690879821777,0.19518014788627625,-0.19650453329086304
1773048891424338000,3.140337890625,-0.5913934707641602,0.7530272603034973,-0.13367170095443726
1773048891434159000,3.1501591796875,2.54019832611084,-0.09544304013252258,0.5127124786376953
1773048891444120600,3.16012060546875,-2.3351988792419434,0.05082082748413086,0.1493796706199646
1773048891454267600,3.170267578125,-1.597367286682129,0.7411922216415405,0.7294142246246338
1773048891464247800,3.180247802734375,1.027226448059082,0.685391366481781,-0.2660485506057739
1773048891474221000,3.190220947265625,-0.61749267578125,0.07098326086997986,0.5229856371879578
1773048891484200700,3.20020068359375,0.7155790328979492,-0.6036638617515564,0.40585124492645264
1773048891494174500,3.210174560546875,-0.20319461822509766,-0.149956613779068,-1.5313173532485962
1773048891504153600,3.220153564453125,-0.5409679412841797,-0.0978512167930603,1.6481021642684937
1773048891514033700,3.23003369140625,1.622406005859375,-0.2975804805755615,-0.08327597379684448
1773048891523893200,3.239893310546875,-0.010083198547363281,-0.399684876203537,-1.6983754634857178
1773048891534081300,3.250081298828125,-1.4034538269042969,0.4098964035511017,-0.03994035720825195
1773048891544063700,3.260063720703125,0.6390752792358398,-0.2760830521583557,1.1641513109207153
1773048891554034700,3.27003466796875,0.9801158905029297,-0.19173358380794525,-0.9469413757324219
1773048891564016000,3.28001611328125,-3.1422042846679688,0.02853640913963318,-0.24000751972198486
1773048891573988400,3.28998828125,1.072321891784668,0.5237583518028259,0.4407556653022766
1773048891583968500,3.299968505859375,2.0709781646728516,-0.6217469573020935,0.05401808023452759
1773048891593941800,3.309941650390625,-0.36978912353515625,0.18281036615371704,-0.7879282832145691
1773048891603921400,3.31992138671875,-0.11102962493896484,0.48184463381767273,0.23621541261672974
1773048891613801500,3.329801513671875,2.7615365982055664,-0.3211727440357208,-0.972983717918396
1773048891623661000,3.3396611328125,-1.785764217376709,0.2999652028083801,0.45827674865722656
1773048891633848600,3.3498486328125,0.3248434066772461,0.38309037685394287,-0.4940168559551239
1773048891643831300,3.359831298828125,-0.5691394805908203,0.389517217874527,-0.9311379790306091
1773048891653802000,3.369802001953125,0.1347675323486328,0.8628438711166382,1.1563242673873901
1773048891663783700,3.37978369140625,0.49227237701416016,0.6179114580154419,-0.09774786233901978
1773048891673755400,3.38975537109375,-1.313582420349121,0.5560725927352905,-1.0223532915115356
1773048891683736000,3.399736083984375,0.5279932022094727,0.9468377828598022,1.098405122756958
1773048891693709000,3.409708984375,1.8858661651611328,0.689720630645752,-0.9892441034317017
1773048891703688700,3.419688720703125,-1.7327194213867188,0.8504268527030945,0.266512930393219
1773048891713662500,3.429662353515625,2.506476402282715,0.873192548751831,0.2207682728767395
1773048891723641600,3.4396416015625,-1.2145090103149414,0.6327011585235596,-0.9737856388092041
1773048891733615900,3.449615966796875,-0.3935260772705078,1.475705862045288,2.104377269744873
1773048891743594500,3.459594482421875,2.1891517639160156,0.9830889105796814,-0.724297285079956
1773048891753569300,3.4695693359375,-3.5880584716796875,0.40623512864112854,-1.1355654001235962
1773048891763547600,3.479547607421875,1.6556377410888672,1.4052913188934326,1.4961992502212524
1773048891773522700,3.489522705078125,-0.03065013885498047,0.7678611278533936,-0.7832675576210022
1773048891783500800,3.499500732421875,-0.707453727722168,0.7829145193099976,-0.9845445156097412
1773048891793380900,3.509380859375,0.8420209884643555,1.51771879196167,1.9251854419708252
1773048891803240700,3.51924072265625,-0.08202838897705078,0.7857356071472168,-0.6893605589866638
1773048891813429500,3.529429443359375,0.4966259002685547,0.7267367839813232,-1.1968806982040405
1773048891823411500,3.539411376953125,-0.45490264892578125,1.059444785118103,-0.6894863843917847
1773048891833383000,3.5493828125,0.057618141174316406,0.8542265892028809,-0.0888490080833435
1773048891843363800,3.55936376953125,-0.22379589080810547,0.8773452043533325,1.333871603012085
1773048891853336600,3.569336669921875,-1.6128931045532227,0.611110270023346,-0.5704139471054077
1773048891863316500,3.57931640625,1.5006437301635742,1.3404017686843872,0.2892179489135742
1773048891873290000,3.5892900390625,-1.1051826477050781,0.993902325630188,-0.7233315110206604
1773048891883269400,3.599269287109375,-0.8817472457885742,0.5576843023300171,-0.9354169368743896
1773048891893149200,3.609149169921875,2.868427276611328,1.1972144842147827,1.125509262084961
1773048891903009000,3.619009033203125,-1.356125831604004,0.6013191342353821,-0.01569974422454834
1773048891913196800,3.62919677734375,0.2103290557861328,1.1283270120620728,-1.2724535465240479
1773048891923179500,3.639179443359375,0.42873668670654297,1.104098916053772,1.2748217582702637
1773048891933150200,3.649150146484375,0.594660758972168,1.0508183240890503,-0.2272028923034668
1773048891943131600,3.659131591796875,-0.9006872177124023,0.9447088241577148,1.0647268295288086
1773048891953104000,3.669103759765625,-1.2611570358276367,0.4907316565513611,-1.14485502243042
1773048891963084300,3.679084228515625,1.5310401916503906,1.0698481798171997,-0.7604799270629883
1773048891973057300,3.689057373046875,-1.3187379837036133,0.9213238954544067,2.0819733142852783
1773048891983037000,3.699036865234375,-0.2978334426879883,0.7377300262451172,-0.871698796749115
1773048891993010700,3.7090107421875,0.8055524826049805,0.9511680603027344,-0.30269306898117065
1773048892002989800,3.71898974609375,0.8169641494750977,1.034001111984253,1.0140032768249512
1773048892012964000,3.728964111328125,-1.4915733337402344,0.5436679720878601,-1.1230523586273193
1773048892022942700,3.738942626953125,-0.1261129379272461,0.8383184671401978,0.10234969854354858
1773048892032917500,3.74891748046875,0.6474237442016602,0.9199119210243225,0.20437580347061157
1773048892042896000,3.758895751953125,-0.8537683486938477,0.9205321073532104,0.6794686913490295
1773048892052871200,3.76887109375,0.8341035842895508,0.6079784035682678,-0.7112792730331421
1773048892062849000,3.77884912109375,-0.2281494140625,-0.09200507402420044,-1.3784737586975098
1773048892072824600,3.788824462890625,-0.6241159439086914,0.7494773268699646,1.1874550580978394
1773048892082802200,3.79880224609375,0.7330121994018555,0.8484519720077515,0.7970384955406189
1773048892092778000,3.808778076171875,1.906144142150879,0.5377125144004822,-1.6668636798858643
1773048892102755600,3.818755615234375,-1.4077062606811523,0.4213252663612366,-0.4466246962547302
1773048892112731400,3.8287314453125,-0.32046031951904297,0.7297830581665039,0.49948471784591675
1773048892122708700,3.838708740234375,1.8092374801635742,1.1736183166503906,1.090346336364746
1773048892132684800,3.848684814453125,0.8015384674072266,0.5304862856864929,-1.2008365392684937
1773048892142662100,3.858662109375,-2.265784740447998,0.24465417861938477,-0.7777067422866821
1773048892152638200,3.86863818359375,0.9344968795776367,0.8613579273223877,1.8282387256622314
1773048892162615600,3.878615478515625,0.859044075012207,0.9003638625144958,-1.4541089534759521
1773048892172591600,3.888591552734375,-0.09770393371582031,0.765953779220581,-0.747930645942688
1773048892182568700,3.898568603515625,-0.04080772399902344,0.8727875351905823,1.0345971584320068
1773048892192545300,3.908545166015625,-0.1032257080078125,1.1558339595794678,0.5127786993980408
1773048892202522000,3.918522216796875,1.010406494140625,0.7818943858146667,-0.6833133697509766
1773048892212498700,3.928498779296875,-1.097609519958496,0.8352585434913635,0.24266529083251953
1773048892222475500,3.9384755859375,1.407027244567871,1.3304224014282227,0.4838505983352661
1773048892232452000,3.9484521484375,-0.6216087341308594,1.0739150047302246,0.40627920627593994
1773048892242429000,3.958428955078125,1.5919885635375977,0.8187086582183838,-0.6760221123695374
1773048892252405500,3.968405517578125,-2.0072760581970215,0.7449948191642761,0.1241191029548645
1773048892262382300,3.97838232421875,0.681243896484375,1.0231529474258423,0.5399358868598938
1773048892272359000,3.98835888671875,0.8075637817382812,0.7313466668128967,-1.140086054801941
1773048892282335700,3.998335693359375,0.19049835205078125,0.826059877872467,-0.7992396950721741
1773048892292312300,4.008312255859375,-1.0603361129760742,0.5969260334968567,0.2540244460105896
1773048892302289200,4.0182890625,-0.17462730407714844,1.0625276565551758,0.734110414981842
1773048892312265700,4.028265625,1.3340396881103516,0.8053656816482544,-1.2943847179412842
1773048892322242600,4.03824267578125,-0.9374876022338867,0.4257205128669739,-0.6624969840049744
1773048892332219400,4.048219482421875,-0.05074787139892578,0.6654677391052246,-0.47656872868537903
1773048892342196000,4.058196044921875,-0.1462993621826172,0.810576319694519,1.4954214096069336
1773048892352172800,4.0681728515625,-0.10409259796142578,1.6403045654296875,0.9271368384361267
1773048892362149400,4.0781494140625,0.6507635116577148,0.6336667537689209,-1.4974486827850342
1773048892372126200,4.088126220703125,-0.9018945693969727,0.5201913118362427,-0.5142078399658203
1773048892382102800,4.098102783203125,-0.5034189224243164,0.7234816551208496,1.1817126274108887
1773048892391982800,4.10798291015625,1.1492080688476562,0.8163484930992126,-0.12382292747497559
1773048892401843200,4.11784326171875,0.0720224380493164,1.1820707321166992,0.1195753812789917
1773048892412032800,4.12803271484375,-0.5054845809936523,0.911876916885376,-0.5240011215209961
1773048892422014000,4.138013916015625,0.08795452117919922,0.5767636895179749,0.16462039947509766
1773048892431986400,4.147986328125,-0.1802349090576172,0.7489486932754517,1.391402006149292
1773048892441966600,4.157966552734375,-0.4809398651123047,0.6520293354988098,-0.9785043001174927
1773048892451939800,4.16793994140625,0.6481332778930664,1.1266217231750488,-1.1120378971099854
1773048892461919200,4.177919189453125,-0.8199930191040039,0.48332375288009644,-0.5670371651649475
1773048892471893200,4.187893310546875,-1.2426567077636719,0.5761603116989136,0.4245418310165405
1773048892481872100,4.1978720703125,2.6159543991088867,2.5894832611083984,0.5269207954406738
1773048892491752200,4.207752197265625,-1.0965404510498047,0.45413070917129517,0.3117821216583252
1773048892501612000,4.217612060546875,0.5099658966064453,0.4796651005744934,-0.6185345649719238
1773048892531754200,4.247754150390625,-0.33960914611816406,2.880079984664917,0.34420061111450195
1773048892541716700,4.257716796875,-1.6611719131469727,-0.4391326606273651,1.7958893775939941
1773048892551707400,4.267707275390625,-0.1123199462890625,1.8544261455535889,-2.9941599369049072
1773048892561673000,4.2776728515625,2.580564498901367,0.3503991365432739,-1.2520720958709717
1773048892571660800,4.287660888671875,0.4783592224121094,0.7932179570198059,-0.005079686641693115
1773048892581628700,4.297628662109375,-0.6011686325073242,1.3616902828216553,0.03208285570144653
1773048892591614200,4.3076142578125,-1.2006330490112305,0.48193466663360596,2.3456177711486816
1773048892601583900,4.317583984375,0.5584068298339844,0.7084546089172363,-1.063614010810852
1773048892611567600,4.327567626953125,1.190566062927246,-0.8089151382446289,-1.2926362752914429
1773048892621538600,4.33753857421875,-0.1996603012084961,-1.4737441539764404,1.632785677909851
1773048892631521000,4.34752099609375,-1.5578031539916992,-0.9817227125167847,-0.02274399995803833
1773048892641493200,4.3574931640625,1.3341636657714844,-1.365776777267456,-0.025617778301239014
1773048892651474400,4.367474365234375,-1.2075328826904297,-1.4522277116775513,1.1854918003082275
1773048892661447400,4.377447509765625,-1.5353412628173828,-1.0984405279159546,-0.923214852809906
1773048892671427800,4.387427734375,0.5459632873535156,-1.3823707103729248,0.06183379888534546
1773048892681401600,4.397401611328125,-0.74078369140625,-1.2980660200119019,2.447326183319092
1773048892691381200,4.40738134765625,-1.0363140106201172,-1.0972304344177246,0.14413726329803467
1773048892701355500,4.41735546875,-0.007672309875488281,-1.028352975845337,-1.6538646221160889
1773048892711334700,4.427334716796875,-0.28991222381591797,-1.2696090936660767,-0.3442234992980957
1773048892721309400,4.437309326171875,-0.5145254135131836,-1.250638484954834,-0.4813143014907837
1773048892731288000,4.4472880859375,-1.0045890808105469,-1.2297561168670654,1.1659588813781738
1773048892741263400,4.457263427734375,3.2445201873779297,-1.2159286737442017,0.11639320850372314
1773048892751241500,4.467241455078125,-3.173603057861328,-0.8398188948631287,-1.574163556098938
1773048892761217000,4.477217041015625,-0.15208721160888672,-1.2242162227630615,-0.518958330154419
1773048892771195000,4.48719482421875,0.7312908172607422,-1.504179835319519,1.6567268371582031
1773048892781170700,4.497170654296875,1.6027717590332031,-1.125673532485962,0.004131734371185303
1773048892791148300,4.507148193359375,-3.091803550720215,-0.8926732540130615,-1.413010597229004
1773048892801124400,4.517124267578125,0.7178554534912109,-1.1828868389129639,0.3656765818595886
1773048892811004400,4.52700439453125,1.2499160766601562,-1.375017762184143,0.32296615839004517
1773048892820864800,4.53686474609375,-0.15767574310302734,-1.2595571279525757,0.6248323917388916
1773048892831055000,4.54705517578125,0.6411933898925781,-1.1490147113800049,-0.41596588492393494
1773048892841035500,4.557035400390625,-0.9695959091186523,-1.492783546447754,0.594871997833252
1773048892851008500,4.567008544921875,1.27679443359375,-1.2122530937194824,-0.5967773795127869
1773048892860988400,4.576988525390625,-0.5183753967285156,-1.0103542804718018,-0.8974955081939697
1773048892870962000,4.5869619140625,0.3287162780761719,-1.1869922876358032,-0.05638378858566284
1773048892880941000,4.596941162109375,0.13741493225097656,-1.511113166809082,0.8133521676063538
1773048892890915600,4.60691552734375,0.8674039840698242,-1.1429882049560547,-0.10085827112197876
1773048892900894200,4.616894287109375,0.48306941986083984,-1.3103705644607544,-0.12507861852645874
1773048892910869000,4.626868896484375,-0.32979869842529297,-0.8682857751846313,0.0863732099533081
1773048892920847000,4.63684716796875,1.0416460037231445,-1.2915676832199097,0.9584714770317078
1773048892930822400,4.646822509765625,0.46090030670166016,-1.1690219640731812,0.09409546852111816
1773048892940800300,4.65680029296875,-1.0726613998413086,-1.0567264556884766,-0.49899736046791077
1773048892950775800,4.66677587890625,1.3705215454101562,-1.3670251369476318,1.06431245803833
1773048892960753700,4.676753662109375,-0.36682987213134766,-0.8717375993728638,-0.3224063515663147
1773048892970729200,4.686729248046875,0.6707344055175781,-1.1386525630950928,-0.6043500304222107
1773048892980706800,4.696706787109375,-0.5111541748046875,-1.090558409690857,-0.39967912435531616
1773048892990586600,4.706586669921875,-0.16644001007080078,-1.3939425945281982,1.4226950407028198
1773048893000447000,4.716447021484375,1.1618518829345703,-0.8636683225631714,-1.2201902866363525
1773048893010636000,4.726635986328125,0.2237110137939453,-1.2140858173370361,1.2285089492797852
1773048893020617500,4.736617431640625,-0.43660545349121094,-1.1383317708969116,-0.2863844037055969
1773048893030589400,4.74658935546875,-2.666222095489502,-0.8866704702377319,0.7185745239257812
1773048893040569900,4.75656982421875,2.9424638748168945,-0.9134141802787781,-0.3495786190032959
1773048893050542800,4.76654296875,-0.21211814880371094,-1.4458026885986328,0.3365159034729004
1773048893060522800,4.776522705078125,-2.0738415718078613,-1.0463182926177979,0.09002906084060669
1773048893070496300,4.786496337890625,0.7490806579589844,-1.3164119720458984,0.3478982448577881
1773048893080475600,4.7964755859375,1.2291488647460938,-0.9386329650878906,-1.0680402517318726
1773048893090355500,4.80635546875,-1.174983024597168,-0.8116645812988281,-0.7187357544898987
1773048893100215300,4.81621533203125,-1.610661506652832,-1.1626150608062744,1.345177173614502
1773048893110403000,4.826403076171875,0.6326417922973633,-1.1568715572357178,-0.5404829382896423
1773048893120385500,4.836385498046875,0.24930572509765625,-1.0470921993255615,-0.9095051288604736
1773048893130356500,4.8463564453125,-1.331559181213379,-1.0332382917404175,1.8172967433929443
1773048893140338000,4.856337890625,1.4310359954833984,-0.9886813163757324,-0.6508601903915405
1773048893150310100,4.86631005859375,-2.0834240913391113,-1.0962098836898804,1.3119280338287354
1773048893160290600,4.87629052734375,1.403585433959961,-1.1622929573059082,-0.3111609220504761
1773048893170263600,4.886263671875,-0.9493770599365234,-1.166603446006775,0.008917033672332764
1773048893180243200,4.8962431640625,-0.5458183288574219,-1.066671371459961,0.022646784782409668
1773048893190217000,4.906217041015625,0.09081745147705078,-0.9627712965011597,-1.0241669416427612
1773048893200196000,4.916196044921875,0.34880733489990234,-1.2075395584106445,0.6933006048202515
1773048893210076000,4.926075927734375,-0.4402017593383789,-0.9652942419052124,1.1979408264160156
1773048893219935700,4.935935791015625,-0.534611701965332,-0.6677428483963013,-1.2453821897506714
1773048893230123800,4.946123779296875,-0.8581314086914062,-0.9456468224525452,-0.7048382759094238
1773048893240106200,4.956106201171875,-0.8895769119262695,-1.2624667882919312,1.970022201538086
1773048893250077200,4.9660771484375,-0.13243579864501953,-0.9049949645996094,-0.4633197486400604
1773048893260058400,4.976058349609375,2.351869583129883,-1.2234158515930176,0.25176578760147095
1773048893270030600,4.986030517578125,-1.2451963424682617,-1.2104017734527588,0.47617000341415405
1773048893280011000,4.996010986328125,0.13329505920410156,-0.8203281164169312,-1.179579734802246
1773048893289984000,5.00598388671875,0.3666543960571289,-0.9223750829696655,1.277550220489502
1773048893299963600,5.015963623046875,1.1439037322998047,-1.1987800598144531,0.11677032709121704
1773048893309937400,5.0259375,-2.5312485694885254,-0.5899988412857056,-1.3067612648010254
1773048893319916500,5.03591650390625,0.6188516616821289,-0.9569706916809082,-0.1582927107810974
1773048893329891000,5.04589111328125,0.35883045196533203,-1.3662517070770264,0.8086640238761902
1773048893339869400,5.055869384765625,-0.38779544830322266,-0.794833242893219,0.36748212575912476
1773048893349844200,5.06584423828125,1.905928611755371,-0.8924286365509033,-0.7400867342948914
1773048893359822600,5.075822509765625,-1.37481689453125,-1.4854294061660767,1.4715685844421387
1773048893369798000,5.0857978515625,0.22763729095458984,-0.9770815968513489,-0.9657949209213257
1773048893379775700,5.095775634765625,0.8948154449462891,-0.593553900718689,-1.0413516759872437
1773048893389751300,5.105751220703125,1.2653617858886719,-1.1408056020736694,2.8317487239837646
1773048893399729000,5.11572900390625,-2.11436128616333,-0.7937480211257935,-0.7005133628845215
1773048893409704700,5.12570458984375,0.39444446563720703,-0.9883924126625061,-0.7593452334403992
1773048893419682300,5.135682373046875,0.12086296081542969,-1.0692431926727295,0.8003820776939392
1773048893429658000,5.145658203125,0.9316253662109375,-1.1880301237106323,1.806962490081787
1773048893439635500,5.155635498046875,-0.7000951766967773,-0.659132719039917,-1.8314495086669922
1773048893449611500,5.165611572265625,-0.9466476440429688,-0.7247308492660522,-0.29636168479919434
1773048893459588600,5.175588623046875,-0.055568695068359375,-0.754504382610321,-0.8907824754714966
1773048893469565000,5.18556494140625,-0.03951454162597656,-1.303127408027649,1.0114820003509521
1773048893479542000,5.1955419921875,-0.14389610290527344,-1.2653874158859253,0.7191092371940613
1773048893489518300,5.205518310546875,0.018472671508789062,-0.886249303817749,-0.5763458609580994
1773048893499495400,5.215495361328125,-1.3286733627319336,-1.1612391471862793,1.146540641784668
1773048893509471700,5.2254716796875,-0.3849048614501953,-0.9751423001289368,-0.632432758808136
1773048893519448800,5.23544873046875,0.25079822540283203,-0.9689053297042847,-0.6762609481811523
1773048893529425200,5.245425048828125,-1.0965843200683594,-1.0586222410202026,1.1577997207641602
1773048893539402200,5.25540234375,-0.029127120971679688,-1.0672860145568848,-0.030572235584259033
1773048893559355600,5.275355712890625,1.5310134887695312,-1.0399982929229736,-0.12719887495040894
1773048893569332200,5.285332275390625,-1.066476821899414,-1.4302551746368408,1.2142947912216187
1773048893579308800,5.295308837890625,-0.3192005157470703,-0.634282112121582,-1.0340393781661987
1773048893589285400,5.305285400390625,1.3865985870361328,-1.0772684812545776,0.595061182975769
1773048893599262200,5.31526220703125,-0.7948455810546875,-1.123763918876648,0.5480437278747559
1773048893609239000,5.325239013671875,-1.4422607421875,-0.19235080480575562,-1.5439949035644531
1773048893619215600,5.335215576171875,1.9283294677734375,-1.3634190559387207,2.8385021686553955
1773048893629192400,5.3451923828125,-0.5558195114135742,-0.879075288772583,-1.082198143005371
1773048893639169000,5.3551689453125,-1.4037189483642578,-0.6176995038986206,-1.3664937019348145
1773048893649145900,5.365145751953125,1.203080177307129,-0.7790002822875977,-0.23952031135559082
1773048893659122400,5.375122314453125,0.7506952285766602,-1.1441752910614014,0.7359235882759094
1773048893669099300,5.385099365234375,-1.3525209426879883,-0.7169057130813599,-1.084282398223877
1773048893679075800,5.395075927734375,-0.22637653350830078,-1.5862668752670288,3.67753529548645
1773048893689052700,5.405052734375,2.2423858642578125,-0.9844251871109009,-0.9690679907798767
1773048893699029200,5.415029296875,0.2632474899291992,-0.8483038544654846,-1.251725435256958
1773048893709006000,5.425006103515625,-1.800248622894287,-0.8112528324127197,-0.1485053300857544
1773048893718982700,5.434982666015625,1.9730110168457031,-1.4430427551269531,2.719916343688965
1773048893728959500,5.44495947265625,1.050410270690918,-0.9668998718261719,-1.0478358268737793
1773048893738936000,5.45493603515625,-2.9974122047424316,-0.6928414106369019,-1.208165168762207
1773048893748913000,5.464912841796875,0.5781211853027344,-1.0973668098449707,1.6936522722244263
1773048893768866300,5.4848662109375,-2.2578225135803223,-0.7031635046005249,-1.3741201162338257
1773048893778843000,5.4948427734375,-1.7350854873657227,-0.6667256355285645,-0.6874617338180542
1773048893788819700,5.50481982421875,2.634110450744629,-1.4498934745788574,2.222277879714966
1773048893798796500,5.514796630859375,0.8973283767700195,-0.8348985314369202,-1.114352822303772
1773048893808773000,5.524773193359375,-2.0842881202697754,-0.6018132567405701,-1.0194756984710693
1773048893818750000,5.53475,-0.005619049072265625,-1.1952519416809082,1.1369011402130127
1773048893828726500,5.5447265625,-0.7755641937255859,-0.7624489665031433,0.6015585064888
1773048893838703400,5.554703369140625,0.5440406799316406,-0.9210761785507202,0.15355145931243896
1773048893848680000,5.564679931640625,-1.5972814559936523,-0.6257147789001465,-1.2388253211975098
1773048893858656800,5.57465673828125,-0.022045135498046875,-0.855506181716919,-0.6878278255462646
1773048893868633300,5.58463330078125,0.26363372802734375,-1.2022780179977417,0.9056705236434937
1773048893878610200,5.594610107421875,0.41516590118408203,-0.6157699227333069,1.5851962566375732
1773048893898562800,5.614562744140625,-3.9311838150024414,-0.6684106588363647,-1.056177020072937
1773048893908563200,5.624563232421875,-0.3208026885986328,-0.8651471138000488,0.24038416147232056
1773048893918516200,5.63451611328125,4.111791610717773,-1.3502624034881592,1.0486226081848145
1773048893928512000,5.644511962890625,-0.34911441802978516,-0.8493446111679077,-0.7733061909675598
1773048893938470000,5.654469970703125,-3.5658607482910156,-0.9107677340507507,1.7144486904144287
1773048893948461600,5.664461669921875,2.0918779373168945,-0.7775113582611084,-0.5945249795913696
1773048893958423300,5.67442333984375,-1.5783185958862305,-0.7170644998550415,-1.3350799083709717
1773048893968412200,5.684412109375,-0.9334039688110352,-0.6589997410774231,-0.8392771482467651
1773048893978377000,5.694376953125,2.1273975372314453,-0.9744594693183899,-0.1613774299621582
1773048893988363300,5.70436328125,-2.056746006011963,-1.2489869594573975,1.4638996124267578
1773048893998330400,5.714330322265625,0.33051300048828125,-0.858000636100769,-0.5734025835990906
1773048894008315000,5.72431494140625,0.9552087783813477,-0.7368058562278748,-1.3574504852294922
1773048894018283800,5.73428369140625,1.5029792785644531,-0.9374395608901978,1.066246509552002
1773048894028266800,5.744266845703125,-2.8325963020324707,-0.8903390765190125,1.3144278526306152
1773048894038237200,5.7542373046875,-1.8895611763000488,-0.1983121782541275,-1.7386245727539062
1773048894048219000,5.764218994140625,2.7523698806762695,-0.6589802503585815,-0.40128013491630554
1773048894058152000,5.77415185546875,-1.4339017868041992,-0.7441756725311279,-1.0411903858184814
1773048894068128800,5.784128662109375,-2.3221449851989746,-0.5805431604385376,-0.5654833316802979
1773048894078008600,5.794008544921875,3.430360794067383,-1.2957632541656494,3.191408395767212
1773048894087888600,5.803888671875,1.2144365310668945,-0.8920366764068604,-0.4156958758831024
1773048894098058500,5.81405859375,-2.619422435760498,-0.44738298654556274,-1.5446053743362427
1773048894108042200,5.824042236328125,-0.00952911376953125,-0.7536903619766235,-0.4047751724720001
1773048894118012000,5.834011962890625,2.7270259857177734,-0.9818586111068726,-0.6568227410316467
1773048894127994400,5.843994384765625,0.49891185760498047,-0.8470569849014282,-0.8055410981178284
1773048894137965300,5.85396533203125,-4.335278511047363,-0.34676307439804077,-1.339665412902832
1773048894147946800,5.86394677734375,3.3521080017089844,-0.915062665939331,-0.5979393124580383
1773048894157957600,5.87395751953125,0.24451541900634766,-1.5072754621505737,2.541896343231201
1773048894167942000,5.88394189453125,-1.6001033782958984,-1.2671703100204468,1.812859058380127
1773048894177911000,5.8939111328125,0.5806636810302734,-0.6178557872772217,-1.723649263381958
1773048894187894000,5.90389404296875,3.683277130126953,-1.0545094013214111,-0.707606852054596
1773048894197825800,5.91382568359375,-2.8220791816711426,-0.6089563369750977,-0.4354025423526764
1773048894207803400,5.923803466796875,0.06540393829345703,-1.1159579753875732,0.41695040464401245
1773048894217740300,5.933740234375,-0.7085437774658203,-0.7556233406066895,-0.5200832486152649
1773048894227714000,5.943714111328125,0.9985513687133789,-1.2546913623809814,1.6764531135559082
1773048894237654800,5.95365478515625,-3.216747283935547,-0.472148060798645,-0.8213030099868774
1773048894247625200,5.963625244140625,0.9183101654052734,-1.4240567684173584,1.6760472059249878
1773048894257531000,5.97353076171875,0.973048210144043,-1.086937427520752,-0.06867116689682007
1773048894267494700,5.98349462890625,1.352987289428711,-0.8204210996627808,-0.7645854353904724
1773048894277484000,5.993484130859375,-0.5223751068115234,-0.638835608959198,0.4603661894798279
1773048894287450400,6.003450439453125,1.780238151550293,-1.1842730045318604,0.972297728061676
1773048894297398800,6.013398681640625,-2.601029872894287,-0.605785608291626,-1.1827857494354248
1773048894307363300,6.02336328125,-2.6947569847106934,-0.37799394130706787,-0.9940036535263062
1773048894317313300,6.033313232421875,2.518254280090332,-0.7940005660057068,-0.4367589056491852
1773048894327276300,6.0432763671875,-0.25916290283203125,-0.8013734221458435,-0.5843122601509094
1773048894337227800,6.053227783203125,-2.6560072898864746,-0.6504902243614197,-1.4193142652511597
1773048894347189800,6.063189697265625,3.078927993774414,-1.7364298105239868,2.6777329444885254
1773048894357142500,6.073142578125,1.1323871612548828,-1.2822846174240112,1.2568349838256836
1773048894367103500,6.083103515625,-0.11339759826660156,-0.7652980089187622,-0.5380011200904846
1773048894377018400,6.093018310546875,-1.3459205627441406,-0.6242711544036865,-1.261052131652832
1773048894386974700,6.102974609375,1.8053874969482422,-0.9291960597038269,-0.7122069597244263
1773048894396932900,6.112932861328125,-0.16702938079833984,-0.781154453754425,-0.619767427444458
1773048894406889500,6.122889404296875,-1.9577155113220215,-0.951446533203125,0.33105385303497314
1773048894426804000,6.142803955078125,1.3250808715820312,-0.7706305384635925,-0.4920039772987366
1773048894436684800,6.152684814453125,-1.1046342849731445,-0.7253180146217346,-0.27184003591537476
1773048894446634000,6.162634033203125,0.3266639709472656,-1.2810975313186646,0.8269877433776855
1773048894456637700,6.1726376953125,3.3150243759155273,-1.0756016969680786,-0.7156277298927307
1773048894466592300,6.18259228515625,-1.8528904914855957,-0.5821404457092285,-0.6512446403503418
1773048894476513800,6.192513671875,-0.7734317779541016,-0.8334252834320068,-0.22632423043251038
1773048894486465000,6.202465087890625,2.276479721069336,-0.9745238423347473,-0.7022789120674133
1773048894496466700,6.212466796875,-0.637568473815918,-0.7814397215843201,-0.6596754789352417
1773048894506423000,6.222423095703125,-3.520505905151367,-0.8248288631439209,0.7402772903442383
1773048894516603000,6.232602783203125,1.9426794052124023,-0.8654441833496094,-0.8573973178863525
1773048894526783000,6.242782958984375,-1.3587913513183594,-0.65743488073349,-0.6949617266654968
1773048894536962800,6.252962890625,0.019591331481933594,-0.7905302047729492,-0.5749496221542358
1773048894547068400,6.263068359375,-1.4458189010620117,-0.6966358423233032,-1.0889372825622559
1773048894557025800,6.27302587890625,1.907663345336914,-1.1037925481796265,0.16750484704971313
1773048894567018000,6.28301806640625,1.2725725173950195,-1.061952829360962,0.21258562803268433
1773048894576979500,6.2929794921875,-0.8377723693847656,-0.9365049004554749,0.6377853751182556
1773048894586968600,6.302968505859375,-0.25798988342285156,-1.3092823028564453,1.5807487964630127
1773048894596932900,6.312932861328125,0.5547800064086914,-0.5846893787384033,-1.7252804040908813
1773048894606919400,6.32291943359375,-2.1311097145080566,-0.4999586343765259,-1.0739976167678833
1773048894616886300,6.33288623046875,-2.1924796104431152,-0.640163242816925,-0.5817458033561707
1773048894626871000,6.34287109375,2.758615493774414,-1.0017266273498535,-1.013145089149475
1773048894636839700,6.352839599609375,-3.1830291748046875,-0.5314958691596985,-0.9882333278656006
1773048894646823000,6.362822998046875,1.8736047744750977,-0.9000423550605774,-0.6274824738502502
1773048894656793300,6.37279345703125,-0.07758045196533203,-0.7609118819236755,-0.5364730358123779
1773048894666775000,6.382775146484375,1.1121015548706055,-0.8107426762580872,-0.2648879587650299
1773048894676746800,6.392746826171875,-1.931485652923584,-0.6644817590713501,-0.6311454176902771
1773048894686727400,6.4027275390625,-0.5604257583618164,-0.7693912982940674,-1.443882703781128
1773048894696700200,6.4127001953125,1.5290899276733398,-0.8585389852523804,-0.45716193318367004
1773048894706680000,6.42268017578125,-0.2059316635131836,-0.7156679630279541,-0.21182501316070557
1773048894716653600,6.432653564453125,-1.1280174255371094,-1.1464295387268066,1.7800965309143066
1773048894726633000,6.442633056640625,0.34749698638916016,-1.1669551134109497,0.8752202391624451
1773048894736607000,6.45260693359375,1.3827733993530273,-1.0914174318313599,0.0032452940940856934
1773048894746585900,6.4625859375,-3.1760120391845703,-0.4992765784263611,-1.0939912796020508
1773048894756560400,6.472560302734375,0.09006881713867188,-0.826603889465332,-0.8026139736175537
1773048894766538800,6.482538818359375,0.9462623596191406,-0.9543447494506836,-0.7226114273071289
1773048894776514000,6.49251416015625,0.13755321502685547,-1.3967583179473877,2.334953546524048
1773048894786492000,6.502491943359375,2.0448532104492188,-0.9033812284469604,-0.6774013638496399
1773048894796467500,6.512467529296875,-2.643669605255127,-0.47023314237594604,-1.1210356950759888
1773048894806445000,6.522445068359375,1.413731575012207,-0.9088023900985718,-0.7411823868751526
1773048894816420900,6.5324208984375,-1.2333507537841797,-0.670000433921814,-0.5097357034683228
1773048894826398500,6.5423984375,-1.6708183288574219,-1.3766435384750366,1.2286725044250488
1773048894836374300,6.552374267578125,1.4332551956176758,-4.478543758392334,-0.6658562421798706
1773048894846351600,6.5623515625,0.6140832901000977,0.7221348881721497,0.15356022119522095
1773048894856327700,6.57232763671875,-0.282806396484375,-0.3621712625026703,-0.2873598337173462
1773048894866305000,6.582304931640625,-1.724381446838379,-1.5218225717544556,-0.3847525119781494
1773048894876281000,6.592281005859375,2.1202077865600586,-1.150259017944336,-0.3794053792953491
1773048894886258200,6.602258056640625,1.7079267501831055,-1.594752311706543,-0.2076682448387146
1773048894896234500,6.612234375,-3.0242919921875,-0.7148878574371338,0.8534596562385559
1773048894906211600,6.622211669921875,0.8085355758666992,-0.08960365504026413,-0.7069661021232605
1773048894916188000,6.63218798828125,1.5179271697998047,-1.6697717905044556,-0.32888925075531006
1773048894926165000,6.6421650390625,0.9643964767456055,-0.993132472038269,-1.5921316146850586
1773048894936141300,6.652141357421875,-2.8916125297546387,0.2914283275604248,2.229579210281372
1773048894946118400,6.662118408203125,2.297755241394043,-0.9202424883842468,-0.5995466113090515
1773048894956095000,6.672094970703125,-0.4304924011230469,-1.1487360000610352,0.027282774448394775
1773048894966071800,6.68207177734375,-1.7424774169921875,-0.12146710604429245,-1.215636968612671
1773048894976048400,6.69204833984375,-0.14334583282470703,-0.2929249107837677,-0.9615959525108337
1773048894986025200,6.702025146484375,3.9263792037963867,-1.7933943271636963,1.5509748458862305
1773048894996001800,6.712001708984375,-0.6437587738037109,-0.6925292611122131,-1.271818995475769
1773048895005978600,6.721978515625,-1.6398944854736328,0.16241168975830078,-0.8221099376678467
1773048895015955200,6.731955078125,-0.8825626373291016,-0.04573296755552292,-0.27980244159698486
1773048895025932000,6.74193212890625,-0.21117782592773438,-0.7946690320968628,1.2239482402801514
1773048895035908600,6.75190869140625,-2.224731922149658,-0.39146581292152405,-2.02864408493042
1773048895045885400,6.761885498046875,-1.3882389068603516,-1.3740257024765015,-1.0938841104507446
1773048895055862300,6.7718623046875,3.930530548095703,-1.6325697898864746,-0.1281353235244751
1773048895065838800,6.7818388671875,-0.7302446365356445,-0.4218059778213501,-0.37931233644485474
1773048895075815700,6.791815673828125,2.1426773071289062,0.6269336342811584,-0.5942474603652954
1773048895085792300,6.801792236328125,-0.6434793472290039,-0.6282644867897034,-0.7043952941894531
1773048895095769000,6.81176904296875,0.4580392837524414,-3.147386312484741,1.2910044193267822
1773048895105746000,6.821745849609375,-4.260302543640137,-0.1005229651927948,-1.3824849128723145
1773048895115722500,6.831722412109375,0.9759607315063477,0.8839297294616699,-1.529550552368164
1773048895125699300,6.84169921875,2.8730907440185547,-0.020469829440116882,-0.5279880166053772
1773048895135676000,6.851676025390625,-2.749873638153076,-1.704566240310669,2.2226765155792236
1773048895145652700,6.86165283203125,-4.331416130065918,-0.47383540868759155,0.3659704923629761
1773048895155629600,6.871629638671875,0.04957389831542969,1.2112524509429932,-2.0489490032196045
1773048895165606100,6.881606201171875,6.128786087036133,-0.33638060092926025,-0.754879891872406
1773048895175486200,6.891486328125,-1.086709976196289,0.2623373866081238,-0.03573787212371826
1773048895185304000,6.901303955078125,-0.5881567001342773,1.5279066562652588,-0.6260138154029846
1773048895195484000,6.91148388671875,1.6761493682861328,0.5467766523361206,-0.03251451253890991
1773048895205518000,6.92151806640625,-1.5389766693115234,0.043835222721099854,-0.3005545139312744
1773048895215489500,6.931489501953125,-0.7356100082397461,1.0377193689346313,-1.044922113418579
1773048895225470500,6.941470458984375,0.7838077545166016,1.1988731622695923,-0.4932980239391327
1773048895245423400,6.96142333984375,-2.4777112007141113,-0.16474145650863647,2.4232707023620605
1773048895255396600,6.971396728515625,-1.0619945526123047,0.924627423286438,0.07006192207336426
1773048895265376000,6.9813759765625,4.359816551208496,1.2715139389038086,-2.280545234680176
1773048895275350300,6.991350341796875,3.3274364471435547,-0.3636660575866699,-0.4967202842235565
1773048895285329200,7.0013291015625,-3.941495895385742,-0.15129196643829346,0.4061492085456848
1773048895295209000,7.011208984375,1.940690040588379,-0.01667322963476181,1.4470739364624023
1773048895305026300,7.0210263671875,5.421700477600098,-0.38269269466400146,-0.7159112691879272
1773048895315206400,7.031206298828125,-4.294709205627441,0.15137939155101776,1.141377568244934
1773048895325240300,7.041240234375,-3.8910694122314453,0.018109135329723358,-0.11324846744537354
1773048895335210500,7.05121044921875,0.7528562545776367,0.11483536660671234,-0.3829260766506195
1773048895345192400,7.0611923828125,1.0005931854248047,-1.1337177753448486,1.424086570739746
1773048895355164000,7.071163818359375,-1.6525421142578125,0.0790867879986763,-0.7322869300842285
1773048895365144800,7.081144775390625,-0.18709182739257812,0.057177089154720306,-0.7181240916252136
1773048895375025000,7.09102490234375,3.151336669921875,-0.7149078845977783,-0.7506136298179626
1773048895384841700,7.100841796875,0.6653985977172852,0.21267001330852509,1.0273785591125488
1773048895394838000,7.110838134765625,-1.752265453338623,-0.05767986923456192,-0.7714312076568604
1773048895404799000,7.120799072265625,1.1360044479370117,-0.14786136150360107,-0.485268771648407
1773048895414979000,7.13097900390625,-1.0637331008911133,-0.07509908825159073,0.5066010355949402
1773048895425012000,7.141011962890625,-1.184971809387207,0.16724547743797302,-1.0407867431640625
1773048895434977800,7.150977783203125,-2.4579567909240723,0.8028609752655029,0.043747007846832275
1773048895444963300,7.16096337890625,2.6297988891601562,0.3463163375854492,0.9906638860702515
1773048895454931200,7.17093115234375,-2.0290169715881348,-0.18362930417060852,-1.328305721282959
1773048895464915200,7.180915283203125,0.5701427459716797,0.6923298835754395,0.3509500026702881
1773048895474795000,7.190794921875,0.9110250473022461,-0.13829007744789124,-1.1839561462402344
1773048895484611600,7.200611572265625,1.5925064086914062,-0.036157555878162384,0.2580340504646301
1773048895494605600,7.21060546875,-1.6867504119873047,-0.17675697803497314,-0.23056304454803467
1773048895504568300,7.220568359375,1.3637151718139648,0.059371016919612885,-0.08352303504943848
1773048895514748400,7.23074853515625,0.6820096969604492,0.3081764578819275,-1.3867310285568237
1773048895524780800,7.24078076171875,-1.7030467987060547,0.0526413768529892,-0.653594434261322
1773048895534745300,7.250745361328125,0.6031408309936523,-1.201092004776001,1.4491446018218994
1773048895544732000,7.26073193359375,-2.2583298683166504,0.7851880788803101,-1.299192190170288
1773048895554698800,7.27069873046875,1.5584039688110352,1.2633323669433594,-1.0564249753952026
1773048895564683500,7.28068359375,0.04760169982910156,0.20109772682189941,-0.18540793657302856
1773048895574563600,7.2905634765625,1.2768726348876953,0.2837689220905304,-0.9084540605545044
1773048895584379600,7.300379638671875,-1.7092761993408203,0.47803500294685364,-1.0090090036392212
1773048895594559700,7.310559814453125,2.621088981628418,-0.5348257422447205,-0.283633291721344
1773048895604593000,7.320593017578125,-0.7299661636352539,-0.1304980218410492,-0.4287811517715454
1773048895614472700,7.33047265625,0.3339509963989258,0.4776148200035095,-0.2526397705078125
1773048895624288500,7.34028857421875,-1.2441425323486328,-0.005648665130138397,-1.0950758457183838
1773048895634468400,7.35046826171875,-0.29780101776123047,-0.3707458972930908,-0.9288516640663147
1773048895644501200,7.360501220703125,-0.8737344741821289,0.25070759654045105,-1.0998318195343018
1773048895654466300,7.37046630859375,-1.0802021026611328,-0.07031849026679993,-0.8903170228004456
1773048895664452400,7.380452392578125,2.04512882232666,-1.2197315692901611,-0.14257961511611938
1773048895674420000,7.390419921875,-0.43347835540771484,1.127718210220337,-0.7045833468437195
1773048895684404200,7.400404296875,1.1876649856567383,0.8213871717453003,-0.9237053394317627
1773048895694373400,7.410373291015625,0.25081825256347656,-0.39509665966033936,-0.2225152850151062
1773048895704356000,7.420356201171875,-0.05395793914794922,-0.7218358516693115,-0.7082257866859436
1773048895714236200,7.430236083984375,-1.1398839950561523,0.3575040102005005,-0.8470978140830994
1773048895724052700,7.440052734375,0.5569629669189453,-0.20241832733154297,1.4812910556793213
1773048895734232800,7.45023291015625,1.208883285522461,0.4585275650024414,-1.169866681098938
1773048895744266000,7.460265869140625,-1.3387670516967773,0.5729696750640869,-1.1156256198883057
1773048895754233900,7.47023388671875,-0.8543434143066406,-0.15467718243598938,-0.261249840259552
1773048895764217900,7.4802177734375,0.04541778564453125,-0.11305852979421616,-1.0868096351623535
1773048895774187500,7.4901875,0.33485889434814453,0.2991252839565277,-1.0766962766647339
1773048895784170000,7.500169921875,-0.9125900268554688,-1.0124003887176514,-0.14797979593276978
1773048895794050000,7.510050048828125,2.0109872817993164,-0.3359936773777008,-1.0041078329086304
1773048895803866600,7.51986669921875,0.4489631652832031,0.4241366386413574,-0.25884944200515747
1773048895813861600,7.529861572265625,1.246577262878418,-0.846544086933136,-0.23725676536560059
1773048895823823600,7.53982373046875,0.7088708877563477,0.482165664434433,-1.3057655096054077
1773048895834003700,7.550003662109375,-1.6566553115844727,0.24600505828857422,2.0767643451690674
1773048895844036400,7.560036376953125,-1.0172300338745117,-1.3971312046051025,-0.3641337454319
1773048895854001400,7.57000146484375,-1.2345914840698242,0.014321893453598022,-2.490952968597412
1773048895863987700,7.57998779296875,2.789560317993164,1.151745080947876,-0.050713539123535156
1773048895873955000,7.589955078125,4.730042457580566,-0.11942226439714432,1.7999627590179443
1773048895883939300,7.599939208984375,-1.293386459350586,-0.36878734827041626,-0.04173779487609863
1773048895893908700,7.60990869140625,-2.884377956390381,0.7565534710884094,0.656600296497345
1773048895903891500,7.619891357421875,0.44988536834716797,0.1999099850654602,-0.3094073534011841
1773048895913771500,7.629771484375,-0.6521997451782227,-0.19732189178466797,-1.6176838874816895
1773048895923588000,7.639588134765625,1.3990421295166016,0.7818560600280762,-0.9327113628387451
1773048895933768200,7.649768310546875,0.8280773162841797,0.27268314361572266,-0.18217498064041138
1773048895943801600,7.659801513671875,1.0170660018920898,-0.4542330801486969,-0.8118066191673279
1773048895953769200,7.669769287109375,-3.2749814987182617,0.7094842791557312,-0.9075164198875427
1773048895963753200,7.679753173828125,-2.8183999061584473,1.0123064517974854,-0.392278254032135
1773048895973723000,7.689722900390625,1.2765436172485352,-0.19068190455436707,1.0129458904266357
1773048895983705300,7.699705322265625,-0.6119394302368164,-0.3203733563423157,-0.7257629632949829
1773048895993676500,7.709676513671875,0.05091571807861328,1.3147526979446411,-0.9415708184242249
1773048896003657700,7.71965771484375,4.635300636291504,0.3457430601119995,-0.6135534048080444
1773048896013630000,7.7296298828125,-2.4499917030334473,-0.26833659410476685,-1.3256772756576538
1773048896023610400,7.7396103515625,-2.53255033493042,0.2949080169200897,-1.1802210807800293
1773048896033583600,7.74958349609375,-0.5503168106079102,0.2486620843410492,-1.2979459762573242
1773048896043563300,7.759563232421875,2.845531463623047,-0.2115262746810913,-1.715034008026123
1773048896053537000,7.769537109375,-2.757580280303955,0.2116701304912567,-1.247850775718689
1773048896063516200,7.77951611328125,-3.217789649963379,0.5133104920387268,-0.9028695225715637
1773048896073490700,7.78949072265625,1.2941408157348633,0.6662331223487854,-0.07494872808456421
1773048896083469300,7.79946923828125,2.6552114486694336,-0.2113240361213684,-0.1955285668373108
1773048896093444400,7.8094443359375,-1.2621488571166992,-0.5173089504241943,-0.7241730690002441
1773048896103422500,7.81942236328125,1.293126106262207,0.9425740242004395,-0.03519850969314575
1773048896113397800,7.829397705078125,5.94022274017334,-0.19459789991378784,0.7328987121582031
1773048896123375600,7.839375732421875,-3.621445655822754,-0.951689600944519,-0.3732737898826599
1773048896133351400,7.849351318359375,-3.602086067199707,0.25971630215644836,-0.25219690799713135
1773048896143329300,7.859329345703125,1.9849472045898438,-0.3227028548717499,0.29376721382141113
1773048896153305000,7.86930517578125,0.6573257446289062,0.11782239377498627,0.6225457787513733
1773048896163282400,7.879282470703125,-3.0926828384399414,0.6215378046035767,-1.2842328548431396
1773048896173258500,7.889258544921875,-1.91202974319458,0.6066761612892151,-1.3185698986053467
1773048896183235800,7.89923583984375,-2.8743786811828613,0.1352640688419342,-1.3057987689971924
1773048896193116000,7.909115966796875,0.3765077590942383,0.03740306571125984,-0.10967135429382324
1773048896202933500,7.91893359375,4.98227596282959,-0.5870378613471985,0.33211636543273926
1773048896212932900,7.928932861328125,3.7753658294677734,-0.7328220009803772,0.14497166872024536
1773048896222891500,7.9388916015625,0.2340564727783203,-0.2954097390174866,-0.1783803105354309
1773048896233071400,7.9490712890625,-0.6113796234130859,1.4007542133331299,-0.21853703260421753
1773048896243104800,7.959104736328125,3.932093620300293,-0.3089902102947235,-0.34110885858535767
1773048896253072400,7.969072265625,-6.777187347412109,-0.593369722366333,-0.9244585037231445
1773048896263056600,7.979056640625,-3.750882148742676,0.4504780173301697,-0.3610403537750244
1773048896273026000,7.989026123046875,2.7349042892456055,1.4990758895874023,-0.516708493232727
1773048896283008800,7.9990087890625,3.3070154190063477,-0.23461006581783295,-0.4599977433681488
1773048896292979700,8.008979736328126,-4.7852630615234375,-0.15689100325107574,-1.0043439865112305
1773048896302961200,8.018961181640625,-0.35424327850341797,0.9623289108276367,-0.1665325164794922
1773048896312841200,8.02884130859375,4.3387908935546875,0.0011173337697982788,-1.006666898727417
1773048896322658000,8.038657958984375,1.1103754043579102,-0.6165825724601746,-0.8603426814079285
1773048896332838100,8.048838134765624,-2.8192524909973145,0.38684359192848206,-0.13905495405197144
1773048896342871800,8.058871826171876,3.0101242065429688,-0.3196829557418823,-0.8715109825134277
1773048896352840400,8.06884033203125,-0.7276782989501953,-2.3513526916503906,-1.2040863037109375
1773048896362823700,8.07882373046875,-3.6240406036376953,0.3633366823196411,2.719935178756714
1773048896372793900,8.0887939453125,-3.8056640625,0.8138275742530823,1.323495626449585
1773048896382776000,8.098776123046875,4.564844131469727,1.0017036199569702,-1.7311675548553467
1773048896392747500,8.10874755859375,3.7364444732666016,-1.9716483354568481,-0.36802276968955994
1773048896402728400,8.118728515625,-1.1107263565063477,-0.44814446568489075,-0.5974027514457703
1773048896412701200,8.128701171875,0.9142580032348633,1.7721861600875854,-0.44585859775543213
1773048896422681000,8.13868115234375,5.032567024230957,-0.12352974712848663,-0.31374797224998474
1773048896432561200,8.14856103515625,1.659132957458496,-0.4285527765750885,-1.1401764154434204
1773048896442378500,8.15837841796875,-3.4106931686401367,0.4556807279586792,-0.9176860451698303
1773048896452558300,8.168558349609375,-0.7444620132446289,0.22064615786075592,-0.20687025785446167
1773048896462592300,8.17859228515625,-0.40717506408691406,-1.4857423305511475,-2.6196627616882324
1773048896472561700,8.188561767578125,-3.056215286254883,0.10716047883033752,-1.2770458459854126
1773048896482544400,8.19854443359375,1.3856372833251953,0.3467065691947937,0.4025888442993164
1773048896492515300,8.208515380859374,3.8222103118896484,0.24460899829864502,-1.3237696886062622
1773048896502496800,8.218496826171876,5.083807945251465,0.13575324416160583,-1.8468925952911377
1773048896512376800,8.228376953125,-0.7323646545410156,-3.102415084838867,-3.1037540435791016
1773048896522193700,8.238193603515626,-0.2825193405151367,-0.2804737687110901,-1.7332117557525635
1773048896532189700,8.248189697265625,-1.7709245681762695,1.1713004112243652,-0.7646790742874146
1773048896542151000,8.25815087890625,-3.1795549392700195,0.48841312527656555,-0.8421148657798767
1773048896552331000,8.2683310546875,-3.956552505493164,0.19879457354545593,-1.0750486850738525
1773048896562364000,8.278364013671874,-2.939765453338623,0.047683000564575195,-1.1470052003860474
1773048896572329500,8.28832958984375,3.611957550048828,0.9648692607879639,-0.9893109798431396
1773048896582315300,8.298315185546874,6.897391319274902,-0.18756800889968872,-1.1953513622283936
1773048896592195300,8.3081953125,-3.7877540588378906,-0.4815794825553894,-0.5848982930183411
1773048896602011400,8.318011474609374,-5.100000858306885,0.294357031583786,-0.015788376331329346
1773048896612003800,8.32800390625,2.3812255859375,0.639269232749939,-0.14654403924942017
1773048896621968000,8.3379677734375,3.9856910705566406,-0.7447850108146667,-0.6535085439682007
1773048896632148000,8.34814794921875,-4.3927412033081055,-0.16993802785873413,-0.26590433716773987
1773048896642180400,8.358180419921876,-2.0446085929870605,0.6393980383872986,-0.06992560625076294
1773048896652143900,8.368143798828125,0.02400970458984375,0.925277829170227,-0.7514568567276001
1773048896662131200,8.378131103515624,3.1260366439819336,-0.7696474194526672,-0.8131393790245056
1773048896672097300,8.38809716796875,-3.7692928314208984,-3.2100634574890137,-1.4626978635787964
1773048896682082800,8.398082763671875,-1.0013198852539062,1.4599765539169312,-0.1499043107032776
1773048896692051000,8.408051025390625,9.550930976867676,1.3233745098114014,0.6561264395713806
1773048896702034700,8.41803466796875,-2.9539570808410645,-0.5014665722846985,-0.18804049491882324
1773048896712004600,8.428004638671876,-2.9344544410705566,0.06798657029867172,-0.874029815196991
1773048896721986800,8.43798681640625,2.4110889434814453,-0.20784558355808258,-0.5799394845962524
1773048896731867000,8.447866943359376,1.4351186752319336,-0.22052262723445892,-1.1413326263427734
1773048896741683700,8.45768359375,-2.029186725616455,-0.23592717945575714,-0.878524124622345
1773048896751863800,8.46786376953125,-2.780961513519287,-0.11465395987033844,-0.9895825386047363
1773048896761897200,8.477897216796874,4.179304122924805,-0.10428276658058167,-2.142474889755249
1773048896771865300,8.487865234375,-0.42447566986083984,-1.900928258895874,-0.7082768678665161
1773048896781849000,8.49784912109375,-3.681342124938965,-0.11283384263515472,0.333355188369751
1773048896791729200,8.507729248046875,1.9641895294189453,1.3736424446105957,-0.4327462911605835
1773048896801545500,8.51754541015625,3.579068183898926,0.3959197402000427,-0.4003713130950928
1773048896811539700,8.527539794921875,1.761876106262207,-3.636979341506958,-0.32400423288345337
1773048896821502500,8.53750244140625,-3.9935407638549805,-0.7010385394096375,-0.29618582129478455
1773048896831493000,8.5474931640625,0.5035333633422852,1.7726432085037231,-0.021619439125061035
1773048896841458700,8.557458740234376,8.290609359741211,0.47736459970474243,-0.47414883971214294
1773048896851638800,8.567638671875,-5.965054988861084,-0.46280038356781006,-0.6156182289123535
1773048896861671000,8.5776708984375,-5.437648296356201,0.16675452888011932,-0.6841673851013184
1773048896871551000,8.587551025390624,-1.2312955856323242,0.5951364040374756,-0.9818646311759949
1773048896881365800,8.59736572265625,3.8131580352783203,0.3227403163909912,-1.7807471752166748
1773048896891545600,8.607545654296874,-3.51442813873291,-0.21066302061080933,-0.9579874277114868
1773048896901578000,8.617577880859375,-1.360722541809082,0.12478742003440857,-1.033402442932129
1773048896921434600,8.6374345703125,4.1991987228393555,-1.0062475204467773,-0.9074039459228516
1773048896931249700,8.647249755859375,-5.132993221282959,-2.6495184898376465,-0.9923382997512817
1773048896941429500,8.657429443359375,-0.7342920303344727,1.2260822057724,-0.2947104275226593
1773048896951461600,8.667461669921876,3.5262451171875,0.7477013468742371,-1.0948933362960815
1773048896961424100,8.677424072265625,-3.395482063293457,-0.6359774470329285,-0.611294150352478
1773048896971412500,8.68741259765625,-5.345077991485596,0.14202044904232025,-0.4204862713813782
1773048896981292500,8.69729248046875,3.8141698837280273,1.0322849750518799,-1.1944286823272705
1773048896991108000,8.707108154296876,5.369378089904785,0.024593941867351532,-1.957505464553833
1773048897001288000,8.717287841796875,-3.0025744438171387,-3.5062742233276367,-3.1391546726226807
1773048897011320600,8.727320556640626,-3.6442737579345703,-0.30105137825012207,-1.1025662422180176
1773048897021284900,8.737284912109375,7.096945762634277,1.9029908180236816,-1.284559965133667
1773048897031271700,8.747271728515624,4.150829315185547,-0.5278401970863342,-1.272923469543457
1773048897041238500,8.757238525390624,-8.535547256469727,-0.2672625184059143,-0.1379447877407074
1773048897051223300,8.767223388671875,-0.6181230545043945,0.0375128835439682,-0.929060697555542
1773048897061103400,8.777103271484375,8.510353088378906,-0.24197116494178772,-2.0543479919433594
1773048897070919700,8.786919677734375,-3.242067337036133,-0.14937570691108704,-0.8414846658706665
1773048897080913000,8.796912841796875,-5.225770473480225,-0.007920928299427032,-0.8294827938079834
1773048897090876400,8.80687646484375,-4.138891220092773,-0.49253904819488525,-1.749121904373169
1773048897101056300,8.81705615234375,4.215534210205078,-1.817787528038025,-3.8856256008148193
1773048897111089000,8.8270888671875,-1.6988582611083984,-1.8173742294311523,-2.019592523574829
1773048897121053000,8.837052978515626,4.653471946716309,0.1290852278470993,-1.15926992893219
1773048897131040000,8.8470400390625,2.4685373306274414,0.6689589619636536,-1.446384310722351
1773048897141006600,8.857006591796875,-0.2651844024658203,-1.7733327150344849,-0.15356890857219696
1773048897150991600,8.86699169921875,-4.01413631439209,0.5599581003189087,-0.622103214263916
1773048897160968400,8.876968505859375,0.8393411636352539,1.2568118572235107,-0.8843291997909546
1773048897170936800,8.886936767578124,1.9357328414916992,-2.52530837059021,-0.7448552250862122
1773048897180920300,8.89692041015625,-3.0033974647521973,-1.5070465803146362,-0.49819666147232056
1773048897190890500,8.906890380859375,-2.341513156890869,1.3680059909820557,-0.8836207389831543
1773048897200872700,8.916872802734375,7.250563621520996,1.4920648336410522,-1.5381361246109009
1773048897210844200,8.92684423828125,5.67047119140625,0.007746219635009766,0.5902408361434937
1773048897220825000,8.9368251953125,-4.831703186035156,-0.4234931766986847,0.28180503845214844
1773048897230797800,8.9467978515625,-7.502175331115723,-0.8714398145675659,0.012080997228622437
1773048897240778000,8.956778076171876,9.35815143585205,-1.8904917240142822,-0.12199157476425171
1773048897250751200,8.966751220703125,5.2246599197387695,-0.8683125376701355,-0.907610297203064
1773048897260731000,8.97673095703125,-3.5206098556518555,0.1567409634590149,-0.17509715259075165
1773048897270610700,8.986610595703125,1.8129043579101562,-0.3879064917564392,-0.47627243399620056
1773048897280428000,8.996427978515625,-0.7846708297729492,0.1253191977739334,-0.8598005771636963
1773048897290425600,9.006425537109376,-5.500869274139404,0.5126242637634277,-0.2882862091064453
1773048897300385500,9.016385498046875,1.8776988983154297,0.6015163660049438,-1.2256464958190918
1773048897310572800,9.02657275390625,-3.366422653198242,0.28937357664108276,-0.6482812166213989
1773048897320556000,9.03655615234375,1.2752275466918945,-0.1871841698884964,0.10887832939624786
1773048897330565400,9.0465654296875,0.010596275329589844,-1.8810557126998901,-0.46954846382141113
1773048897340551200,9.05655126953125,-1.8085904121398926,0.3414464592933655,-0.708864152431488
1773048897350519000,9.06651904296875,4.681378364562988,0.3807620704174042,-1.5367608070373535
1773048897360503000,9.0765029296875,0.4993457794189453,-2.375837802886963,-0.9011839032173157
1773048897370472700,9.08647265625,-2.248354434967041,-0.0032466650009155273,-0.6572228074073792
1773048897380455200,9.096455078125,-1.3211431503295898,1.149769902229309,-0.9457263350486755
1773048897390426000,9.106426025390626,2.9333457946777344,0.07573844492435455,-1.4423134326934814
1773048897400407600,9.116407470703125,-6.66023063659668,-0.06802192330360413,-0.38791945576667786
1773048897410379800,9.1263798828125,0.6834077835083008,0.05509648472070694,-1.2573550939559937
1773048897420360400,9.1363603515625,1.2356281280517578,-1.1481603384017944,-1.2974389791488647
1773048897430333400,9.14633349609375,-0.1862812042236328,-1.852217674255371,-1.048087239265442
1773048897440313000,9.15631298828125,-0.04277229309082031,0.590508759021759,-1.251814842224121
1773048897450287000,9.166287109375,-0.21464157104492188,0.2385081946849823,-1.2886494398117065
1773048897460266200,9.176266357421875,4.500335693359375,-1.1602030992507935,-3.284283399581909
1773048897470240500,9.186240478515625,-1.596074104309082,-1.4240736961364746,-2.628092050552368
1773048897480219100,9.19621923828125,-1.305572509765625,-0.5704492926597595,-1.0515108108520508
1773048897490233000,9.206233154296875,1.061960220336914,0.8755879402160645,-0.8502886295318604
1773048897500215300,9.21621533203125,0.1995372772216797,0.6752994060516357,-1.0343986749649048
1773048897510147800,9.22614794921875,-2.1031546592712402,-0.38085442781448364,-0.5448736548423767
1773048897520125000,9.236125,-5.6085381507873535,-2.1461923122406006,0.3181273341178894
1773048897530101200,9.246101318359376,1.7468833923339844,0.15445616841316223,-0.9746655225753784
1773048897540078600,9.25607861328125,7.4359130859375,-3.460632801055908,-1.460968017578125
1773048897550055000,9.266054931640625,1.6425838470458984,0.2850044369697571,0.37953776121139526
1773048897560032000,9.276031982421875,3.190768241882324,1.372225284576416,-0.8254591226577759
1773048897570008600,9.286008544921875,4.491534233093262,0.14023427665233612,-1.7177026271820068
1773048897579985400,9.2959853515625,-2.9185729026794434,-0.8263270854949951,-0.6995731592178345
1773048897589962000,9.3059619140625,-10.845023155212402,-1.8445074558258057,0.1759595274925232
1773048897599939000,9.31593896484375,1.0228919982910156,0.8342432975769043,-1.4183454513549805
1773048897609915600,9.32591552734375,5.304688453674316,0.4329623579978943,-1.8854167461395264
1773048897619892500,9.335892578125,2.6598167419433594,-2.792495012283325,-1.242836356163025
1773048897629869300,9.345869384765624,0.24089527130126953,-0.5504365563392639,-1.1246436834335327
1773048897639846100,9.35584619140625,0.49330997467041016,-1.0065840482711792,-2.4371652603149414
1773048897649822700,9.36582275390625,3.8594846725463867,-1.1055346727371216,-2.9707372188568115
1773048897659799600,9.375799560546875,-2.0157227516174316,1.3747568130493164,-0.2825548052787781
1773048897669776400,9.3857763671875,3.673233985900879,0.33267882466316223,-1.2258890867233276
1773048897679753200,9.395753173828124,-4.479783058166504,-0.38456395268440247,-0.545863926410675
1773048897689729800,9.405729736328125,-3.2219486236572266,-1.5849292278289795,-0.44151774048805237
1773048897699706600,9.41570654296875,3.55440616607666,0.3487244248390198,-0.9557957649230957
1773048897709683500,9.425683349609375,-2.0665974617004395,-0.7575401067733765,-0.7443501949310303
1773048897719660300,9.435660400390624,-1.3974676132202148,-0.8856273293495178,-1.2255518436431885
1773048897739614000,9.455614013671875,2.645740509033203,-0.7047431468963623,0.9107545018196106
1773048897749590500,9.465590576171875,-1.9271769523620605,-0.29821276664733887,-0.5298358201980591
1773048897759567400,9.4755673828125,-2.2709174156188965,0.5872967839241028,-0.830727756023407
1773048897769544200,9.485544189453124,0.2283792495727539,-0.05220659077167511,-0.8729949593544006
1773048897779521000,9.49552099609375,-4.7347412109375,-0.1143990159034729,-0.3896823525428772
1773048897789497900,9.505497802734375,-2.071993350982666,0.2961159944534302,-0.8046227693557739
1773048897799474400,9.515474365234375,-0.027464866638183594,-0.028492441400885582,-0.9995031952857971
1773048897809451300,9.525451171875,-0.18995094299316406,-1.724056363105774,-2.392758846282959
1773048897819428000,9.535427978515624,0.4556112289428711,-0.2141392081975937,-1.1694093942642212
1773048897829405000,9.545405029296875,-1.1976890563964844,0.525408923625946,-0.369476318359375
1773048897839381800,9.5553818359375,0.8929662704467773,-0.07993423193693161,-0.7972481846809387
1773048897849358300,9.5653583984375,-1.7411317825317383,-1.133191466331482,0.6011033058166504
1773048897859335200,9.575335205078124,-0.4426116943359375,0.6756032109260559,-0.6480623483657837
1773048897869351000,9.585350830078125,1.0868597030639648,-1.0555822849273682,-1.327072262763977
1773048897879331600,9.59533154296875,-2.7462410926818848,-0.3298323154449463,-0.6703948378562927
1773048897889265700,9.605265625,-1.2725658416748047,0.04787973314523697,-0.8749454617500305
1773048897899241700,9.61524169921875,0.5650463104248047,-0.8812904953956604,-1.060288429260254
1773048897909219000,9.625218994140624,-1.4759044647216797,-0.35082942247390747,-0.8194003105163574
1773048897919195400,9.6351953125,-1.572723388671875,-0.3319440186023712,-0.8325303196907043
1773048897929172700,9.6451728515625,0.6185731887817383,-2.0091288089752197,-0.8766394257545471
1773048897939149000,9.655149169921875,1.7061128616333008,-0.5729765295982361,-0.8963836431503296
1773048897949126100,9.665126220703126,-0.9250211715698242,-0.353392630815506,-0.7046890258789062
1773048897959102700,9.675102783203124,1.8048248291015625,-2.6002120971679688,-0.7668493986129761
1773048897969079800,9.685079833984375,-2.2405991554260254,0.9019261002540588,-0.6442195773124695
1773048897979056400,9.695056396484375,4.050689697265625,0.48834362626075745,-1.4776650667190552
1773048897989033500,9.705033447265626,1.1218805313110352,-0.740304172039032,-1.0057224035263062
1773048897999009800,9.715009765625,-6.14142370223999,-0.9929068088531494,0.005224853754043579
1773048898008987000,9.72498681640625,5.996744155883789,-0.24094276130199432,-1.639308214187622
1773048898018963500,9.73496337890625,-1.531296730041504,-2.280817985534668,-0.8254615068435669
1773048898028940500,9.7449404296875,-1.0684843063354492,0.7450258731842041,-0.8618103861808777
1773048898038917000,9.754917236328126,0.6393280029296875,0.5489080548286438,-1.1021214723587036
1773048898048894000,9.76489404296875,-0.5471792221069336,0.20393486320972443,-0.8665800094604492
1773048898058870800,9.774870849609375,2.830963134765625,-1.112685203552246,-1.4892433881759644
1773048898068847600,9.78484765625,-0.29985904693603516,-0.6245764493942261,-0.9943850040435791
1773048898078824400,9.794824462890626,1.3825044631958008,0.8222130537033081,-1.040393352508545
1773048898088801300,9.80480126953125,0.5193920135498047,-0.823283314704895,-0.9083671569824219
1773048898098777900,9.81477783203125,-2.118556499481201,-1.2517403364181519,-0.47347480058670044
1773048898108754700,9.824754638671875,2.3957014083862305,0.8648189306259155,-1.1618552207946777
1773048898118731500,9.8347314453125,0.5649099349975586,-1.3569458723068237,-5.185399055480957
1773048898128708400,9.844708251953126,-0.28675365447998047,-0.7387218475341797,-1.2497187852859497
1773048898138685000,9.854684814453124,1.5864667892456055,-0.26572269201278687,1.3237428665161133
1773048898148661800,9.864661865234375,-0.35179805755615234,0.2862813472747803,-0.11933320760726929
1773048898158638600,9.874638671875,-0.2075519561767578,-0.26917535066604614,-0.7259896993637085
1773048898168615400,9.884615478515625,0.3325996398925781,-0.5816661715507507,-0.3072453737258911
1773048898178592300,9.89459228515625,-0.37057018280029297,0.13787046074867249,-0.42794033885002136
1773048898188569000,9.904569091796875,1.034531593322754,-1.2100696563720703,-1.478433609008789
1773048898198545700,9.914545654296875,0.03848838806152344,-0.9724098443984985,-0.7824471592903137
1773048898208522500,9.9245224609375,-1.757462501525879,0.15737688541412354,-0.2702171206474304
1773048898218499300,9.934499267578126,1.227400779724121,-0.570486307144165,0.1958291381597519
1773048898228476200,9.94447607421875,0.32160282135009766,-1.1079355478286743,-1.0372557640075684
1773048898238452700,9.95445263671875,-2.4877848625183105,0.21090233325958252,-0.6915473937988281
1773048898248429600,9.9644296875,0.7328720092773438,-0.40737539529800415,0.33861225843429565
1773048898258406400,9.974406494140625,0.5161876678466797,-0.4558428227901459,-0.2560470700263977
1773048898268344300,9.98434423828125,-0.3924875259399414,-0.3613457679748535,-0.8235080242156982
1773048898278317300,9.9943173828125,-0.735316276550293,-0.3466130793094635,-0.9024813175201416
1773048898288298000,10.004298095703126,0.1358022689819336,-0.4599761962890625,0.3732837736606598
1773048898298271500,10.014271484375,0.6130752563476562,-1.1197537183761597,-0.9121232032775879
1773048898308251400,10.02425146484375,-1.724081039428711,-0.18757188320159912,-1.3930015563964844
1773048898318225700,10.0342255859375,0.085723876953125,-0.44155406951904297,-0.07988631725311279
1773048898328205000,10.044205078125,0.18120384216308594,-1.0165632963180542,-1.1078529357910156
1773048898338179800,10.054179931640626,-2.1165060997009277,-0.002672940492630005,-0.49087047576904297
1773048898348158500,10.064158447265624,0.033400535583496094,-0.4223780930042267,-0.5248317718505859
1773048898358133800,10.0741337890625,-0.1672821044921875,-0.6765345931053162,-1.3097779750823975
1773048898368073200,10.0840732421875,-0.16683006286621094,-0.45205163955688477,-0.3488229513168335
1773048898378045000,10.094044921875,-0.16162872314453125,-0.4818040728569031,-0.38913220167160034
1773048898388065500,10.1040654296875,0.7271385192871094,-0.6607943773269653,-1.319014072418213
1773048898398042000,10.1140419921875,-0.49735164642333984,-0.5395123958587646,-1.328683614730835
1773048898408019200,10.124019287109375,-0.19039630889892578,-0.1520194113254547,-0.7050746083259583
1773048898417995500,10.13399560546875,0.034542083740234375,-0.5910829305648804,-0.9163265824317932
1773048898427972600,10.14397265625,-0.28084278106689453,0.0036270171403884888,-2.031219720840454
1773048898437949200,10.15394921875,-0.4617128372192383,-0.1430952548980713,-0.3497812747955322
1773048898447965200,10.163965087890626,0.6379785537719727,-0.294999897480011,-1.2506260871887207
1773048898457945600,10.173945556640625,-0.624547004699707,0.3120560944080353,-1.6159747838974
1773048898467841000,10.183841064453125,0.5806713104248047,-0.009543284773826599,-0.6778385639190674
1773048898477813000,10.19381298828125,0.04424285888671875,0.09036994725465775,-1.662916898727417
1773048898487833300,10.203833251953125,0.32103538513183594,0.14331352710723877,-0.07487717270851135
1773048898497810200,10.21381005859375,0.17201709747314453,0.35484951734542847,-0.693793535232544
1773048898507748000,10.223748046875,0.8783407211303711,0.1968417465686798,-1.0865118503570557
1773048898517721000,10.23372119140625,-0.007598876953125,-0.5957303047180176,-0.2636628746986389
1773048898527662800,10.243662841796874,-1.4358539581298828,0.6057411432266235,-0.9433456063270569
1773048898537632500,10.253632568359375,0.23453140258789062,0.1896660178899765,-1.5895284414291382
1773048898547577300,10.263577392578124,0.22420024871826172,-1.0213139057159424,-0.00466156005859375
1773048898557545000,10.273544921875,-1.7110729217529297,0.6505991816520691,-1.8237135410308838
1773048898567531000,10.283531005859375,-0.28846263885498047,-0.0928201675415039,-0.21703851222991943
1773048898577500200,10.293500244140626,1.8233451843261719,-0.8248419761657715,1.5818498134613037
1773048898587406800,10.30340673828125,-0.722376823425293,0.27208513021469116,-1.5591280460357666
1773048898597369900,10.313369873046875,0.19162559509277344,-0.6665788888931274,-0.16296261548995972
1773048898607321600,10.323321533203124,0.2913084030151367,0.1569894552230835,0.20531044900417328
1773048898617283300,10.333283447265625,-0.053371429443359375,-0.5223917365074158,-1.3870134353637695
1773048898627275000,10.34327490234375,-0.21097373962402344,-0.9373953938484192,-0.24053266644477844
1773048898637239800,10.35323974609375,-2.0018391609191895,0.4405391216278076,-1.8975378274917603
1773048898647112400,10.363112548828125,1.4658079147338867,-0.29668137431144714,-0.5185593366622925
1773048898657068000,10.373068115234375,0.4684429168701172,-0.8098729252815247,0.8192760348320007
1773048898666950000,10.382949951171875,-0.7553834915161133,0.2868999242782593,-2.3175296783447266
1773048898676898000,10.39289794921875,0.16860008239746094,0.10896170139312744,-0.38074418902397156
1773048898686941400,10.40294140625,0.6218738555908203,-0.5175551176071167,1.7080330848693848
1773048898696899300,10.4128994140625,0.7969989776611328,-0.15259766578674316,-0.5074465274810791
1773048898706894800,10.422894775390626,-0.8862142562866211,0.05112624168395996,-0.5978459119796753
1773048898716856300,10.432856201171875,1.3658008575439453,-0.4812357723712921,0.06726013123989105
1773048898726771000,10.44277099609375,0.10130500793457031,-0.1992395520210266,0.22403180599212646
1773048898736727800,10.452727783203125,-0.5821113586425781,0.06795459985733032,-1.0825344324111938
1773048898746647000,10.46264697265625,0.4941444396972656,0.007866904139518738,-0.8980954885482788
1773048898756600000,10.47260009765625,-0.10404014587402344,-0.8255072236061096,0.03545188903808594
1773048898766480100,10.482480224609375,-0.7534341812133789,0.08761914819478989,-1.348918080329895
1773048898776304000,10.49230419921875,0.7386541366577148,-0.04628533124923706,-0.36296528577804565
1773048898786484200,10.502484130859376,1.7875909805297852,-1.0623960494995117,0.5389840006828308
1773048898796477200,10.512477294921876,-0.5476140975952148,0.5783259868621826,-1.1238210201263428
1773048898806657000,10.522656982421875,0.6957712173461914,-0.011241033673286438,0.6155481338500977
1773048898816837000,10.532837158203124,1.1572866439819336,-1.0171128511428833,0.7973910570144653
1773048898827017200,10.543017333984375,-1.0332813262939453,0.41509419679641724,-1.9302717447280884
1773048898837081000,10.5530810546875,-0.643768310546875,-0.2116478830575943,0.2038428634405136
1773048898847035400,10.563035400390625,1.669656753540039,-0.6263442039489746,-0.011022895574569702
1773048898857030400,10.573030517578125,-1.3435077667236328,0.2508945167064667,-3.2332053184509277
1773048898866989000,10.582989013671876,-0.8674821853637695,-0.15976040065288544,0.3411756753921509
1773048898876980200,10.592980224609375,1.5322694778442383,-0.07863867282867432,-0.23129034042358398
1773048898886942700,10.602942626953125,0.0050811767578125,0.03864079713821411,-2.180205821990967
1773048898896931000,10.61293115234375,-0.5873117446899414,-0.339397668838501,0.9414404630661011
1773048898906896400,10.622896484375,0.29274845123291016,0.6204060912132263,0.011800885200500488
1773048898916882400,10.63288232421875,0.8368110656738281,-0.3634868264198303,-1.8719764947891235
1773048898926849800,10.642849853515624,-1.868471622467041,-0.6193381547927856,-0.26521947979927063
1773048898936834000,10.652833984375,-1.410414695739746,0.27616071701049805,0.43848735094070435
1773048898946842400,10.66284228515625,2.3757753372192383,-0.9215981960296631,-1.2242199182510376
1773048898956829200,10.6728291015625,1.0136699676513672,0.032958924770355225,-1.9286937713623047
1773048898966757000,10.682757080078124,-1.6015033721923828,0.7542253136634827,-0.2721617817878723
1773048898976737800,10.69273779296875,1.2441387176513672,-0.795364499092102,-0.3690927028656006
1773048898986710800,10.702710693359375,-1.0182170867919922,0.1399764120578766,-0.8779081106185913
1773048898996690700,10.712690673828124,-1.0251750946044922,0.08122846484184265,-0.33215123414993286
1773048899006664200,10.722664306640626,-0.13918399810791016,0.08088967204093933,-0.27048754692077637
1773048899016643600,10.7326435546875,0.510716438293457,-0.24765780568122864,-0.11678767204284668
1773048899026617900,10.742617919921875,-0.3456602096557617,-0.5638747215270996,0.105129674077034
1773048899036596700,10.7525966796875,-0.43575000762939453,0.8735488057136536,-1.696385383605957
1773048899046571300,10.7625712890625,1.5329418182373047,-0.8500713109970093,0.49244093894958496
1773048899056549600,10.772549560546874,0.158111572265625,-0.4330921173095703,0.023240596055984497
1773048899066525000,10.78252490234375,-1.2035551071166992,0.6558969616889954,-2.1378896236419678
1773048899076503000,10.7925029296875,0.3323211669921875,-0.3971627354621887,-0.48606961965560913
1773048899086382800,10.8023828125,0.6464815139770508,-0.09570067375898361,0.013675868511199951
1773048899096200400,10.812200439453125,-1.1317939758300781,-0.3269461989402771,-0.6422857642173767
1773048899106380500,10.822380615234374,-1.2007017135620117,0.5963952541351318,0.01712659001350403
1773048899116414500,10.83241455078125,0.9179553985595703,-0.11652417480945587,-0.3937050998210907
1773048899126385400,10.842385498046875,0.4856681823730469,-1.005853533744812,0.9510129690170288
1773048899136366800,10.852366943359375,-1.0537738800048828,0.7206727266311646,0.41146302223205566
1773048899146339000,10.862339111328126,1.4277095794677734,0.10503200441598892,-0.60994952917099
1773048899156319500,10.872319580078125,1.218857765197754,-1.1531884670257568,-0.5167402625083923
1773048899166292500,10.88229248046875,-2.863375186920166,0.48835498094558716,0.5378488302230835
1773048899176272400,10.8922724609375,0.9073600769042969,-0.08443887531757355,-0.8718215227127075
1773048899186246100,10.90224609375,0.6374053955078125,-0.4050445258617401,-0.7426497936248779
1773048899196225300,10.912225341796875,-0.33396434783935547,-0.02275238186120987,1.0259405374526978
1773048899206105300,10.922105224609375,-1.2934913635253906,0.26565438508987427,-0.3541167676448822
1773048899215922700,10.931922607421875,2.32541561126709,-0.123853899538517,0.08861100673675537
1773048899226102500,10.9421025390625,-0.5653247833251953,-0.3858325183391571,1.433469533920288
1773048899236136400,10.952136474609375,-0.9318733215332031,0.5091912746429443,-0.04821750521659851
1773048899246106600,10.962106689453124,1.7402782440185547,-0.6191563010215759,0.259224534034729
1773048899256088800,10.9720888671875,0.6611738204956055,-0.41015416383743286,0.4102223217487335
1773048899266060000,10.98206005859375,-1.3562030792236328,0.6057537198066711,-0.8823655247688293
1773048899276041200,10.992041259765625,1.5798416137695312,-0.3962891101837158,-0.19446812570095062
1773048899285921300,11.00192138671875,0.3242616653442383,-0.20871371030807495,-0.1164955347776413
1773048899295738000,11.011738037109374,-0.6988258361816406,0.32609716057777405,-1.047669529914856
1773048899305734400,11.021734375,0.34408092498779297,-0.254904568195343,1.072210431098938
1773048899315695400,11.0316953125,-0.25878047943115234,0.8695961833000183,-0.08964996039867401
1773048899325875500,11.04187548828125,0.7257547378540039,0.36448317766189575,-0.6502208113670349
1773048899335908400,11.051908447265625,-1.029031753540039,-1.324681282043457,1.648692011833191
1773048899345874000,11.0618740234375,-2.1109423637390137,0.7875388264656067,0.38118231296539307
1773048899355859700,11.071859619140625,1.7917671203613281,0.6396151185035706,-1.1653666496276855
1773048899365827600,11.08182763671875,1.8257017135620117,-0.602990448474884,0.24546675384044647
1773048899375811600,11.0918115234375,-2.7306761741638184,-1.1604037284851074,0.7251201868057251
1773048899385691400,11.10169140625,-1.1143302917480469,1.170259952545166,-2.703498363494873
1773048899395508000,11.111508056640625,3.6121110916137695,0.4321194589138031,0.41429269313812256
1773048899405687800,11.121687744140624,-0.6671867370605469,-1.464205265045166,1.4069520235061646
1773048899415721200,11.13172119140625,-3.9565200805664062,0.28074899315834045,-0.18580211699008942
1773048899425688000,11.14168798828125,1.6752967834472656,1.105955719947815,0.23395341634750366
1773048899435672800,11.1516728515625,2.621859550476074,-0.8187551498413086,0.8596271276473999
1773048899445641700,11.161641845703125,-1.6690101623535156,-0.7665720582008362,-0.09489914774894714
1773048899455624700,11.171624755859375,-2.41487455368042,0.7086397409439087,-0.13067683577537537
1773048899465595400,11.181595458984376,3.1268739700317383,-0.8809632062911987,0.1014738529920578
1773048899475577000,11.1915771484375,0.07630729675292969,-0.39243394136428833,-0.9506984949111938
1773048899485457200,11.20145703125,-1.1800203323364258,0.4140186607837677,-1.0109069347381592
1773048899495274000,11.21127392578125,0.2129068374633789,0.03803784400224686,0.5899896621704102
1773048899505453800,11.221453857421874,0.6375083923339844,-0.3478289246559143,-0.6856980323791504
1773048899515487500,11.231487548828126,-1.6281347274780273,0.43786758184432983,-0.060203954577445984
1773048899525456000,11.241455810546874,0.6016473770141602,0.0814817026257515,0.32949602603912354
1773048899535439400,11.251439453125,-0.0017528533935546875,-0.6439184546470642,0.764080286026001
1773048899545409500,11.261409423828125,-0.2692899703979492,0.4003525972366333,0.38057541847229004
1773048899555391500,11.2713916015625,0.5051431655883789,0.19822534918785095,-0.614784300327301
1773048899565363000,11.281363037109376,1.4974193572998047,-0.8232983350753784,-0.11221511662006378
1773048899575344000,11.29134423828125,-1.6826791763305664,0.8111194968223572,-1.192405343055725
1773048899585316600,11.301316650390625,0.6236763000488281,-0.007733292877674103,-1.0318996906280518
1773048899595296800,11.311296875,-0.00852203369140625,0.22884273529052734,0.2981832027435303
1773048899605176800,11.3211767578125,-0.056362152099609375,0.3792077302932739,-1.2338147163391113
1773048899614994000,11.330993896484374,-0.7344598770141602,0.06850615888834,0.14334246516227722
1773048899624990700,11.34099072265625,1.244842529296875,-0.0007437244057655334,1.0817986726760864
1773048899634951200,11.350951171875,-0.9076766967773438,0.524254322052002,-1.0900068283081055
1773048899645131300,11.36113134765625,-0.7096881866455078,0.7096129059791565,0.5200992822647095
1773048899655164200,11.3711640625,1.7852725982666016,-0.7341002821922302,0.5039305090904236
1773048899665130500,11.381130615234374,-1.9831023216247559,-0.187303364276886,-0.44916680455207825
1773048899675115500,11.391115478515625,0.4196329116821289,1.3827506303787231,-1.7787706851959229
1773048899684995600,11.40099560546875,1.5648326873779297,-0.7020021080970764,0.8789893984794617
1773048899694811600,11.410811767578124,-0.5646047592163086,-0.6314605474472046,-0.3961048722267151
1773048899704991700,11.42099169921875,-2.5119433403015137,1.3617005348205566,-2.7108192443847656
1773048899715024600,11.431024658203125,1.6498022079467773,0.18997228145599365,1.3863667249679565
1773048899724991000,11.440990966796875,0.41324710845947266,-0.36962172389030457,0.9469913840293884
1773048899734976300,11.450976318359375,-1.9521498680114746,0.015937916934490204,-0.2441653609275818
1773048899744944600,11.460944580078126,0.24509620666503906,0.8369347453117371,0.5628726482391357
1773048899754928000,11.47092822265625,1.5819110870361328,-0.11388850212097168,0.7281535267829895
1773048899764898000,11.48089794921875,-0.6716985702514648,-0.5060538649559021,-0.7266353368759155
1773048899774880300,11.49088037109375,-2.2558541297912598,0.7948590517044067,-0.41434019804000854
1773048899784760300,11.50076025390625,1.747635841369629,-0.29336193203926086,-0.5793721675872803
1773048899794577200,11.5105771484375,0.5109109878540039,0.19399318099021912,-0.36541855335235596
1773048899804757000,11.520757080078125,-1.338846206665039,0.7696568369865417,0.17643961310386658
1773048899814790400,11.530790283203125,0.28368091583251953,-0.4476380944252014,-0.18637116253376007
1773048899824758800,11.5407587890625,-0.7727212905883789,0.5057737827301025,0.3199313282966614
1773048899834742300,11.5507421875,1.287795066833496,0.01848898082971573,1.3829588890075684
1773048899844712200,11.560712158203126,-0.3012208938598633,0.021943487226963043,0.041166603565216064
1773048899854694400,11.5706943359375,-0.19536972045898438,-0.11356703191995621,-0.32359009981155396
1773048899864665600,11.58066552734375,-1.3317193984985352,0.4432135224342346,-0.0816456601023674
1773048899874646800,11.590646728515624,1.933908462524414,0.13281716406345367,-1.0189452171325684
1773048899884619300,11.600619384765626,-0.2442150115966797,-0.4561229944229126,-0.9784689545631409
1773048899894599700,11.610599609375,-1.7100114822387695,0.9876341819763184,0.1326613873243332
1773048899904572700,11.62057275390625,2.0246200561523438,0.10103435069322586,-0.3144299387931824
1773048899914552300,11.63055224609375,-0.49770069122314453,-0.011520430445671082,0.6304622292518616
1773048899924526300,11.6405263671875,-0.7735147476196289,0.21336452662944794,0.3469092845916748
1773048899934505500,11.65050537109375,-0.38949012756347656,0.2939937114715576,0.13736209273338318
1773048899944479700,11.660479736328124,2.143000602722168,0.07933235913515091,0.5636835098266602
1773048899954458400,11.670458251953125,-0.9956998825073242,-0.39843320846557617,0.03240763023495674
1773048899964433400,11.680433349609375,-1.3657903671264648,0.48679494857788086,-0.06630793958902359
1773048899974411500,11.69041162109375,0.7392282485961914,0.6328829526901245,-0.9200601577758789
1773048899984386800,11.70038671875,1.367842674255371,-0.6250270009040833,0.11728492379188538
1773048899994365000,11.710364990234375,-1.1145458221435547,0.2841501235961914,-0.3945029079914093
1773048900004340500,11.720340576171875,0.4978952407836914,0.1495765596628189,0.547254741191864
1773048900014318000,11.730318115234375,1.1653451919555664,0.17452791333198547,-0.15520861744880676
1773048900024198100,11.7401982421875,-0.4711179733276367,-0.2064545452594757,1.2245066165924072
1773048900034015700,11.750015625,-1.568521499633789,0.13707906007766724,0.6783748269081116
1773048900044195800,11.76019580078125,0.8331871032714844,0.27321943640708923,-0.14177186787128448
1773048900054229800,11.770229736328124,0.917083740234375,-0.016431502997875214,0.7090852856636047
1773048900064201000,11.780200927734375,-0.9289216995239258,-0.15666918456554413,-0.22948087751865387
1773048900074182100,11.79018212890625,0.28182029724121094,-0.04517435282468796,-0.3303481340408325
1773048900084062200,11.800062255859375,-0.5404596328735352,0.6292809247970581,-0.5457342267036438
1773048900093879000,11.809879150390625,1.7631330490112305,0.29791682958602905,-0.16090929508209229
1773048900104059100,11.82005908203125,-0.8492069244384766,-0.2535167336463928,1.003609299659729
1773048900114092500,11.830092529296875,-1.5204925537109375,0.6589415073394775,0.36105626821517944
1773048900124061400,11.8400615234375,2.142096519470215,-0.1226089745759964,1.0775774717330933
1773048900134044700,11.850044677734376,-0.4904003143310547,-0.15977510809898376,1.2314112186431885
1773048900144014800,11.860014892578125,-0.5322198867797852,0.3933626413345337,0.23608151078224182
1773048900153996800,11.869996826171874,0.008855819702148438,-0.04102027416229248,-0.36751917004585266
1773048900163968500,11.879968505859376,0.3241310119628906,0.5562430620193481,-0.718780517578125
1773048900173949400,11.889949462890625,0.12272167205810547,0.08740202337503433,0.22867600619792938
1773048900183829200,11.899829345703125,0.26570987701416016,0.21138650178909302,0.2700691223144531
1773048900193646300,11.909646240234375,-0.21739768981933594,0.1609671413898468,-0.6507095694541931
1773048900203826200,11.919826171875,0.1795511245727539,0.07121772319078445,0.821427047252655
1773048900213859800,11.92985986328125,-0.44658565521240234,0.4783031642436981,0.968335747718811
1773048900223829000,11.9398291015625,0.13255882263183594,0.06156756356358528,0.13233718276023865
1773048900233812000,11.94981201171875,-0.26421642303466797,-0.13502182066440582,0.4549257457256317
1773048900243782400,11.959782470703125,-0.9896230697631836,0.3249185383319855,0.45740625262260437
1773048900253764400,11.969764404296875,0.001529693603515625,0.6121684908866882,0.43548133969306946
1773048900263736000,11.979736083984376,2.618988037109375,-0.6940352320671082,-0.6736627221107483
1773048900273716700,11.989716796875,-3.2960472106933594,0.39228013157844543,-0.26921147108078003
1773048900283596800,11.9995966796875,0.8772525787353516,0.5263924598693848,0.5048240423202515
1773048900293413600,12.00941357421875,1.6489171981811523,-0.005883298814296722,0.3238285779953003
1773048900303593700,12.01959375,-0.5331554412841797,0.4430232048034668,0.4343893229961395
1773048900313627400,12.02962744140625,-1.4058856964111328,-0.5936108231544495,0.97539222240448
1773048900323507500,12.039507568359374,-0.44232845306396484,0.4999215006828308,0.6723765134811401
1773048900333323500,12.049323486328126,0.9964027404785156,0.30861788988113403,-0.24803048372268677
1773048900343503600,12.059503662109375,-0.4964170455932617,-0.20796826481819153,0.5451177358627319
1773048900353536800,12.069536865234374,-1.2975730895996094,0.33024823665618896,0.29576659202575684
1773048900363503400,12.07950341796875,-0.2099618911743164,0.33016592264175415,-0.4817359149456024
1773048900373488000,12.089488037109374,3.2773799896240234,-0.5815874934196472,1.3182909488677979
1773048900383457000,12.09945703125,-2.4148144721984863,0.20485630631446838,-0.23399817943572998
1773048900393440300,12.109440185546875,-0.18296527862548828,0.9966208338737488,0.23920683562755585
1773048900403410400,12.119410400390626,1.6421480178833008,0.05973309651017189,1.0389636754989624
1773048900413392400,12.129392333984375,-1.7721633911132812,-0.236223042011261,0.027901440858840942
1773048900423364000,12.139364013671875,-0.4588346481323242,0.3614341616630554,0.808880090713501
1773048900433345000,12.149344970703124,1.194960594177246,0.05921183153986931,0.8490791320800781
1773048900443317500,12.1593173828125,-0.489501953125,-0.06603912264108658,-0.8032623529434204
1773048900453297700,12.169297607421875,-1.395970344543457,-0.03344850242137909,-0.2279215157032013
1773048900463271200,12.179271240234375,-0.48015785217285156,0.7076207995414734,0.6061080098152161
1773048900473250600,12.18925048828125,2.2581520080566406,0.09519338607788086,-0.12112296372652054
1773048900483130400,12.19913037109375,-0.16888999938964844,-0.05911571532487869,0.30193769931793213
1773048900492947700,12.20894775390625,-0.58868408203125,0.26950934529304504,0.9446128606796265
1773048900503127800,12.2191279296875,0.8073797225952148,0.07967298477888107,0.9838588833808899
1773048900513161700,12.22916162109375,0.4612388610839844,0.27378177642822266,0.2748678922653198
1773048900523041500,12.23904150390625,-0.6099071502685547,-0.5984969139099121,0.6855417490005493
1773048900532857900,12.24885791015625,-1.8596892356872559,0.7916944026947021,-0.29414281249046326
1773048900543038000,12.259037841796875,0.38052940368652344,0.4386792480945587,0.3016267716884613
1773048900553071000,12.269071044921875,1.0388431549072266,-0.3835098147392273,-0.4398382306098938
1773048900563038500,12.27903857421875,-3.004647731781006,0.4282214045524597,0.4849463403224945
1773048900573022700,12.289022705078125,2.1900596618652344,0.5637082457542419,0.9264490008354187
1773048900582902800,12.29890283203125,1.2914047241210938,-0.09602082520723343,0.7470521926879883
1773048900592719000,12.308718994140625,0.23263835906982422,-0.16437551379203796,0.5431896448135376
1773048900602712600,12.318712646484375,-1.3917884826660156,0.3030783236026764,0.42921221256256104
1773048900612675600,12.328675537109374,1.2722082138061523,-0.08219054341316223,0.6513375043869019
1773048900622855700,12.338855712890625,-0.3216590881347656,-0.22750717401504517,0.3810797929763794
1773048900632888300,12.348888427734375,-1.0947389602661133,-0.0461614653468132,-0.6964573860168457
1773048900642852400,12.358852294921874,-0.8245754241943359,0.8271341919898987,-0.2754661738872528
1773048900652839200,12.368839111328125,1.6707792282104492,0.5399635434150696,0.8017663955688477
1773048900662806000,12.378805908203125,-0.9173135757446289,-0.8613007664680481,0.8501986861228943
1773048900672790800,12.388790771484375,-0.8813886642456055,1.0435880422592163,-0.28817784786224365
1773048900682670800,12.3986708984375,1.2797660827636719,0.37716934084892273,0.9063019752502441
1773048900692487000,12.40848681640625,2.609011650085449,-0.5110782384872437,1.210633635520935
1773048900702667000,12.4186669921875,-2.3221306800842285,-0.3951922059059143,0.7159508466720581
1773048900712700000,12.428699951171875,1.079737663269043,0.6019353270530701,-1.0570770502090454
1773048900722666500,12.43866650390625,-0.4274930953979492,0.49411264061927795,0.2589462101459503
1773048900732651500,12.448651611328126,1.2024259567260742,-0.5161903500556946,0.48389148712158203
1773048900742620000,12.458619873046874,-3.0228161811828613,0.7901943325996399,-0.6052457094192505
1773048900752603400,12.468603271484374,1.3456029891967773,0.7457678914070129,0.6207619309425354
1773048900762573600,12.478573486328125,1.1128673553466797,0.05269062519073486,0.9390754699707031
1773048900772555500,12.488555419921875,-1.688887596130371,-0.12468322366476059,0.24264636635780334
1773048900782527000,12.49852685546875,0.9902629852294922,0.5809862613677979,-0.38535910844802856
1773048900792508200,12.508508056640625,1.3794364929199219,-0.2444896399974823,1.1862828731536865
1773048900802388000,12.518387939453126,0.3489990234375,-0.11237688362598419,0.6934881806373596
1773048900812204800,12.528204833984375,-1.2997560501098633,0.2689090073108673,-1.0419037342071533
1773048900822201000,12.538201171875,0.35613059997558594,0.3526627719402313,0.0919443666934967
1773048900832162000,12.548162109375,0.23105239868164062,0.3217881917953491,0.5874907374382019
1773048900842342100,12.558342041015624,-0.5146141052246094,0.05880389362573624,0.7082502245903015
1773048900852375000,12.568375,-1.4350852966308594,0.15574216842651367,0.539021372795105
1773048900862340900,12.5783408203125,0.698786735534668,-0.4556625187397003,1.0587397813796997
1773048900872326400,12.588326416015626,-0.5832338333129883,0.8921129107475281,0.2576688826084137
1773048900882206500,12.59820654296875,1.8540105819702148,-0.12005659192800522,0.7370323538780212
1773048900892022300,12.608022216796876,-1.6277999877929688,-1.0170910358428955,0.36331748962402344
1773048900902015000,12.618014892578126,-1.5088768005371094,1.1865309476852417,-0.3371661901473999
1773048900911978800,12.627978759765625,3.67252254486084,0.2619856595993042,0.03304196894168854
1773048900921968400,12.637968505859375,-2.3981480598449707,-0.21837663650512695,0.5957082509994507
1773048900931934700,12.647934814453125,-3.3569698333740234,0.42741289734840393,-0.20940080285072327
1773048900942114800,12.65811474609375,3.462704658508301,0.8823454976081848,0.40249180793762207
1773048900952146700,12.668146728515625,0.25383758544921875,-0.24003130197525024,1.2741782665252686
1773048900961952800,12.677952880859374,-2.5743470191955566,-0.7908310294151306,1.1758612394332886
1773048900971926500,12.687926513671876,-1.2971878051757812,0.8290877342224121,-0.19755420088768005
1773048900982061600,12.6980615234375,3.410832405090332,0.12984567880630493,0.9544603824615479
1773048900992051500,12.708051513671874,0.8848438262939453,-0.43992334604263306,0.5449140667915344
1773048901002015200,12.71801513671875,-2.61384916305542,0.2892788052558899,-0.7345854043960571
1773048901012002600,12.72800244140625,1.2329463958740234,1.0157935619354248,-0.6134011745452881
1773048901021968600,12.73796875,1.6598339080810547,0.09286601841449738,1.0024362802505493
1773048901031954000,12.747953857421875,-0.8039112091064453,-0.18721981346607208,0.7636572122573853
1773048901041922300,12.75792236328125,-2.8411173820495605,0.2862718403339386,-0.4851391017436981
