time,seconds_elapsed,z,y,x
1773048888471228000,0.187227783203125,-0.0019973693415522575,-0.007323687430471182,-0.0035952648613601923
1773048888491181300,0.207181396484375,0.00013315795513335615,0.008655266836285591,-0.0035952648613601923
1773048888501161500,0.217161376953125,0.0011984215816482902,0.0011984215816482902,-0.0003994738799519837
1773048888511167200,0.227167236328125,0.0011984215816482902,0.0022636852227151394,0.002796316985040903
1773048888521115600,0.23711572265625,0.00013315795513335615,-0.005193160381168127,-0.00892158318310976
1773048888531098000,0.24709814453125,0.0011984215816482902,0.0033289489801973104,0.0017310534603893757
1773048888540978200,0.256978271484375,-0.0009321057004854083,-0.008388951420783997,0.002796316985040903
1773048888550858200,0.266858154296875,0.0011984215816482902,0.022503694519400597,0.002796316985040903
1773048888560702500,0.276702392578125,0.00013315795513335615,-0.010519478470087051,-0.001464737462811172
1773048888570882600,0.286882568359375,0.0011984215816482902,-0.012650005519390106,0.0006657897611148655
1773048888580748000,0.296748046875,0.0033289489801973104,0.0011984215816482902,0.002796316985040903
1773048888590614300,0.3066142578125,0.0011984215816482902,0.011851058341562748,0.0006657897611148655
1773048888600696800,0.31669677734375,-0.003062632866203785,-0.003062632866203785,-0.0035952648613601923
1773048888610651400,0.3266513671875,-0.0019973693415522575,-0.028628960251808167,0.0006657897611148655
1773048888620831200,0.336831298828125,0.00013315795513335615,0.03848264738917351,0.005992108024656773
1773048888630946800,0.34694677734375,-0.0009321057004854083,-0.005193160381168127,-0.0035952648613601923
1773048888640826600,0.35682666015625,0.00013315795513335615,-0.01584579609334469,0.002796316985040903
1773048888650706700,0.366706787109375,0.0011984215816482902,-0.0019973693415522575,-0.0035952648613601923
1773048888660787000,0.376786865234375,0.00013315795513335615,0.01504684891551733,0.004926844500005245
1773048888670843400,0.386843505859375,-0.0009321057004854083,-0.01904158666729927,0.004926844500005245
1773048888680742100,0.3967421875,0.00013315795513335615,0.005459476262331009,0.0017310534603893757
1773048888690734800,0.40673486328125,-0.003062632866203785,0.013981585390865803,-0.0003994738799519837
1773048888700615000,0.416614990234375,-0.0019973693415522575,-0.012650005519390106,-0.0025300011038780212
1773048888710495000,0.426494873046875,0.0011984215816482902,-0.0019973693415522575,0.005992108024656773
1773048888720646700,0.436646728515625,-0.0009321057004854083,0.007590003311634064,-0.0025300011038780212
1773048888730713000,0.446713134765625,0.0033289489801973104,0.012916321866214275,0.002796316985040903
1773048888740593200,0.45659326171875,-0.0009321057004854083,-0.0456731803715229,0.0006657897611148655
1773048888750473200,0.46647314453125,-0.0019973693415522575,0.043808966875076294,-0.004660528618842363
1773048888760555800,0.4765556640625,-0.0019973693415522575,-0.017976323142647743,0.004926844500005245
1773048888770550300,0.48655029296875,-0.0009321057004854083,-0.009454214945435524,0.003861580742523074
1773048888780509400,0.496509521484375,0.00013315795513335615,0.02143843099474907,-0.0003994738799519837
1773048888790489900,0.50648974609375,0.0022636852227151394,-0.016911059617996216,0.004926844500005245
1773048888800463000,0.516463134765625,0.0022636852227151394,-0.003062632866203785,-0.0035952648613601923
1773048888810440400,0.5264404296875,0.0022636852227151394,-0.0062584239058196545,-0.0035952648613601923
1773048888820416300,0.536416259765625,0.0022636852227151394,0.007590003311634064,0.003861580742523074
1773048888830393300,0.546393310546875,-0.0009321057004854083,0.0022636852227151394,-0.005725792143493891
1773048888840369700,0.55636962890625,-0.0009321057004854083,-0.008388951420783997,0.003861580742523074
1773048888850346500,0.566346435546875,-0.0019973693415522575,0.01504684891551733,-0.005725792143493891
1773048888860323000,0.576322998046875,0.0011984215816482902,-0.0062584239058196545,-0.004660528618842363
1773048888870300000,0.5862998046875,0.0033289489801973104,-0.02330264262855053,0.0070573715493083
1773048888880276500,0.5962763671875,0.0011984215816482902,0.04167843982577324,-0.0035952648613601923
1773048888890253300,0.60625341796875,0.0011984215816482902,-0.024367906153202057,0.0006657897611148655
1773048888900230000,0.61622998046875,0.0011984215816482902,-0.03395527973771095,0.008122635073959827
1773048888910206500,0.62620654296875,-0.0019973693415522575,0.0576573945581913,-0.009986846707761288
1773048888920183300,0.636183349609375,-0.0009321057004854083,-0.05632581561803818,0.002796316985040903
1773048888930159900,0.646159912109375,-0.0019973693415522575,-0.004127896390855312,0.015579480677843094
1773048888940136700,0.65613671875,-0.0019973693415522575,0.08002793043851852,-0.011052110232412815
1773048888950113300,0.66611328125,0.0022636852227151394,-0.08508793264627457,0.011318426579236984
1773048888960089900,0.67608984375,-0.009454214945435524,-0.02649843320250511,0.008122635073959827
1773048888970066700,0.686066650390625,-0.0019973693415522575,0.08855003863573074,-0.01957421936094761
1773048888980043300,0.696043212890625,-0.005193160381168127,-0.1392832249403,0.01771000772714615
1773048888990019800,0.706019775390625,-0.014780532568693161,0.02143843099474907,0.02197106182575226
1773048888999996700,0.71599658203125,-0.004127896390855312,0.1279647946357727,-0.007856319658458233
1773048889009973200,0.72597314453125,0.00013315795513335615,-0.11598058044910431,0.018775271251797676
1773048889019950000,0.7359501953125,-0.03395527973771095,-0.04460791498422623,0.005992108024656773
1773048889029926700,0.7459267578125,-0.05632581561803818,0.09600688517093658,-0.024900536984205246
1773048889039903500,0.755903564453125,-0.041412122547626495,-0.1712411344051361,0.0006657897611148655
1773048889049880000,0.765880126953125,-0.03502054139971733,-0.029694223776459694,0.03688475489616394
1773048889059857000,0.77585693359375,-0.007323687430471182,0.20892482995986938,-0.007856319658458233
1773048889069833500,0.78583349609375,0.0043942127376794815,-0.06058686971664429,0.01664474420249462
1773048889079810000,0.79581005859375,-0.013715269044041634,-0.07656582444906235,0.019840534776449203
1773048889089787000,0.805786865234375,-0.06804371625185013,0.1045289933681488,-0.03235738351941109
1773048889099763500,0.815763427734375,-0.10532794147729874,-0.18935060501098633,-0.0153131652623415
1773048889109740300,0.825740234375,-0.11917637288570404,-0.18295903503894806,0.030493171885609627
1773048889119716900,0.835716796875,-0.08082687854766846,0.29521119594573975,0.005992108024656773
1773048889129693700,0.845693603515625,-0.0318247526884079,0.20679430663585663,0.04860265180468559
1773048889139670300,0.855670166015625,-0.03928159549832344,-0.008388951420783997,0.059255290776491165
1773048889149647000,0.865647216796875,-0.03395527973771095,0.05020054802298546,-0.021704746410250664
1773048889159623700,0.875623779296875,-0.008388951420783997,-0.23941799998283386,-0.08455529808998108
1773048889169600300,0.885600341796875,-0.08295740932226181,-0.4162517786026001,-0.024900536984205246
1773048889179577000,0.8955771484375,-0.2012016773223877,0.11944268643856049,0.012383690103888512
1773048889189553700,0.9055537109375,0.00013315795513335615,0.20892482995986938,0.04221107065677643
1773048889199530500,0.915530517578125,0.005459476262331009,0.11518163233995438,0.0762995108962059
1773048889209507000,0.925507080078125,-0.02330264262855053,0.19614167511463165,0.0070573715493083
1773048889219484000,0.93548388671875,-0.09893636405467987,-0.1351553201675415,-0.029161592945456505
1773048889229460500,0.94546044921875,-0.15752586722373962,-0.34381383657455444,-0.0153131652623415
1773048889239437300,0.955437255859375,-0.22996379435062408,0.012916321866214275,-0.05259739235043526
1773048889249414000,0.965413818359375,-0.18415744602680206,0.0033289489801973104,0.014514217153191566
1773048889259390500,0.975390380859375,-0.13622058928012848,-0.0062584239058196545,0.05712476372718811
1773048889269367300,0.9853671875,-0.1213068962097168,0.3016027808189392,-0.0035952648613601923
1773048889279343900,0.99534375,-0.10000162571668625,-0.12663321197032928,-0.001464737462811172
1773048889289320700,1.00532080078125,-0.09574057161808014,-0.3928159773349762,-0.005725792143493891
1773048889299297300,1.01529736328125,-0.2384859025478363,0.13435637950897217,-0.06538055837154388
1773048889309274000,1.025274169921875,-0.27044379711151123,0.14820480346679688,0.050733182579278946
1773048889319250700,1.035250732421875,-0.20226693153381348,-0.022237379103899002,0.09014793485403061
1773048889329227500,1.0452275390625,-0.16498270630836487,0.23555642366409302,-0.030226856470108032
1773048889339204000,1.0552041015625,-0.1255679577589035,-0.19361166656017303,-0.040879491716623306
1773048889349180700,1.0651806640625,-0.10745847225189209,-0.4769718050956726,-0.01318263728171587
1773048889359157500,1.075157470703125,-0.07337003201246262,-0.024367906153202057,-0.07709845900535583
1773048889369134000,1.085134033203125,0.016112113371491432,0.009720530360937119,-0.0035952648613601923
1773048889379111000,1.09511083984375,-0.007323687430471182,0.09174583107233047,0.11358373612165451
1773048889389087500,1.10508740234375,-0.04034686088562012,0.5219792127609253,0.05819002538919449
1773048889399064300,1.115064208984375,-0.130894273519516,0.18655429780483246,0.02090579830110073
1773048889409041000,1.125041015625,-0.22783325612545013,-0.21598219871520996,-0.007856319658458233
1773048889419017700,1.135017822265625,-0.22250694036483765,-0.38642439246177673,-0.06218476593494415
1773048889428994300,1.144994384765625,-0.15006901323795319,-0.393881231546402,-0.05153212696313858
1773048889438971100,1.15497119140625,-0.1490037590265274,0.043808966875076294,-0.005725792143493891
1773048889448947700,1.16494775390625,-0.19907113909721375,0.36019226908683777,0.012383690103888512
1773048889458924500,1.174924560546875,-0.26937854290008545,-0.0062584239058196545,0.06777740269899368
1773048889468901000,1.184901123046875,-0.2853575050830841,0.03635212033987045,0.010253162123262882
1773048889478878000,1.1948779296875,-0.21185430884361267,0.11198583990335464,-0.06325002759695053
1773048889488854500,1.2048544921875,-0.1351553201675415,-0.26391905546188354,0.03262370079755783
1773048889498831000,1.2148310546875,-0.016911059617996216,0.02463422156870365,0.0070573715493083
1773048889508808000,1.224807861328125,0.07789740711450577,0.2078595608472824,-0.045140545815229416
1773048889518784500,1.234784423828125,-0.0009321057004854083,-0.138217955827713,0.03795001655817032
1773048889528761300,1.24476123046875,-0.02330264262855053,0.12583427131175995,0.031558435410261154
1773048889538738000,1.254738037109375,-0.008388951420783997,0.11624689400196075,-0.01957421936094761
1773048889548714800,1.26471484375,-0.02330264262855053,-0.251135915517807,0.018775271251797676
1773048889558652700,1.274652587890625,-0.04034686088562012,-0.11491531878709793,-0.01957421936094761
1773048889568625400,1.28462548828125,0.042743705213069916,-0.025433169677853584,-0.04301001876592636
1773048889578644700,1.294644775390625,0.0022636852227151394,-0.10319741815328598,0.034754227846860886
1773048889588622300,1.304622314453125,-0.041412122547626495,0.3175817131996155,0.02090579830110073
1773048889598598100,1.31459814453125,-0.02330264262855053,0.180162712931633,0.02090579830110073
1773048889608575500,1.324575439453125,-0.03395527973771095,-0.2138516753911972,0.052863709628582
1773048889618551600,1.334551513671875,0.0043942127376794815,-0.08508793264627457,-0.029161592945456505
1773048889628529000,1.34452880859375,0.0949416235089302,-0.09467530250549316,-0.06751108169555664
1773048889638505000,1.3545048828125,-0.04247738793492317,-0.13195952773094177,0.005992108024656773
1773048889648482000,1.36448193359375,-0.05206476151943207,0.27603644132614136,0.06458161026239395
1773048889658458400,1.374458251953125,-0.02649843320250511,0.20253324508666992,0.06564687192440033
1773048889668435500,1.384435546875,-0.03608580678701401,-0.0786963477730751,0.015579480677843094
1773048889678411800,1.394411865234375,-0.03928159549832344,-0.13409006595611572,-0.03448791056871414
1773048889688388600,1.404388671875,0.15659375488758087,-0.30546435713768005,-0.05898897349834442
1773048889698365200,1.414365234375,0.02143843099474907,-0.06697845458984375,0.002796316985040903
1773048889708342000,1.424342041015625,-0.07763108611106873,0.2941459119319916,0.039015281945466995
1773048889718318600,1.434318603515625,-0.04993423447012901,0.08535424619913101,0.056059498339891434
1773048889728295400,1.44429541015625,-0.010519478470087051,-0.03395527973771095,0.026232117787003517
1773048889738272000,1.45427197265625,0.043808966875076294,0.009720530360937119,-0.04727107286453247
1773048889748248800,1.464248779296875,-0.01584579609334469,-0.2181127369403839,-0.0366184376180172
1773048889758225400,1.474225341796875,-0.04993423447012901,-0.028628960251808167,0.009187898598611355
1773048889768202200,1.4842021484375,-0.007323687430471182,0.21851220726966858,0.027297381311655045
1773048889778140000,1.494139892578125,0.04061317816376686,-0.08721846342086792,0.03688475489616394
1773048889788113000,1.50411279296875,-0.014780532568693161,-0.0062584239058196545,0.01664474420249462
1773048889798132200,1.51413232421875,0.0011984215816482902,0.06617950648069382,-0.045140545815229416
1773048889808109800,1.52410986328125,-0.004127896390855312,-0.20746009051799774,-0.021704746410250664
1773048889818046700,1.534046630859375,-0.053130023181438446,0.012916321866214275,0.005992108024656773
1773048889828020200,1.544020263671875,-0.016911059617996216,0.13542163372039795,0.01664474420249462
1773048889838000000,1.554000244140625,0.04167843982577324,-0.09041424840688705,0.04114580899477005
1773048889847974400,1.563974365234375,-0.03395527973771095,0.06831002980470657,0.0070573715493083
1773048889857953500,1.57395361328125,0.007590003311634064,0.011851058341562748,-0.03235738351941109
1773048889867928300,1.58392822265625,-0.0062584239058196545,-0.10958899557590485,-0.0025300011038780212
1773048889877945900,1.59394580078125,-0.06271740049123764,0.1375521719455719,0.02090579830110073
1773048889887924700,1.6039248046875,0.0011984215816482902,-0.02756369672715664,0.012383690103888512
1773048889897899300,1.613899169921875,-0.005193160381168127,-0.09147951751947403,0.026232117787003517
1773048889907878000,1.6238779296875,-0.013715269044041634,-0.01904158666729927,-0.0270310640335083
1773048889917814000,1.63381396484375,0.018242640420794487,-0.13608743250370026,-0.02277000993490219
1773048889927788300,1.643788330078125,-0.06058686971664429,0.15246586501598358,0.012383690103888512
1773048889937728500,1.653728515625,-0.03608580678701401,0.17164060473442078,0.018775271251797676
1773048889947699500,1.663699462890625,-0.0019973693415522575,-0.03608580678701401,0.02090579830110073
1773048889957565700,1.673565673828125,-0.01584579609334469,-0.01904158666729927,0.014514217153191566
1773048889967526000,1.68352587890625,-0.01904158666729927,-0.148870587348938,-0.03768370300531387
1773048889977518800,1.693518798828125,-0.03395527973771095,0.10665952414274216,-0.012117373757064342
1773048889987482600,1.703482666015625,-0.010519478470087051,0.13648690283298492,0.034754227846860886
1773048889997472300,1.71347216796875,0.018242640420794487,-0.0978710949420929,0.008122635073959827
1773048890007438300,1.723438232421875,-0.01904158666729927,0.04913528636097908,-0.01850895583629608
1773048890017386800,1.73338671875,-0.024367906153202057,-0.07230477035045624,-0.025965800508856773
1773048890027351000,1.74335107421875,-0.01584579609334469,-0.01584579609334469,0.019840534776449203
1773048890037262600,1.7532626953125,-0.007323687430471182,0.009720530360937119,-0.007856319658458233
1773048890047221800,1.7632216796875,-0.013715269044041634,-0.05099949613213539,-0.02277000993490219
1773048890057177000,1.773177001953125,-0.01904158666729927,0.08748477697372437,-0.0035952648613601923
1773048890067136000,1.783135986328125,-0.004127896390855312,-0.10532794147729874,-0.0025300011038780212
1773048890077091800,1.793091796875,-0.0009321057004854083,-0.029694223776459694,0.010253162123262882
1773048890087050200,1.80305029296875,-0.008388951420783997,0.02463422156870365,-0.01850895583629608
1773048890097006300,1.81300634765625,-0.013715269044041634,-0.014780532568693161,-0.0153131652623415
1773048890106964500,1.822964599609375,-0.014780532568693161,0.0576573945581913,-0.01850895583629608
1773048890116920800,1.8329208984375,-0.012650005519390106,-0.07550056278705597,0.004926844500005245
1773048890126879000,1.84287890625,-0.013715269044041634,0.08535424619913101,0.0070573715493083
1773048890136796700,1.852796630859375,-0.016911059617996216,0.09600688517093658,-0.011052110232412815
1773048890146750700,1.862750732421875,-0.010519478470087051,-0.11704584211111069,-0.01850895583629608
1773048890156634400,1.87263427734375,-0.014780532568693161,0.016112113371491432,-0.004660528618842363
1773048890166581200,1.882581298828125,-0.01904158666729927,0.02889527566730976,0.023036325350403786
1773048890176587000,1.8925869140625,-0.020106852054595947,0.026764748618006706,0.0070573715493083
1773048890186540000,1.9025400390625,-0.017976323142647743,-0.03502054139971733,-0.0153131652623415
1773048890196501500,1.91250146484375,-0.022237379103899002,0.005459476262331009,-0.011052110232412815
1773048890206455300,1.922455322265625,-0.025433169677853584,0.019307903945446014,0.009187898598611355
1773048890216454700,1.93245458984375,-0.017976323142647743,-0.007323687430471182,0.005992108024656773
1773048890226413000,1.9424130859375,-0.012650005519390106,0.027830012142658234,-0.00892158318310976
1773048890236593000,1.952593017578125,-0.025433169677853584,-0.011584741994738579,-0.00892158318310976
1773048890246773000,1.96277294921875,-0.029694223776459694,-0.04993423447012901,0.004926844500005245
1773048890256952800,1.972952880859375,-0.024367906153202057,0.03848264738917351,0.010253162123262882
1773048890267058200,1.98305810546875,-0.029694223776459694,0.02143843099474907,0.018775271251797676
1773048890277014000,1.993013916015625,-0.02756369672715664,-0.02649843320250511,0.0006657897611148655
1773048890287007500,2.003007568359375,-0.017976323142647743,-0.061652131378650665,-0.0504668653011322
1773048890296967400,2.012967529296875,-0.02756369672715664,-0.022237379103899002,0.028362644836306572
1773048890306957600,2.02295751953125,-0.01584579609334469,0.08428898453712463,0.04966791719198227
1773048890316921000,2.032921142578125,-0.02756369672715664,0.06511423736810684,-0.02383527345955372
1773048890326908400,2.042908447265625,-0.03608580678701401,-0.06697845458984375,-0.02277000993490219
1773048890336874500,2.05287451171875,-0.020106852054595947,-0.037151068449020386,0.010253162123262882
1773048890346859800,2.06285986328125,-0.01904158666729927,0.1045289933681488,0.019840534776449203
1773048890356828200,2.072828125,-0.01584579609334469,-0.01584579609334469,0.008122635073959827
1773048890366811600,2.082811767578125,-0.032890014350414276,-0.053130023181438446,-0.03981423005461693
1773048890376781600,2.092781494140625,-0.028628960251808167,-0.03821633383631706,-0.011052110232412815
1773048890386763800,2.102763671875,-0.008388951420783997,0.022503694519400597,0.051798444241285324
1773048890396735000,2.11273486328125,-0.013715269044041634,0.07576687633991241,0.013448953628540039
1773048890406716200,2.122716064453125,-0.028628960251808167,-0.06697845458984375,-0.04620581120252609
1773048890416688400,2.1326884765625,-0.022237379103899002,-0.07123950868844986,-0.0153131652623415
1773048890426668800,2.142668701171875,-0.008388951420783997,0.05659212917089462,0.034754227846860886
1773048890436641800,2.152641845703125,-0.010519478470087051,0.06617950648069382,0.02090579830110073
1773048890446621400,2.162621337890625,-0.022237379103899002,-0.07017423957586288,-0.040879491716623306
1773048890456595500,2.172595458984375,-0.025433169677853584,-0.08189214020967484,-0.025965800508856773
1773048890466574300,2.18257421875,-0.009454214945435524,0.02143843099474907,0.02197106182575226
1773048890476548900,2.192548828125,-0.011584741994738579,0.09813741594552994,0.01664474420249462
1773048890486527200,2.20252734375,-0.01904158666729927,-0.05099949613213539,-0.024900536984205246
1773048890496502300,2.212502197265625,-0.025433169677853584,-0.0978710949420929,-0.04194475710391998
1773048890506480400,2.22248046875,-0.01584579609334469,0.023568958044052124,0.010253162123262882
1773048890516455700,2.23245556640625,-0.009454214945435524,0.08855003863573074,0.030493171885609627
1773048890526433500,2.24243359375,-0.024367906153202057,0.0342215932905674,-0.020639482885599136
1773048890536409000,2.2524091796875,-0.028628960251808167,-0.11385004967451096,-0.06431528925895691
1773048890546387000,2.262386962890625,-0.02649843320250511,0.016112113371491432,0.004926844500005245
1773048890556362500,2.272362548828125,-0.010519478470087051,0.048070020973682404,0.04114580899477005
1773048890566340000,2.282340087890625,-0.028628960251808167,0.051265813410282135,-0.030226856470108032
1773048890576316200,2.292316162109375,-0.037151068449020386,-0.10639320313930511,-0.0600542388856411
1773048890586293500,2.30229345703125,-0.025433169677853584,-0.05845634266734123,-0.001464737462811172
1773048890596269600,2.31226953125,-0.01584579609334469,0.08215846121311188,0.026232117787003517
1773048890606246700,2.32224658203125,-0.02756369672715664,0.06617950648069382,-0.021704746410250664
1773048890616223000,2.332222900390625,-0.03821633383631706,-0.12663321197032928,-0.061119500547647476
1773048890626200000,2.342199951171875,-0.0318247526884079,-0.10426267981529236,-0.01957421936094761
1773048890636176400,2.35217626953125,-0.013715269044041634,0.08961530029773712,0.027297381311655045
1773048890646153500,2.362153564453125,-0.025433169677853584,0.1471395343542099,-0.0025300011038780212
1773048890656129800,2.3721298828125,-0.028628960251808167,-0.07656582444906235,-0.0504668653011322
1773048890666107000,2.38210693359375,-0.028628960251808167,-0.08082687854766846,-0.029161592945456505
1773048890676083200,2.392083251953125,-0.012650005519390106,0.08535424619913101,0.04966791719198227
1773048890686060300,2.402060302734375,-0.02649843320250511,0.07576687633991241,0.009187898598611355
1773048890696036600,2.41203662109375,-0.03395527973771095,-0.07763108611106873,-0.07177213579416275
1773048890706013700,2.422013671875,-0.032890014350414276,-0.0786963477730751,-0.0003994738799519837
1773048890715990300,2.431990234375,-0.008388951420783997,0.07789740711450577,0.04860265180468559
1773048890725967000,2.441967041015625,-0.02330264262855053,0.114116370677948,-0.020639482885599136
1773048890735943700,2.451943603515625,-0.028628960251808167,-0.10426267981529236,-0.045140545815229416
1773048890745920500,2.46192041015625,-0.020106852054595947,-0.021172115579247475,0.01771000772714615
1773048890755800300,2.47180029296875,-0.012650005519390106,0.09387636184692383,0.02090579830110073
1773048890765660700,2.48166064453125,-0.012650005519390106,0.035286858677864075,-0.01957421936094761
1773048890775850200,2.491850341796875,-0.017976323142647743,-0.09574057161808014,-0.0366184376180172
1773048890785831400,2.50183154296875,-0.02756369672715664,0.043808966875076294,0.030493171885609627
1773048890795804000,2.511803955078125,-0.010519478470087051,0.06191844865679741,0.012383690103888512
1773048890805784000,2.5217841796875,-0.017976323142647743,0.03209106624126434,-0.02277000993490219
1773048890815757300,2.53175732421875,-0.02756369672715664,-0.07550056278705597,0.002796316985040903
1773048890825736700,2.54173681640625,-0.02756369672715664,0.027830012142658234,-0.01318263728171587
1773048890835749600,2.55174951171875,-0.025433169677853584,0.06617950648069382,0.005992108024656773
1773048890845732400,2.561732421875,-0.02649843320250511,0.0011984215816482902,0.011318426579236984
1773048890855664400,2.571664306640625,-0.032890014350414276,-0.0456731803715229,-0.04620581120252609
1773048890865642000,2.58164208984375,-0.03821633383631706,-0.02330264262855053,0.024101590737700462
1773048890875617800,2.59161767578125,-0.024367906153202057,0.01078579481691122,0.02516685426235199
1773048890885595100,2.60159521484375,-0.02330264262855053,-0.005193160381168127,-0.05153212696313858
1773048890895571200,2.6115712890625,-0.04034686088562012,-0.08934898674488068,-0.005725792143493891
1773048890905548500,2.621548583984375,-0.03395527973771095,0.016112113371491432,0.019840534776449203
1773048890915524600,2.631524658203125,-0.025433169677853584,0.04487423226237297,-0.0366184376180172
1773048890925502000,2.641501953125,-0.029694223776459694,-0.04673844203352928,-0.01850895583629608
1773048890935478000,2.65147802734375,-0.029694223776459694,-0.04034686088562012,-0.01850895583629608
1773048890945455000,2.661455078125,-0.021172115579247475,0.008655266836285591,-0.01957421936094761
1773048890955431400,2.671431396484375,-0.022237379103899002,0.05659212917089462,-0.03981423005461693
1773048890965408500,2.681408447265625,-0.02330264262855053,-0.06378266215324402,-0.020639482885599136
1773048890975385000,2.691385009765625,-0.022237379103899002,-0.016911059617996216,-0.016378428786993027
1773048890985362000,2.70136181640625,-0.02330264262855053,0.04913528636097908,-0.04833633825182915
1773048890995242000,2.711241943359375,-0.020106852054595947,-0.041412122547626495,-0.0035952648613601923
1773048891005102000,2.72110205078125,-0.004127896390855312,-0.013715269044041634,-0.03874896466732025
1773048891015291600,2.731291748046875,-0.03075948730111122,0.022503694519400597,-0.05685844644904137
1773048891025272800,2.74127294921875,-0.021172115579247475,-0.0552605502307415,0.0017310534603893757
1773048891035245300,2.751245361328125,-0.01904158666729927,0.04167843982577324,-0.04833633825182915
1773048891045225500,2.7612255859375,-0.025433169677853584,-0.02756369672715664,-0.03448791056871414
1773048891055105500,2.77110546875,-0.012650005519390106,-0.05632581561803818,-0.016378428786993027
1773048891064964900,2.78096484375,-0.022237379103899002,0.07470161467790604,-0.0504668653011322
1773048891075152000,2.79115185546875,-0.02649843320250511,-0.03821633383631706,-0.014247900806367397
1773048891085135000,2.801135009765625,-0.01904158666729927,-0.041412122547626495,-0.03555317223072052
1773048891095105500,2.81110546875,-0.029694223776459694,0.022503694519400597,-0.028096329420804977
1773048891105087500,2.82108740234375,-0.025433169677853584,-0.009454214945435524,-0.006791055668145418
1773048891115059000,2.831058837890625,-0.017976323142647743,-0.01584579609334469,-0.0504668653011322
1773048891125039900,2.841039794921875,-0.024367906153202057,-0.04034686088562012,-0.0270310640335083
1773048891135012400,2.851012451171875,-0.029694223776459694,0.04913528636097908,-0.00892158318310976
1773048891144992500,2.860992431640625,-0.01904158666729927,-0.02649843320250511,-0.020639482885599136
1773048891154872600,2.87087255859375,-0.01904158666729927,-0.04354264959692955,-0.024900536984205246
1773048891164732000,2.88073193359375,-0.025433169677853584,0.00013315795513335615,-0.011052110232412815
1773048891174919200,2.890919189453125,-0.022237379103899002,0.0033289489801973104,-0.001464737462811172
1773048891184902400,2.90090234375,-0.01904158666729927,-0.016911059617996216,-0.0270310640335083
1773048891194872800,2.910872802734375,-0.025433169677853584,-0.07763108611106873,0.005992108024656773
1773048891204854500,2.9208544921875,-0.029694223776459694,0.16205322742462158,0.018775271251797676
1773048891214826200,2.930826171875,-0.013715269044041634,0.0033289489801973104,-0.011052110232412815
1773048891224807000,2.940806884765625,-0.005193160381168127,-0.19680745899677277,-0.007856319658458233
1773048891234779600,2.950779541015625,-0.03395527973771095,0.08322372287511826,0.010253162123262882
1773048891244759800,2.960759765625,-0.037151068449020386,0.08322372287511826,0.04221107065677643
1773048891254733000,2.970733154296875,-0.0009321057004854083,-0.09574057161808014,-0.007856319658458233
1773048891264712400,2.98071240234375,-0.011584741994738579,-0.05952160432934761,-0.007856319658458233
1773048891274686700,2.990686767578125,-0.021172115579247475,-0.005193160381168127,0.050733182579278946
1773048891284665300,3.000665283203125,-0.010519478470087051,-0.06697845458984375,0.0070573715493083
1773048891294640000,3.01064013671875,-0.020106852054595947,-0.02756369672715664,0.035819489508867264
1773048891304618500,3.020618408203125,-0.009454214945435524,0.02889527566730976,0.035819489508867264
1773048891314593500,3.030593505859375,-0.01584579609334469,-0.10000162571668625,0.004926844500005245
1773048891324571600,3.040571533203125,-0.01904158666729927,-0.08402267098426819,0.056059498339891434
1773048891334547000,3.050546875,-0.005193160381168127,0.08961530029773712,0.04860265180468559
1773048891344524800,3.06052490234375,-0.02330264262855053,0.02569948509335518,0.02197106182575226
1773048891354500600,3.07050048828125,-0.020106852054595947,-0.05952160432934761,0.06458161026239395
1773048891364478000,3.08047802734375,0.0033289489801973104,0.051265813410282135,0.02197106182575226
1773048891374454000,3.0904541015625,-0.020106852054595947,0.018242640420794487,0.02516685426235199
1773048891384431400,3.100431396484375,-0.016911059617996216,-0.09893636405467987,0.07416898012161255
1773048891394407400,3.110407470703125,-0.005193160381168127,0.043808966875076294,0.01664474420249462
1773048891404384500,3.120384521484375,-0.021172115579247475,0.0810931921005249,-0.0003994738799519837
1773048891414360800,3.13036083984375,-0.020106852054595947,-0.130894273519516,0.04540686309337616
1773048891424338000,3.140337890625,-0.016911059617996216,0.04913528636097908,0.043276336044073105
1773048891434159000,3.1501591796875,-0.01584579609334469,0.11624689400196075,0.009187898598611355
1773048891444120600,3.16012060546875,-0.016911059617996216,-0.0882837250828743,0.01664474420249462
1773048891454267600,3.170267578125,-0.020106852054595947,0.02996053919196129,0.010253162123262882
1773048891464247800,3.180247802734375,-0.02330264262855053,0.09281109273433685,0.003861580742523074
1773048891474221000,3.190220947265625,-0.02649843320250511,-0.04354264959692955,0.008122635073959827
1773048891484200700,3.20020068359375,-0.03075948730111122,0.03848264738917351,-0.03874896466732025
1773048891494174500,3.210174560546875,-0.041412122547626495,0.016112113371491432,0.011318426579236984
1773048891504153600,3.220153564453125,-0.008388951420783997,-0.04354264959692955,0.005992108024656773
1773048891514033700,3.23003369140625,-0.032890014350414276,0.016112113371491432,-0.05898897349834442
1773048891523893200,3.239893310546875,-0.061652131378650665,-0.02649843320250511,0.02197106182575226
1773048891534081300,3.250081298828125,-0.013715269044041634,-0.03395527973771095,-0.020639482885599136
1773048891544063700,3.260063720703125,0.01717737689614296,-0.03608580678701401,-0.07709845900535583
1773048891554034700,3.27003466796875,-0.03502054139971733,0.07044056057929993,0.019840534776449203
1773048891564016000,3.28001611328125,-0.02649843320250511,0.02143843099474907,-0.005725792143493891
1773048891573988400,3.28998828125,-0.0009321057004854083,0.022503694519400597,-0.08988162130117416
1773048891583968500,3.299968505859375,-0.022237379103899002,0.011851058341562748,-0.021704746410250664
1773048891593941800,3.309941650390625,-0.016911059617996216,-0.01904158666729927,-0.011052110232412815
1773048891603921400,3.31992138671875,-0.005193160381168127,0.0011984215816482902,-0.040879491716623306
1773048891613801500,3.329801513671875,-0.014780532568693161,0.13861742615699768,-0.007856319658458233
1773048891623661000,3.3396611328125,0.0011984215816482902,-0.08934898674488068,0.0017310534603893757
1773048891633848600,3.3498486328125,-0.004127896390855312,-0.010519478470087051,-0.03235738351941109
1773048891643831300,3.359831298828125,-0.017976323142647743,0.05233107507228851,0.015579480677843094
1773048891653802000,3.369802001953125,0.02889527566730976,-0.06271740049123764,-0.020639482885599136
1773048891663783700,3.37978369140625,-0.003062632866203785,0.0011984215816482902,-0.0153131652623415
1773048891673755400,3.38975537109375,-0.004127896390855312,0.01078579481691122,0.024101590737700462
1773048891683736000,3.399736083984375,0.005459476262331009,0.02996053919196129,-0.01318263728171587
1773048891693709000,3.409708984375,-0.016911059617996216,0.11518163233995438,0.008122635073959827
1773048891703688700,3.419688720703125,0.0033289489801973104,-0.07763108611106873,0.04114580899477005
1773048891713662500,3.429662353515625,0.009720530360937119,0.02889527566730976,-0.017443692311644554
1773048891723641600,3.4396416015625,-0.01904158666729927,-0.0552605502307415,0.035819489508867264
1773048891733615900,3.449615966796875,0.013981585390865803,-0.0882837250828743,0.047537390142679214
1773048891743594500,3.459594482421875,-0.028628960251808167,0.13542163372039795,0.0070573715493083
1773048891753569300,3.4695693359375,-0.021172115579247475,-0.08082687854766846,0.054994236677885056
1773048891763547600,3.479547607421875,0.009720530360937119,-0.07017423957586288,0.02090579830110073
1773048891773522700,3.489522705078125,-0.03821633383631706,0.11837742477655411,0.02516685426235199
1773048891783500800,3.499500732421875,-0.020106852054595947,-0.08295740932226181,0.0624510794878006
1773048891793380900,3.509380859375,0.01078579481691122,-0.0552605502307415,0.027297381311655045
1773048891803240700,3.51924072265625,-0.04034686088562012,0.02463422156870365,0.012383690103888512
1773048891813429500,3.529429443359375,-0.03821633383631706,-0.03821633383631706,0.08375635743141174
1773048891823411500,3.539411376953125,-0.01584579609334469,0.02463422156870365,0.03795001655817032
1773048891833383000,3.5493828125,0.12583427131175995,-0.024367906153202057,0.024101590737700462
1773048891843363800,3.55936376953125,0.07683213800191879,0.0011984215816482902,0.08375635743141174
1773048891853336600,3.569336669921875,-0.09041424840688705,0.0906805694103241,0.04966791719198227
1773048891863316500,3.57931640625,-0.11065425723791122,-0.07017423957586288,0.030493171885609627
1773048891873290000,3.5892900390625,-0.03075948730111122,-0.04673844203352928,0.031558435410261154
1773048891883269400,3.599269287109375,0.08855003863573074,-0.03821633383631706,0.04221107065677643
1773048891893149200,3.609149169921875,0.051265813410282135,0.05659212917089462,0.03688475489616394
1773048891903009000,3.619009033203125,-0.09041424840688705,0.07683213800191879,0.043276336044073105
1773048891913196800,3.62919677734375,-0.11811110377311707,-0.11491531878709793,0.047537390142679214
1773048891923179500,3.639179443359375,0.039547912776470184,0.08748477697372437,0.019840534776449203
1773048891933150200,3.649150146484375,-0.0318247526884079,0.006524739786982536,0.018775271251797676
1773048891943131600,3.659131591796875,-0.0009321057004854083,-0.07656582444906235,0.026232117787003517
1773048891953104000,3.669103759765625,-0.020106852054595947,0.04061317816376686,0.02090579830110073
1773048891963084300,3.679084228515625,-0.013715269044041634,-0.010519478470087051,0.01664474420249462
1773048891973057300,3.689057373046875,0.03315633162856102,-0.05419528856873512,-0.025965800508856773
1773048891983037000,3.699036865234375,-0.029694223776459694,-0.020106852054595947,-0.009986846707761288
1773048891993010700,3.7090107421875,-0.007323687430471182,0.08002793043851852,0.039015281945466995
1773048892002989800,3.71898974609375,0.012916321866214275,0.07789740711450577,0.002796316985040903
1773048892012964000,3.728964111328125,-0.032890014350414276,-0.0009321057004854083,-0.001464737462811172
1773048892022942700,3.738942626953125,0.01717737689614296,-0.04993423447012901,-0.0025300011038780212
1773048892032917500,3.74891748046875,-0.0019973693415522575,0.020373167470097542,-0.03129211813211441
1773048892042896000,3.758895751953125,-0.013715269044041634,-0.020106852054595947,-0.0366184376180172
1773048892052871200,3.76887109375,-0.014780532568693161,0.005459476262331009,-0.007856319658458233
1773048892062849000,3.77884912109375,-0.012650005519390106,-0.008388951420783997,0.008122635073959827
1773048892072824600,3.788824462890625,-0.0019973693415522575,0.026764748618006706,-0.011052110232412815
1773048892082802200,3.79880224609375,-0.005193160381168127,0.04487423226237297,-0.0600542388856411
1773048892092778000,3.808778076171875,-0.03502054139971733,-0.07763108611106873,-0.025965800508856773
1773048892102755600,3.818755615234375,-0.011584741994738579,-0.07123950868844986,-0.0003994738799519837
1773048892112731400,3.8287314453125,0.0576573945581913,0.04593949392437935,-0.03874896466732025
1773048892122708700,3.838708740234375,-0.02756369672715664,0.09707214683294296,-0.02277000993490219
1773048892132684800,3.848684814453125,-0.004127896390855312,-0.009454214945435524,-0.0025300011038780212
1773048892142662100,3.858662109375,0.05659212917089462,-0.04993423447012901,0.0294279083609581
1773048892152638200,3.86863818359375,-0.012650005519390106,0.06085318699479103,-0.017443692311644554
1773048892162615600,3.878615478515625,-0.12343742698431015,0.1237037405371666,-0.045140545815229416
1773048892172591600,3.888591552734375,0.022503694519400597,-0.09467530250549316,-0.01850895583629608
1773048892182568700,3.898568603515625,0.07683213800191879,0.0949416235089302,0.013448953628540039
1773048892192545300,3.908545166015625,0.0011984215816482902,0.06404897570610046,0.009187898598611355
1773048892202522000,3.918522216796875,0.011851058341562748,-0.057391077280044556,0.030493171885609627
1773048892212498700,3.928498779296875,0.01504684891551733,-0.07230477035045624,0.01771000772714615
1773048892222475500,3.9384755859375,0.0011984215816482902,0.08002793043851852,-0.009986846707761288
1773048892232452000,3.9484521484375,0.005459476262331009,0.0011984215816482902,-0.0035952648613601923
1773048892242429000,3.958428955078125,0.0033289489801973104,-0.0691089779138565,0.039015281945466995
1773048892252405500,3.968405517578125,-0.0019973693415522575,-0.09041424840688705,0.04540686309337616
1773048892262382300,3.97838232421875,0.0022636852227151394,0.1045289933681488,0.014514217153191566
1773048892272359000,3.98835888671875,-0.03502054139971733,0.12050794810056686,0.02090579830110073
1773048892282335700,3.998335693359375,0.009720530360937119,-0.11065425723791122,0.035819489508867264
1773048892292312300,4.008312255859375,0.06191844865679741,-0.08934898674488068,0.028362644836306572
1773048892302289200,4.0182890625,-0.03075948730111122,0.07896266877651215,0.003861580742523074
1773048892312265700,4.028265625,-0.01584579609334469,0.12903006374835968,0.009187898598611355
1773048892322242600,4.03824267578125,0.04593949392437935,-0.016911059617996216,0.052863709628582
1773048892332219400,4.048219482421875,0.022503694519400597,-0.0691089779138565,0.027297381311655045
1773048892342196000,4.058196044921875,0.0022636852227151394,0.031025802716612816,0.010253162123262882
1773048892352172800,4.0681728515625,-0.09574057161808014,0.13116058707237244,-0.01850895583629608
1773048892362149400,4.0781494140625,0.07044056057929993,0.04593949392437935,0.04647212475538254
1773048892372126200,4.088126220703125,0.10133320093154907,-0.0882837250828743,0.07523424178361893
1773048892382102800,4.098102783203125,0.04913528636097908,0.042743705213069916,0.009187898598611355
1773048892391982800,4.10798291015625,-0.09147951751947403,0.15566164255142212,-0.001464737462811172
1773048892401843200,4.11784326171875,-0.13728585839271545,-0.01584579609334469,0.035819489508867264
1773048892412032800,4.12803271484375,0.0342215932905674,-0.03075948730111122,0.04540686309337616
1773048892422014000,4.138013916015625,0.11731215566396713,0.05233107507228851,0.04008054360747337
1773048892431986400,4.147986328125,-0.02330264262855053,0.09281109273433685,0.027297381311655045
1773048892441966600,4.157966552734375,-0.16711322963237762,0.06298371404409409,0.028362644836306572
1773048892451939800,4.16793994140625,-0.06271740049123764,-0.028628960251808167,0.056059498339891434
1773048892461919200,4.177919189453125,0.12050794810056686,0.0342215932905674,0.011318426579236984
1773048892471893200,4.187893310546875,0.1332911103963852,-0.024367906153202057,0.023036325350403786
1773048892481872100,4.1978720703125,0.11518163233995438,-0.057391077280044556,0.06458161026239395
1773048892491752200,4.207752197265625,0.33236226439476013,-0.061652131378650665,0.009187898598611355
1773048892501612000,4.217612060546875,0.23648852109909058,0.18655429780483246,0.03688475489616394
1773048892521760000,4.237760009765625,0.11198583990335464,0.06085318699479103,0.04114580899477005
1773048892531754200,4.247754150390625,0.0672447681427002,-0.7857651114463806,-0.0600542388856411
1773048892541716700,4.257716796875,-0.05845634266734123,-0.6877608299255371,-0.0366184376180172
1773048892551707400,4.267707275390625,-0.2054627239704132,0.18335850536823273,-0.16551533341407776
1773048892561673000,4.2776728515625,0.00013315795513335615,0.10559425503015518,-0.05579318478703499
1773048892571660800,4.287660888671875,0.09920267760753632,-0.11917637288570404,0.011318426579236984
1773048892581628700,4.297628662109375,0.10665952414274216,-0.10106688737869263,0.034754227846860886
1773048892591614200,4.3076142578125,0.0011984215816482902,-0.07976161688566208,0.02090579830110073
1773048892601583900,4.317583984375,-0.09361004084348679,0.11305110156536102,-0.0930774137377739
1773048892611567600,4.327567626953125,0.009720530360937119,0.17164060473442078,-0.03555317223072052
1773048892621538600,4.33753857421875,-0.004127896390855312,0.2834932804107666,0.027297381311655045
1773048892631521000,4.34752099609375,-0.14580796658992767,0.2941459119319916,0.023036325350403786
1773048892641493200,4.3574931640625,-0.04673844203352928,0.2600574791431427,0.039015281945466995
1773048892651474400,4.367474365234375,0.006524739786982536,0.27177539467811584,-0.011052110232412815
1773048892661447400,4.377447509765625,-0.011584741994738579,0.10346373170614243,-0.06751108169555664
1773048892671427800,4.387427734375,0.02996053919196129,-0.010519478470087051,-0.04833633825182915
1773048892681401600,4.397401611328125,-0.07763108611106873,-0.032890014350414276,-0.10266478359699249
1773048892691381200,4.40738134765625,-0.04460791498422623,0.04913528636097908,-0.12183953076601028
1773048892701355500,4.41735546875,0.04167843982577324,0.08322372287511826,-0.040879491716623306
1773048892711334700,4.427334716796875,0.01078579481691122,0.016112113371491432,-0.04833633825182915
1773048892721309400,4.437309326171875,-0.011584741994738579,-0.04460791498422623,-0.16551533341407776
1773048892731288000,4.4472880859375,-0.028628960251808167,-0.21704746782779694,-0.13781848549842834
1773048892741263400,4.457263427734375,-0.18841850757598877,-0.11811110377311707,-0.07816372066736221
1773048892751241500,4.467241455078125,-0.15539532899856567,-0.05419528856873512,-0.06857634335756302
1773048892761217000,4.477217041015625,0.0672447681427002,-0.04034686088562012,-0.09946899116039276
1773048892771195000,4.48719482421875,0.04593949392437935,0.013981585390865803,-0.08455529808998108
1773048892781170700,4.497170654296875,-0.11065425723791122,0.035286858677864075,-0.08242477476596832
1773048892791148300,4.507148193359375,0.02463422156870365,-0.032890014350414276,-0.05898897349834442
1773048892801124400,4.517124267578125,0.06298371404409409,-0.013715269044041634,-0.03555317223072052
1773048892811004400,4.52700439453125,-0.025433169677853584,0.059787921607494354,-0.11118689179420471
1773048892820864800,4.53686474609375,-0.10319741815328598,-0.03821633383631706,-0.08242477476596832
1773048892831055000,4.54705517578125,-0.12769848108291626,-0.13195952773094177,-0.03555317223072052
1773048892841035500,4.557035400390625,-0.0062584239058196545,-0.0786963477730751,-0.02383527345955372
1773048892851008500,4.567008544921875,-0.04460791498422623,0.08641951531171799,-0.05259739235043526
1773048892860988400,4.576988525390625,-0.053130023181438446,0.0810931921005249,-0.03768370300531387
1773048892870962000,4.5869619140625,-0.021172115579247475,-0.0691089779138565,-0.028096329420804977
1773048892880941000,4.596941162109375,-0.0019973693415522575,-0.09574057161808014,-0.028096329420804977
1773048892890915600,4.60691552734375,-0.029694223776459694,0.048070020973682404,-0.01850895583629608
1773048892900894200,4.616894287109375,0.005459476262331009,-0.0062584239058196545,-0.01957421936094761
1773048892910869000,4.626868896484375,-0.014780532568693161,-0.04034686088562012,0.002796316985040903
1773048892920847000,4.63684716796875,-0.0062584239058196545,0.02996053919196129,0.0006657897611148655
1773048892930822400,4.646822509765625,0.00013315795513335615,0.02569948509335518,-0.001464737462811172
1773048892940800300,4.65680029296875,0.0033289489801973104,-0.10426267981529236,0.002796316985040903
1773048892950775800,4.66677587890625,-0.03928159549832344,0.048070020973682404,0.019840534776449203
1773048892960753700,4.676753662109375,-0.0009321057004854083,0.01078579481691122,-0.001464737462811172
1773048892970729200,4.686729248046875,0.03209106624126434,-0.008388951420783997,0.01664474420249462
1773048892980706800,4.696706787109375,-0.017976323142647743,0.07363634556531906,0.02197106182575226
1773048892990586600,4.706586669921875,-0.057391077280044556,0.06191844865679741,-0.0025300011038780212
1773048893000447000,4.716447021484375,-0.04354264959692955,0.018242640420794487,0.0294279083609581
1773048893010636000,4.726635986328125,0.02996053919196129,-0.09361004084348679,0.039015281945466995
1773048893020617500,4.736617431640625,-0.010519478470087051,0.0715058222413063,-0.014247900806367397
1773048893030589400,4.74658935546875,0.0022636852227151394,0.011851058341562748,-0.006791055668145418
1773048893040569900,4.75656982421875,-0.013715269044041634,0.1332911103963852,0.04860265180468559
1773048893050542800,4.76654296875,0.009720530360937119,-0.02649843320250511,0.04434159770607948
1773048893060522800,4.776522705078125,0.005459476262331009,-0.07017423957586288,0.003861580742523074
1773048893070496300,4.786496337890625,-0.020106852054595947,0.04913528636097908,0.0006657897611148655
1773048893080475600,4.7964755859375,-0.007323687430471182,0.08428898453712463,0.026232117787003517
1773048893090355500,4.80635546875,-0.004127896390855312,-0.17017586529254913,0.04221107065677643
1773048893100215300,4.81621533203125,0.007590003311634064,-0.11278478801250458,-0.006791055668145418
1773048893110403000,4.826403076171875,-0.017976323142647743,0.0906805694103241,-0.03235738351941109
1773048893120385500,4.836385498046875,-0.009454214945435524,-0.02756369672715664,0.027297381311655045
1773048893130356500,4.8463564453125,0.01504684891551733,-0.07763108611106873,0.030493171885609627
1773048893140338000,4.856337890625,-0.025433169677853584,0.20466378331184387,0.005992108024656773
1773048893150310100,4.86631005859375,0.007590003311634064,0.02889527566730976,-0.0003994738799519837
1773048893160290600,4.87629052734375,-0.012650005519390106,0.04167843982577324,0.01664474420249462
1773048893170263600,4.886263671875,-0.008388951420783997,-0.057391077280044556,0.02197106182575226
1773048893180243200,4.8962431640625,0.0033289489801973104,-0.0062584239058196545,-0.017443692311644554
1773048893190217000,4.906217041015625,-0.029694223776459694,-0.009454214945435524,-0.014247900806367397
1773048893200196000,4.916196044921875,0.020373167470097542,-0.04673844203352928,-0.01318263728171587
1773048893210076000,4.926075927734375,-0.0019973693415522575,0.00013315795513335615,-0.006791055668145418
1773048893219935700,4.935935791015625,-0.011584741994738579,0.0033289489801973104,0.0070573715493083
1773048893230123800,4.946123779296875,-0.014780532568693161,0.023568958044052124,0.02197106182575226
1773048893240106200,4.956106201171875,0.04167843982577324,-0.01584579609334469,-0.05685844644904137
1773048893250077200,4.9660771484375,-0.02330264262855053,-0.07123950868844986,-0.06218476593494415
1773048893260058400,4.976058349609375,-0.020106852054595947,-0.02756369672715664,0.002796316985040903
1773048893270030600,4.986030517578125,0.01078579481691122,-0.09254477918148041,-0.005725792143493891
1773048893280011000,4.996010986328125,-0.021172115579247475,0.027830012142658234,-0.005725792143493891
1773048893289984000,5.00598388671875,0.005459476262331009,0.039547912776470184,-0.012117373757064342
1773048893299963600,5.015963623046875,-0.003062632866203785,0.031025802716612816,-0.03448791056871414
1773048893309937400,5.0259375,-0.013715269044041634,-0.0978710949420929,0.004926844500005245
1773048893319916500,5.03591650390625,-0.0062584239058196545,-0.11065425723791122,0.003861580742523074
1773048893329891000,5.04589111328125,0.04487423226237297,0.019307903945446014,-0.08775109052658081
1773048893339869400,5.055869384765625,-0.024367906153202057,0.05020054802298546,-0.049401599913835526
1773048893349844200,5.06584423828125,-0.01584579609334469,0.013981585390865803,0.03795001655817032
1773048893359822600,5.075822509765625,0.019307903945446014,-0.06591318547725677,0.0294279083609581
1773048893369798000,5.0857978515625,-0.014780532568693161,0.12050794810056686,-0.03555317223072052
1773048893379775700,5.095775634765625,-0.013715269044041634,0.13009531795978546,0.0070573715493083
1773048893389751300,5.105751220703125,0.031025802716612816,-0.0318247526884079,-0.005725792143493891
1773048893399729000,5.11572900390625,-0.01584579609334469,-0.05206476151943207,-0.006791055668145418
1773048893409704700,5.12570458984375,0.0033289489801973104,-0.08295740932226181,0.005992108024656773
1773048893419682300,5.135682373046875,-0.007323687430471182,0.055526867508888245,0.018775271251797676
1773048893429658000,5.145658203125,0.02996053919196129,0.10665952414274216,-0.028096329420804977
1773048893439635500,5.155635498046875,-0.04247738793492317,0.10559425503015518,0.03795001655817032
1773048893449611500,5.165611572265625,-0.05206476151943207,0.018242640420794487,0.04647212475538254
1773048893459588600,5.175588623046875,0.01078579481691122,-0.0786963477730751,-0.06964161247015
1773048893469565000,5.18556494140625,0.18002955615520477,-0.24794010818004608,-0.0739026665687561
1773048893479542000,5.1955419921875,0.026764748618006706,-0.08189214020967484,-0.011052110232412815
1773048893489518300,5.205518310546875,-0.0691089779138565,0.05339634045958519,0.005992108024656773
1773048893499495400,5.215495361328125,-0.07656582444906235,0.016112113371491432,-0.006791055668145418
1773048893509471700,5.2254716796875,-0.037151068449020386,0.05446160212159157,-0.02277000993490219
1773048893519448800,5.23544873046875,0.047004759311676025,0.07470161467790604,0.011318426579236984
1773048893529425200,5.245425048828125,-0.0062584239058196545,-0.01904158666729927,0.011318426579236984
1773048893539402200,5.25540234375,-0.06697845458984375,0.03635212033987045,-0.03874896466732025
1773048893559355600,5.275355712890625,-0.005193160381168127,-0.02330264262855053,0.002796316985040903
1773048893569332200,5.285332275390625,-0.020106852054595947,-0.011584741994738579,-0.040879491716623306
1773048893579308800,5.295308837890625,-0.02330264262855053,0.043808966875076294,-0.04833633825182915
1773048893589285400,5.305285400390625,0.005459476262331009,0.02569948509335518,0.0017310534603893757
1773048893599262200,5.31526220703125,0.0033289489801973104,-0.02649843320250511,-0.0366184376180172
1773048893609239000,5.325239013671875,-0.05419528856873512,-0.037151068449020386,-0.0270310640335083
1773048893619215600,5.335215576171875,0.043808966875076294,0.03635212033987045,-0.03448791056871414
1773048893629192400,5.3451923828125,-0.05845634266734123,0.02889527566730976,-0.040879491716623306
1773048893639169000,5.3551689453125,-0.09574057161808014,-0.10639320313930511,0.026232117787003517
1773048893649145900,5.365145751953125,0.06298371404409409,-0.03608580678701401,-0.04194475710391998
1773048893659122400,5.375122314453125,0.2205095738172531,0.011851058341562748,-0.08988162130117416
1773048893669099300,5.385099365234375,0.08322372287511826,-0.0318247526884079,0.011318426579236984
1773048893679075800,5.395075927734375,0.01504684891551733,-0.03075948730111122,0.01771000772714615
1773048893689052700,5.405052734375,-0.17457008361816406,0.14607428014278412,-0.024900536984205246
1773048893699029200,5.415029296875,-0.16072164475917816,0.10772478580474854,-0.014247900806367397
1773048893709006000,5.425006103515625,0.0043942127376794815,-0.08295740932226181,-0.017443692311644554
1773048893718982700,5.434982666015625,0.14700637757778168,-0.022237379103899002,-0.005725792143493891
1773048893728959500,5.44495947265625,-0.07123950868844986,0.07576687633991241,-0.004660528618842363
1773048893738936000,5.45493603515625,-0.06804371625185013,-0.057391077280044556,-0.001464737462811172
1773048893748913000,5.464912841796875,0.04593949392437935,-0.004127896390855312,0.003861580742523074
1773048893768866300,5.4848662109375,-0.017976323142647743,-0.09361004084348679,0.003861580742523074
1773048893778843000,5.4948427734375,-0.0019973693415522575,-0.14567480981349945,0.03368896245956421
1773048893788819700,5.50481982421875,0.047004759311676025,0.0906805694103241,-0.03235738351941109
1773048893798796500,5.514796630859375,-0.04247738793492317,0.12583427131175995,-0.05472791939973831
1773048893808773000,5.524773193359375,-0.0062584239058196545,-0.13409006595611572,0.028362644836306572
1773048893828726500,5.5447265625,-0.009454214945435524,0.12263847887516022,-0.0025300011038780212
1773048893838703400,5.554703369140625,-0.014780532568693161,0.07363634556531906,-0.02277000993490219
1773048893848680000,5.564679931640625,-0.024367906153202057,0.026764748618006706,0.027297381311655045
1773048893858656800,5.57465673828125,-0.003062632866203785,0.0342215932905674,0.018775271251797676
1773048893868633300,5.58463330078125,0.09387636184692383,0.11305110156536102,-0.04194475710391998
1773048893878610200,5.594610107421875,-0.022237379103899002,0.08428898453712463,-0.012117373757064342
1773048893898562800,5.614562744140625,-0.04993423447012901,-0.0019973693415522575,0.03368896245956421
1773048893908563200,5.624563232421875,0.08748477697372437,0.0949416235089302,-0.06751108169555664
1773048893918516200,5.63451611328125,0.18109482526779175,0.07044056057929993,-0.08668582886457443
1773048893928512000,5.644511962890625,0.022503694519400597,-0.14141374826431274,-0.00892158318310976
1773048893938470000,5.654469970703125,-0.029694223776459694,-0.22556957602500916,0.010253162123262882
1773048893948461600,5.664461669921875,-0.12024163454771042,0.21638168394565582,-0.03235738351941109
1773048893958423300,5.67442333984375,-0.10745847225189209,0.1759016513824463,-0.07177213579416275
1773048893968412200,5.684412109375,-0.0019973693415522575,-0.14247901737689972,-0.040879491716623306
1773048893978377000,5.694376953125,0.1279647946357727,-0.2191779911518097,-0.02277000993490219
1773048893988363300,5.70436328125,0.05020054802298546,-0.0882837250828743,-0.04833633825182915
1773048893998330400,5.714330322265625,-0.07656582444906235,0.1567269116640091,-0.06751108169555664
1773048894008315000,5.72431494140625,-0.03608580678701401,0.02569948509335518,-0.001464737462811172
1773048894018283800,5.73428369140625,0.04061317816376686,-0.1117195263504982,0.019840534776449203
1773048894028266800,5.744266845703125,0.04167843982577324,-0.07230477035045624,-0.06644582003355026
1773048894038237200,5.7542373046875,-0.06591318547725677,0.022503694519400597,-0.028096329420804977
1773048894048219000,5.764218994140625,-0.061652131378650665,0.1002679392695427,0.019840534776449203
1773048894058152000,5.77415185546875,0.05339634045958519,-0.008388951420783997,-0.03874896466732025
1773048894068128800,5.784128662109375,0.2492716908454895,-0.18935060501098633,-0.025965800508856773
1773048894078008600,5.794008544921875,0.16192007064819336,-0.08402267098426819,0.012383690103888512
1773048894087888600,5.803888671875,-0.07656582444906235,0.0715058222413063,-0.0504668653011322
1773048894098058500,5.81405859375,-0.10852373391389847,0.018242640420794487,0.0070573715493083
1773048894108042200,5.824042236328125,-0.08082687854766846,-0.010519478470087051,0.05819002538919449
1773048894118012000,5.834011962890625,-0.07763108611106873,0.048070020973682404,-0.0003994738799519837
1773048894127994400,5.843994384765625,-0.07550056278705597,0.023568958044052124,-0.04301001876592636
1773048894137965300,5.85396533203125,-0.0456731803715229,-0.1117195263504982,-0.020639482885599136
1773048894147946800,5.86394677734375,0.28016433119773865,-0.11385004967451096,-0.021704746410250664
1773048894157957600,5.87395751953125,0.3163833022117615,-0.09041424840688705,-0.0035952648613601923
1773048894167942000,5.88394189453125,0.026764748618006706,0.0342215932905674,-0.02383527345955372
1773048894177911000,5.8939111328125,-0.11278478801250458,0.17164060473442078,0.024101590737700462
1773048894187894000,5.90389404296875,-0.07230477035045624,0.08748477697372437,0.028362644836306572
1773048894197825800,5.91382568359375,-0.06378266215324402,0.02889527566730976,0.005992108024656773
1773048894207803400,5.923803466796875,-0.03395527973771095,-0.03928159549832344,-0.03129211813211441
1773048894217740300,5.933740234375,0.114116370677948,0.0033289489801973104,0.013448953628540039
1773048894227714000,5.943714111328125,0.07470161467790604,-0.01904158666729927,-0.0025300011038780212
1773048894237654800,5.95365478515625,-0.053130023181438446,-0.004127896390855312,-0.0153131652623415
1773048894247625200,5.963625244140625,-0.03928159549832344,-0.029694223776459694,-0.028096329420804977
1773048894257531000,5.97353076171875,0.05020054802298546,0.02996053919196129,-0.03981423005461693
1773048894267494700,5.98349462890625,0.0342215932905674,-0.03608580678701401,-0.011052110232412815
1773048894277484000,5.993484130859375,-0.0009321057004854083,-0.04673844203352928,0.01771000772714615
1773048894287450400,6.003450439453125,-0.004127896390855312,0.11837742477655411,-0.025965800508856773
1773048894297398800,6.013398681640625,0.009720530360937119,0.21212062239646912,-0.025965800508856773
1773048894307363300,6.02336328125,0.00013315795513335615,-0.005193160381168127,0.028362644836306572
1773048894317313300,6.033313232421875,-0.009454214945435524,0.006524739786982536,0.011318426579236984
1773048894327276300,6.0432763671875,-0.012650005519390106,0.09174583107233047,-0.10373004525899887
1773048894337227800,6.053227783203125,0.04593949392437935,-0.0552605502307415,-0.10586057603359222
1773048894347189800,6.063189697265625,0.245010644197464,-0.19361166656017303,-0.04833633825182915
1773048894357142500,6.073142578125,0.05339634045958519,-0.053130023181438446,-0.006791055668145418
1773048894367103500,6.083103515625,-0.08295740932226181,0.14074796438217163,-0.0366184376180172
1773048894377018400,6.093018310546875,-0.06058686971664429,0.06511423736810684,-0.01318263728171587
1773048894386974700,6.102974609375,0.04593949392437935,-0.037151068449020386,0.009187898598611355
1773048894396932900,6.112932861328125,0.06191844865679741,-0.0009321057004854083,-0.02277000993490219
1773048894406889500,6.122889404296875,0.07470161467790604,-0.012650005519390106,-0.04301001876592636
1773048894416847400,6.132847412109375,0.07576687633991241,-0.008388951420783997,0.004926844500005245
1773048894426804000,6.142803955078125,0.05020054802298546,-0.022237379103899002,-0.0003994738799519837
1773048894436684800,6.152684814453125,0.03315633162856102,-0.008388951420783997,-0.053662657737731934
1773048894446634000,6.162634033203125,0.00013315795513335615,-0.05419528856873512,-0.0153131652623415
1773048894456637700,6.1726376953125,0.016112113371491432,0.12050794810056686,0.030493171885609627
1773048894466592300,6.18259228515625,0.048070020973682404,0.15246586501598358,0.013448953628540039
1773048894476513800,6.192513671875,0.027830012142658234,-0.01904158666729927,-0.004660528618842363
1773048894486465000,6.202465087890625,0.02889527566730976,-0.08721846342086792,-0.001464737462811172
1773048894496466700,6.212466796875,0.027830012142658234,-0.07123950868844986,-0.045140545815229416
1773048894506423000,6.222423095703125,0.06191844865679741,-0.061652131378650665,-0.02277000993490219
1773048894516603000,6.232602783203125,0.023568958044052124,0.042743705213069916,0.04434159770607948
1773048894526783000,6.242782958984375,0.0011984215816482902,0.12263847887516022,0.04114580899477005
1773048894536962800,6.252962890625,-0.005193160381168127,0.08428898453712463,-0.040879491716623306
1773048894547068400,6.263068359375,0.01504684891551733,-0.14141374826431274,-0.01318263728171587
1773048894557025800,6.27302587890625,0.13009531795978546,-0.22237378358840942,-0.012117373757064342
1773048894567018000,6.28301806640625,0.13116058707237244,-0.02330264262855053,-0.001464737462811172
1773048894576979500,6.2929794921875,0.06298371404409409,0.1045289933681488,0.01664474420249462
1773048894586968600,6.302968505859375,-0.03928159549832344,0.03635212033987045,0.02090579830110073
1773048894596932900,6.312932861328125,-0.09254477918148041,-0.016911059617996216,0.039015281945466995
1773048894606919400,6.32291943359375,-0.0456731803715229,0.02143843099474907,0.02197106182575226
1773048894616886300,6.33288623046875,-0.04780370742082596,-0.025433169677853584,-0.024900536984205246
1773048894626871000,6.34287109375,-0.03502054139971733,-0.27670222520828247,-0.05259739235043526
1773048894636839700,6.352839599609375,0.059787921607494354,-0.31079065799713135,0.005992108024656773
1773048894646823000,6.362822998046875,0.06511423736810684,0.00013315795513335615,-0.024900536984205246
1773048894656793300,6.37279345703125,0.031025802716612816,0.3303648829460144,-0.03235738351941109
1773048894666775000,6.382775146484375,0.022503694519400597,-0.021172115579247475,0.04008054360747337
1773048894676746800,6.392746826171875,0.011851058341562748,-0.2372874766588211,0.03795001655817032
1773048894686727400,6.4027275390625,0.02463422156870365,-0.024367906153202057,-0.0834900364279747
1773048894696700200,6.4127001953125,0.2876211702823639,-0.10745847225189209,-0.07496792823076248
1773048894706680000,6.42268017578125,0.33236226439476013,-0.33848753571510315,0.050733182579278946
1773048894716653600,6.432653564453125,0.22370536625385284,0.09387636184692383,-0.005725792143493891
1773048894726633000,6.442633056640625,0.07683213800191879,0.41651809215545654,-0.0504668653011322
1773048894736607000,6.45260693359375,-0.025433169677853584,0.043808966875076294,0.034754227846860886
1773048894746585900,6.4625859375,-0.0648479238152504,-0.18295903503894806,0.02197106182575226
1773048894756560400,6.472560302734375,-0.05419528856873512,-0.07763108611106873,-0.11544794589281082
1773048894766538800,6.482538818359375,-0.03821633383631706,-0.1808284968137741,-0.09520793706178665
1773048894776514000,6.49251416015625,0.22370536625385284,-0.1117195263504982,0.02197106182575226
1773048894786492000,6.502491943359375,0.2716422379016876,0.36977964639663696,0.04114580899477005
1773048894796467500,6.512467529296875,0.15872427821159363,0.3314301371574402,0.04860265180468559
1773048894806445000,6.522445068359375,0.12583427131175995,-0.053130023181438446,0.010253162123262882
1773048894816420900,6.5324208984375,0.09813741594552994,-0.3416832983493805,-0.06964161247015
1773048894826398500,6.5423984375,0.07470161467790604,-0.4588623046875,-0.08029424399137497
1773048894836374300,6.552374267578125,0.08215846121311188,-0.0009321057004854083,0.011318426579236984
1773048894846351600,6.5623515625,0.23222747445106506,0.4506065249443054,0.04221107065677643
1773048894856327700,6.57232763671875,0.11837742477655411,0.2824280261993408,0.03795001655817032
1773048894866305000,6.582304931640625,0.07044056057929993,-0.02756369672715664,0.0017310534603893757
1773048894876281000,6.592281005859375,0.09281109273433685,-0.005193160381168127,0.004926844500005245
1773048894886258200,6.602258056640625,0.09174583107233047,0.13435637950897217,-0.012117373757064342
1773048894896234500,6.612234375,0.059787921607494354,-0.09680583328008652,-0.016378428786993027
1773048894906211600,6.622211669921875,0.04913528636097908,0.08535424619913101,0.024101590737700462
1773048894916188000,6.63218798828125,0.08215846121311188,0.03741738572716713,-0.0025300011038780212
1773048894926165000,6.6421650390625,0.1045289933681488,0.06511423736810684,-0.033422645181417465
1773048894936141300,6.652141357421875,0.1322258561849594,-0.1351553201675415,-0.01318263728171587
1773048894946118400,6.662118408203125,-0.0019973693415522575,0.04167843982577324,-0.025965800508856773
1773048894956095000,6.672094970703125,0.07576687633991241,-0.005193160381168127,-0.030226856470108032
1773048894966071800,6.68207177734375,0.07896266877651215,-0.06058686971664429,-0.01957421936094761
1773048894976048400,6.69204833984375,0.09600688517093658,0.07470161467790604,0.002796316985040903
1773048894986025200,6.702025146484375,0.09387636184692383,0.02463422156870365,-0.030226856470108032
1773048894996001800,6.712001708984375,0.09707214683294296,-0.1573926955461502,-0.021704746410250664
1773048895005978600,6.721978515625,0.13741901516914368,-0.07656582444906235,0.026232117787003517
1773048895015955200,6.731955078125,0.08961530029773712,0.20040272176265717,-0.020639482885599136
1773048895025932000,6.74193212890625,0.04487423226237297,-0.06591318547725677,-0.007856319658458233
1773048895035908600,6.75190869140625,0.05446160212159157,-0.2138516753911972,0.0017310534603893757
1773048895045885400,6.761885498046875,0.16724638640880585,0.02889527566730976,-0.04301001876592636
1773048895055862300,6.7718623046875,0.18535587191581726,0.12583427131175995,-0.045140545815229416
1773048895065838800,6.7818388671875,0.12689952552318573,-0.18189376592636108,0.02516685426235199
1773048895075815700,6.791815673828125,0.0810931921005249,-0.06058686971664429,-0.01318263728171587
1773048895085792300,6.801792236328125,0.05233107507228851,0.1279647946357727,-0.024900536984205246
1773048895095769000,6.81176904296875,0.0576573945581913,-0.17869797348976135,-0.011052110232412815
1773048895105746000,6.821745849609375,0.08641951531171799,-0.25007063150405884,-0.007856319658458233
1773048895115722500,6.831722412109375,0.11198583990335464,-0.02756369672715664,0.003861580742523074
1773048895125699300,6.84169921875,0.0715058222413063,0.1897500902414322,-0.0025300011038780212
1773048895135676000,6.851676025390625,0.04913528636097908,-0.16804534196853638,-0.01850895583629608
1773048895145652700,6.86165283203125,-0.0978710949420929,-0.27244117856025696,0.0006657897611148655
1773048895155629600,6.871629638671875,-0.11811110377311707,0.031025802716612816,0.010253162123262882
1773048895165606100,6.881606201171875,-0.0318247526884079,0.14074796438217163,-0.03555317223072052
1773048895175486200,6.891486328125,0.03848264738917351,-0.3406180441379547,-0.007856319658458233
1773048895185304000,6.901303955078125,0.03209106624126434,-0.4812328517436981,0.04540686309337616
1773048895195484000,6.91148388671875,0.006524739786982536,0.14074796438217163,-0.020639482885599136
1773048895205518000,6.92151806640625,0.005459476262331009,0.13968269526958466,-0.001464737462811172
1773048895215489500,6.931489501953125,0.011851058341562748,-0.2468748539686203,0.14128059148788452
1773048895225470500,6.941470458984375,0.031025802716612816,0.14394375681877136,0.08482161909341812
1773048895235443200,6.951443115234375,0.04487423226237297,0.20040272176265717,-0.029161592945456505
1773048895245423400,6.96142333984375,0.009720530360937119,-0.3225085735321045,0.05819002538919449
1773048895255396600,6.971396728515625,-0.13622058928012848,-0.06804371625185013,0.08482161909341812
1773048895265376000,6.9813759765625,-0.15006901323795319,0.24301326274871826,0.028362644836306572
1773048895275350300,6.991350341796875,-0.0552605502307415,-0.08508793264627457,0.026232117787003517
1773048895285329200,7.0013291015625,-0.0062584239058196545,-0.5036033987998962,-0.016378428786993027
1773048895295209000,7.011208984375,-0.04460791498422623,-0.24154852330684662,0.03795001655817032
1773048895305026300,7.0210263671875,-0.03502054139971733,0.6455497741699219,0.12636689841747284
1773048895315206400,7.031206298828125,0.06298371404409409,0.21425114572048187,0.11784479022026062
1773048895325240300,7.041240234375,0.20026956498622894,-0.15206637978553772,0.054994236677885056
1773048895335210500,7.05121044921875,0.1332911103963852,-0.1255679577589035,-0.0035952648613601923
1773048895345192400,7.0611923828125,0.04167843982577324,-0.14247901737689972,-0.03129211813211441
1773048895355164000,7.071163818359375,0.04167843982577324,-0.03608580678701401,0.034754227846860886
1773048895365144800,7.081144775390625,0.043808966875076294,0.027830012142658234,0.028362644836306572
1773048895375025000,7.09102490234375,0.07044056057929993,0.08961530029773712,-0.0153131652623415
1773048895384841700,7.100841796875,0.06831002980470657,-0.10852373391389847,0.012383690103888512
1773048895394838000,7.110838134765625,0.039547912776470184,-0.102132149040699,0.02516685426235199
1773048895404799000,7.120799072265625,0.0715058222413063,0.12263847887516022,-0.0003994738799519837
1773048895414979000,7.13097900390625,0.0715058222413063,-0.029694223776459694,-0.0035952648613601923
1773048895425012000,7.141011962890625,0.048070020973682404,-0.03502054139971733,0.01664474420249462
1773048895434977800,7.150977783203125,0.07576687633991241,0.07363634556531906,-0.0035952648613601923
1773048895444963300,7.16096337890625,0.019307903945446014,0.06191844865679741,-0.04194475710391998
1773048895454931200,7.17093115234375,0.019307903945446014,0.00013315795513335615,-0.012117373757064342
1773048895464915200,7.180915283203125,0.0672447681427002,-0.05632581561803818,-0.011052110232412815
1773048895474795000,7.190794921875,0.05446160212159157,0.1897500902414322,-0.020639482885599136
1773048895484611600,7.200611572265625,0.0672447681427002,-0.08721846342086792,-0.012117373757064342
1773048895494605600,7.21060546875,0.09707214683294296,-0.15632744133472443,-0.020639482885599136
1773048895504568300,7.220568359375,0.09387636184692383,0.13009531795978546,-0.011052110232412815
1773048895514748400,7.23074853515625,0.07789740711450577,0.0043942127376794815,-0.001464737462811172
1773048895524780800,7.24078076171875,0.07789740711450577,-0.012650005519390106,0.02090579830110073
1773048895534745300,7.250745361328125,0.07789740711450577,0.042743705213069916,-0.07177213579416275
1773048895544732000,7.26073193359375,0.07470161467790604,-0.130894273519516,-0.006791055668145418
1773048895554698800,7.27069873046875,0.05446160212159157,0.055526867508888245,0.026232117787003517
1773048895564683500,7.28068359375,0.05659212917089462,0.28455856442451477,-0.0600542388856411
1773048895574563600,7.2905634765625,0.06511423736810684,-0.2234390527009964,-0.017443692311644554
1773048895584379600,7.300379638671875,0.0906805694103241,-0.27776750922203064,0.014514217153191566
1773048895594559700,7.310559814453125,0.07363634556531906,0.15992270410060883,-0.053662657737731934
1773048895604593000,7.320593017578125,0.06085318699479103,0.11944268643856049,-0.0153131652623415
1773048895614472700,7.33047265625,0.06298371404409409,-0.21704746782779694,0.09014793485403061
1773048895624288500,7.34028857421875,0.06511423736810684,0.1237037405371666,-0.0003994738799519837
1773048895634468400,7.35046826171875,0.05339634045958519,0.29947224259376526,-0.024900536984205246
1773048895644501200,7.360501220703125,0.06404897570610046,-0.16165375709533691,0.056059498339891434
1773048895654466300,7.37046630859375,0.07789740711450577,-0.18402428925037384,0.008122635073959827
1773048895664452400,7.380452392578125,0.08855003863573074,0.15033532679080963,-0.10905636847019196
1773048895674420000,7.390419921875,0.11198583990335464,-0.08721846342086792,0.015579480677843094
1773048895684404200,7.400404296875,0.08215846121311188,-0.1117195263504982,0.08056056499481201
1773048895694373400,7.410373291015625,0.07044056057929993,0.31012487411499023,-0.08242477476596832
1773048895704356000,7.420356201171875,0.07363634556531906,-0.18828535079956055,-0.0153131652623415
1773048895714236200,7.430236083984375,0.10665952414274216,-0.37151068449020386,0.12636689841747284
1773048895724052700,7.440052734375,0.09813741594552994,0.20040272176265717,-0.04194475710391998
1773048895734232800,7.45023291015625,0.09281109273433685,0.13009531795978546,-0.05579318478703499
1773048895744266000,7.460265869140625,0.0906805694103241,-0.16058848798274994,0.1423458606004715
1773048895754233900,7.47023388671875,0.07470161467790604,0.1609879732131958,0.005992108024656773
1773048895764217900,7.4802177734375,0.08002793043851852,0.04913528636097908,-0.07603318989276886
1773048895774187500,7.4901875,0.07896266877651215,-0.3683148920536041,0.09121319651603699
1773048895784170000,7.500169921875,0.07576687633991241,-0.007323687430471182,0.02516685426235199
1773048895794050000,7.510050048828125,0.13009531795978546,0.2312953621149063,-0.045140545815229416
1773048895803866600,7.51986669921875,0.13116058707237244,-0.02649843320250511,0.11038794368505478
1773048895813861600,7.529861572265625,0.10879004746675491,-0.12982900440692902,-0.0025300011038780212
1773048895823823600,7.53982373046875,0.1363537460565567,-0.04247738793492317,-0.0270310640335083
1773048895834003700,7.550003662109375,0.1237037405371666,-0.074435293674469,0.06564687192440033
1773048895844036400,7.560036376953125,0.0043942127376794815,0.0022636852227151394,-0.05685844644904137
1773048895854001400,7.57000146484375,0.14274533092975616,0.02463422156870365,-0.028096329420804977
1773048895863987700,7.57998779296875,0.21305273473262787,0.07576687633991241,0.05819002538919449
1773048895873955000,7.589955078125,0.14913691580295563,0.16737954318523407,-0.06218476593494415
1773048895883939300,7.599939208984375,0.0576573945581913,-0.2287653684616089,-0.033422645181417465
1773048895893908700,7.60990869140625,0.02996053919196129,-0.1392832249403,0.07843003422021866
1773048895903891500,7.619891357421875,-0.021172115579247475,0.2504701018333435,0.002796316985040903
1773048895913771500,7.629771484375,0.026764748618006706,0.2941459119319916,0.002796316985040903
1773048895923588000,7.639588134765625,0.10665952414274216,-0.07337003201246262,0.06138581782579422
1773048895933768200,7.649768310546875,0.11837742477655411,-0.11491531878709793,0.01664474420249462
1773048895943801600,7.659801513671875,0.17470324039459229,0.0022636852227151394,-0.03448791056871414
1773048895953769200,7.669769287109375,0.16618113219738007,0.02463422156870365,0.09014793485403061
1773048895963753200,7.679753173828125,0.13116058707237244,0.0672447681427002,0.06884266436100006
1773048895973723000,7.689722900390625,0.10665952414274216,0.09707214683294296,-0.07603318989276886
1773048895983705300,7.699705322265625,0.04487423226237297,-0.1723063886165619,-0.03555317223072052
1773048895993676500,7.709676513671875,0.02569948509335518,-0.2745717167854309,0.09014793485403061
1773048896003657700,7.71965771484375,0.03209106624126434,0.10665952414274216,-0.03981423005461693
1773048896013630000,7.7296298828125,0.055526867508888245,-0.021172115579247475,-0.028096329420804977
1773048896023610400,7.7396103515625,0.055526867508888245,-0.25859275460243225,0.11145320534706116
1773048896033583600,7.74958349609375,0.031025802716612816,0.18335850536823273,0.026232117787003517
1773048896043563300,7.759563232421875,0.04061317816376686,0.19614167511463165,-0.03768370300531387
1773048896053537000,7.769537109375,0.05339634045958519,-0.251135915517807,0.0762995108962059
1773048896063516200,7.77951611328125,0.03848264738917351,-0.12024163454771042,-0.012117373757064342
1773048896073490700,7.78949072265625,0.058722659945487976,0.04167843982577324,-0.11012163013219833
1773048896083469300,7.79946923828125,0.07044056057929993,-0.3597927987575531,-0.0270310640335083
1773048896093444400,7.8094443359375,0.13116058707237244,-0.138217955827713,0.01771000772714615
1773048896103422500,7.81942236328125,0.19600850343704224,0.3857586085796356,-0.0035952648613601923
1773048896113397800,7.829397705078125,0.31744855642318726,0.23342590034008026,0.003861580742523074
1773048896123375600,7.839375732421875,0.22796641290187836,-0.15952323377132416,0.04647212475538254
1773048896133351400,7.849351318359375,0.17044217884540558,-0.09254477918148041,0.005992108024656773
1773048896143329300,7.859329345703125,0.13009531795978546,0.10559425503015518,-0.0504668653011322
1773048896153305000,7.86930517578125,0.08428898453712463,-0.05099949613213539,0.0017310534603893757
1773048896163282400,7.879282470703125,0.043808966875076294,-0.14247901737689972,0.07416898012161255
1773048896173258500,7.889258544921875,0.022503694519400597,0.25260064005851746,-0.011052110232412815
1773048896183235800,7.89923583984375,0.03848264738917351,0.2941459119319916,-0.07922898232936859
1773048896193116000,7.909115966796875,0.06831002980470657,-0.06378266215324402,-0.025965800508856773
1773048896202933500,7.91893359375,0.08322372287511826,-0.2798980176448822,-0.0600542388856411
1773048896212932900,7.928932861328125,0.15233269333839417,0.047004759311676025,-0.04727107286453247
1773048896222891500,7.9388916015625,0.15446323156356812,0.26325327157974243,0.0006657897611148655
1773048896233071400,7.9490712890625,0.17150744795799255,-0.074435293674469,0.013448953628540039
1773048896243104800,7.959104736328125,0.31212225556373596,0.05659212917089462,-0.0153131652623415
1773048896253072400,7.969072265625,0.2631201148033142,0.031025802716612816,0.003861580742523074
1773048896263056600,7.979056640625,0.23435799777507782,-0.028628960251808167,0.004926844500005245
1773048896273026000,7.989026123046875,0.20879167318344116,0.0576573945581913,-0.02383527345955372
1773048896283008800,7.9990087890625,0.17257271707057953,-0.12024163454771042,-0.07816372066736221
1773048896292979700,8.008979736328126,0.14381058514118195,-0.3075948655605316,-0.04727107286453247
1773048896302961200,8.018961181640625,0.12689952552318573,-0.10639320313930511,-0.0035952648613601923
1773048896312841200,8.02884130859375,0.11518163233995438,0.3974764943122864,-0.05579318478703499
1773048896322658000,8.038657958984375,0.10665952414274216,0.4037349224090576,0.02197106182575226
1773048896332838100,8.048838134765624,0.09387636184692383,0.07363634556531906,0.06458161026239395
1773048896342871800,8.058871826171876,0.09813741594552994,0.026764748618006706,-0.05792371183633804
1773048896352840400,8.06884033203125,0.1332911103963852,-0.0062584239058196545,-0.06538055837154388
1773048896362823700,8.07882373046875,0.2205095738172531,-0.15526217222213745,0.008122635073959827
1773048896372793900,8.0887939453125,0.0043942127376794815,-0.04673844203352928,-0.0270310640335083
1773048896382776000,8.098776123046875,-0.0978710949420929,0.3538006842136383,-0.04727107286453247
1773048896392747500,8.10874755859375,0.020373167470097542,0.7616634964942932,-0.10053425282239914
1773048896402728400,8.118728515625,0.15872427821159363,-0.1117195263504982,0.011318426579236984
1773048896412701200,8.128701171875,0.17683376371860504,-0.27776750922203064,0.028362644836306572
1773048896422681000,8.13868115234375,0.12903006374835968,0.2643185555934906,-0.1921469271183014
1773048896432561200,8.14856103515625,0.12689952552318573,-0.25965800881385803,-0.04727107286453247
1773048896442378500,8.15837841796875,0.11731215566396713,-0.35233595967292786,0.16045533120632172
1773048896452558300,8.168558349609375,0.09600688517093658,0.3996070325374603,0.002796316985040903
1773048896462592300,8.17859228515625,0.1363537460565567,0.619983434677124,-0.13355742394924164
1773048896472561700,8.188561767578125,0.32597067952156067,-0.1669800728559494,0.08056056499481201
1773048896482544400,8.19854443359375,0.3238401412963867,-0.30120328068733215,0.10612688958644867
1773048896492515300,8.208515380859374,0.18642114102840424,0.1332911103963852,-0.07922898232936859
1773048896502496800,8.218496826171876,0.15765902400016785,-0.1117195263504982,0.04008054360747337
1773048896512376800,8.228376953125,0.17789903283119202,-0.008388951420783997,0.10186583548784256
1773048896522193700,8.238193603515626,0.452737033367157,0.15779218077659607,0.01664474420249462
1773048896532189700,8.248189697265625,0.5134570598602295,-0.21065588295459747,0.08801741153001785
1773048896542151000,8.25815087890625,0.4271707236766815,-0.1351553201675415,0.04221107065677643
1773048896552331000,8.2683310546875,0.3760380744934082,0.2728406488895416,-0.05685844644904137
1773048896562364000,8.278364013671874,0.3621896505355835,0.15885743498802185,-0.0035952648613601923
1773048896572329500,8.28832958984375,0.3398191034793854,-0.13302479684352875,0.06458161026239395
1773048896582315300,8.298315185546874,0.2769685387611389,0.20892482995986938,0.051798444241285324
1773048896592195300,8.3081953125,0.2119874656200409,0.4017375409603119,-0.007856319658458233
1773048896602011400,8.318011474609374,0.2024000883102417,-0.2607232630252838,-0.001464737462811172
1773048896612003800,8.32800390625,0.1970737725496292,-0.513190746307373,-0.00892158318310976
1773048896621968000,8.3379677734375,0.14381058514118195,-0.1117195263504982,-0.07070687413215637
1773048896632148000,8.34814794921875,0.12689952552318573,0.03635212033987045,-0.040879491716623306
1773048896642180400,8.358180419921876,0.12476900219917297,-0.2522011697292328,0.03688475489616394
1773048896652143900,8.368143798828125,0.0672447681427002,-0.037151068449020386,0.09121319651603699
1773048896662131200,8.378131103515624,0.03315633162856102,0.42610546946525574,0.01771000772714615
1773048896672097300,8.38809716796875,0.15446323156356812,-0.02330264262855053,0.023036325350403786
1773048896682082800,8.398082763671875,0.34514543414115906,-0.4439486265182495,0.06564687192440033
1773048896692051000,8.408051025390625,0.2620548605918884,0.22596904635429382,0.005992108024656773
1773048896702034700,8.41803466796875,0.18109482526779175,0.026764748618006706,0.026232117787003517
1773048896712004600,8.428004638671876,0.1502021700143814,-0.4311654567718506,0.05819002538919449
1773048896721986800,8.43798681640625,0.11837742477655411,0.2984069883823395,-0.00892158318310976
1773048896731867000,8.447866943359376,0.12050794810056686,0.055526867508888245,-0.006791055668145418
1773048896741683700,8.45768359375,0.10346373170614243,-0.38003280758857727,0.07097318768501282
1773048896751863800,8.46786376953125,0.08322372287511826,0.3495396375656128,-0.009986846707761288
1773048896761897200,8.477897216796874,0.08961530029773712,0.1993374526500702,-0.0025300011038780212
1773048896771865300,8.487865234375,0.16831165552139282,-0.2905506491661072,0.06671213358640671
1773048896781849000,8.49784912109375,0.24074958264827728,0.08002793043851852,-0.05472791939973831
1773048896791729200,8.507729248046875,0.24074958264827728,-0.014780532568693161,-0.045140545815229416
1773048896801545500,8.51754541015625,0.19494324922561646,-0.1255679577589035,0.10825742036104202
1773048896811539700,8.527539794921875,0.19920429587364197,0.4761728346347809,0.015579480677843094
1773048896821502500,8.53750244140625,0.42504018545150757,0.02569948509335518,0.03262370079755783
1773048896831493000,8.5474931640625,0.46338969469070435,-0.383228600025177,0.09653951972723007
1773048896841458700,8.557458740234376,0.3302317261695862,0.35167014598846436,0.0294279083609581
1773048896851638800,8.567638671875,0.24181485176086426,0.19507640600204468,0.08695214241743088
1773048896861671000,8.5776708984375,0.21411798894405365,-0.2798980176448822,0.07949529588222504
1773048896871551000,8.587551025390624,0.18535587191581726,0.16205322742462158,0.06884266436100006
1773048896881365800,8.59736572265625,0.14487585425376892,0.5091960430145264,-0.00892158318310976
1773048896891545600,8.607545654296874,0.13435637950897217,0.10985531657934189,0.028362644836306572
1773048896901578000,8.617577880859375,0.12050794810056686,-0.0648479238152504,-0.0025300011038780212
1773048896921434600,8.6374345703125,0.11092057824134827,0.13648690283298492,-0.0504668653011322
1773048896931249700,8.647249755859375,0.16618113219738007,-0.41412124037742615,-0.06644582003355026
1773048896941429500,8.657429443359375,0.29827383160591125,-0.2191779911518097,-0.0366184376180172
1773048896951461600,8.667461669921876,0.24714116752147675,0.40266966819763184,-0.014247900806367397
1773048896961424100,8.677424072265625,0.1981390416622162,0.3250385820865631,0.02090579830110073
1773048896971412500,8.68741259765625,0.18109482526779175,-0.07017423957586288,0.027297381311655045
1773048896981292500,8.69729248046875,0.14700637757778168,0.23342590034008026,0.030493171885609627
1773048896991108000,8.707108154296876,0.10346373170614243,0.52837073802948,0.023036325350403786
1773048897001288000,8.717287841796875,0.13116058707237244,-0.07017423957586288,0.012383690103888512
1773048897011320600,8.727320556640626,0.48149916529655457,-0.11704584211111069,0.003861580742523074
1773048897021284900,8.737284912109375,0.5560676455497742,0.15566164255142212,0.002796316985040903
1773048897031271700,8.747271728515624,0.4697812795639038,0.12903006374835968,0.009187898598611355
1773048897041238500,8.757238525390624,0.422909677028656,-0.204264298081398,-0.0025300011038780212
1773048897051223300,8.767223388671875,0.3941475450992584,-0.18722008168697357,-0.021704746410250664
1773048897061103400,8.777103271484375,0.3717769980430603,0.23875221610069275,0.034754227846860886
1773048897070919700,8.786919677734375,0.3536675274372101,0.03741738572716713,0.0954742506146431
1773048897080913000,8.796912841796875,0.32703593373298645,-0.0009321057004854083,0.030493171885609627
1773048897090876400,8.80687646484375,0.33662331104278564,0.29201540350914,0.030493171885609627
1773048897101056300,8.81705615234375,0.46871599555015564,0.1279647946357727,-0.0035952648613601923
1773048897111089000,8.8270888671875,0.7306377291679382,0.07044056057929993,0.009187898598611355
1773048897121053000,8.837052978515626,0.7945535182952881,-0.057391077280044556,-0.0600542388856411
1773048897131040000,8.8470400390625,0.7189198136329651,0.0033289489801973104,0.010253162123262882
1773048897141006600,8.857006591796875,0.6498108506202698,0.08428898453712463,0.011318426579236984
1773048897150991600,8.86699169921875,0.4857602119445801,0.03315633162856102,0.0294279083609581
1773048897160968400,8.876968505859375,0.45380231738090515,-0.06697845458984375,-0.001464737462811172
1773048897170936800,8.886936767578124,0.42504018545150757,0.02996053919196129,0.015579480677843094
1773048897180920300,8.89692041015625,0.22690115869045258,0.10665952414274216,0.009187898598611355
1773048897190890500,8.906890380859375,0.11305110156536102,0.00013315795513335615,-0.006791055668145418
1773048897200872700,8.916872802734375,0.13435637950897217,0.022503694519400597,0.015579480677843094
1773048897210844200,8.92684423828125,0.15765902400016785,0.03635212033987045,-0.0003994738799519837
1773048897220825000,8.9368251953125,0.1928127259016037,-0.4077296555042267,-0.13142690062522888
1773048897230797800,8.9467978515625,0.19494324922561646,-0.6079992055892944,-0.1442100703716278
1773048897240778000,8.956778076171876,0.1002679392695427,0.043808966875076294,-0.00892158318310976
1773048897250751200,8.966751220703125,0.059787921607494354,0.8053393363952637,0.24354590475559235
1773048897260731000,8.97673095703125,0.1237037405371666,0.3346259295940399,0.18815219402313232
1773048897270610700,8.986610595703125,0.15233269333839417,0.5837644934654236,0.14554163813591003
1773048897280428000,8.996427978515625,0.17789903283119202,-0.3779022693634033,-0.06218476593494415
1773048897290425600,9.006425537109376,0.16192007064819336,-0.4812328517436981,-0.10479531437158585
1773048897300385500,9.016385498046875,0.13528847694396973,0.2728406488895416,-0.04301001876592636
1773048897310572800,9.02657275390625,0.1406148076057434,-0.18295903503894806,0.0017310534603893757
1773048897320556000,9.03655615234375,0.1322258561849594,-0.04247738793492317,-0.01850895583629608
1773048897330565400,9.0465654296875,0.14487585425376892,0.23981747031211853,0.035819489508867264
1773048897340551200,9.05655126953125,0.10346373170614243,-0.36192330718040466,-0.016378428786993027
1773048897350519000,9.06651904296875,0.08748477697372437,0.45486757159233093,0.12636689841747284
1773048897360503000,9.0765029296875,0.11092057824134827,0.2557964324951172,0.1423458606004715
1773048897370472700,9.08647265625,0.10985531657934189,-0.021172115579247475,0.024101590737700462
1773048897380455200,9.096455078125,0.10346373170614243,0.15779218077659607,0.07736477255821228
1773048897390426000,9.106426025390626,0.1045289933681488,-0.12237215787172318,-0.03768370300531387
1773048897400407600,9.116407470703125,0.11518163233995438,-0.05099949613213539,0.0017310534603893757
1773048897410379800,9.1263798828125,0.1002679392695427,0.08535424619913101,-0.03768370300531387
1773048897420360400,9.1363603515625,0.11624689400196075,0.09387636184692383,0.04221107065677643
1773048897430333400,9.14633349609375,0.08961530029773712,0.22064273059368134,0.047537390142679214
1773048897440313000,9.15631298828125,0.048070020973682404,0.3814975321292877,0.07416898012161255
1773048897450287000,9.166287109375,0.06085318699479103,0.02996053919196129,0.01664474420249462
1773048897460266200,9.176266357421875,0.10559425503015518,-0.1723063886165619,-0.06538055837154388
1773048897470240500,9.186240478515625,0.28016433119773865,-0.020106852054595947,-0.00892158318310976
1773048897480219100,9.19621923828125,0.4506065249443054,0.1759016513824463,0.04860265180468559
1773048897490233000,9.206233154296875,0.45806336402893066,0.16951008141040802,0.07310371845960617
1773048897500215300,9.21621533203125,0.42077913880348206,0.04487423226237297,0.019840534776449203
1773048897510147800,9.22614794921875,0.4048001766204834,-0.05632581561803818,-0.06431528925895691
1773048897520125000,9.236125,0.34088435769081116,-0.1808284968137741,-0.06218476593494415
1773048897530101200,9.246101318359376,0.2300969511270523,-0.07656582444906235,-0.029161592945456505
1773048897540078600,9.25607861328125,0.20026956498622894,0.27603644132614136,0.13382373750209808
1773048897550055000,9.266054931640625,0.15233269333839417,0.2217079997062683,0.12530162930488586
1773048897560032000,9.276031982421875,0.19068218767642975,-0.44714441895484924,-0.08988162130117416
1773048897570008600,9.286008544921875,0.20453062653541565,-0.3075948655605316,0.008122635073959827
1773048897579985400,9.2959853515625,0.20026956498622894,0.2547311782836914,0.20732693374156952
1773048897589962000,9.3059619140625,0.17257271707057953,0.23981747031211853,0.2222406268119812
1773048897599939000,9.31593896484375,0.13435637950897217,0.20999009907245636,0.10186583548784256
1773048897609915600,9.32591552734375,0.11837742477655411,-0.4684496819972992,-0.12183953076601028
1773048897619892500,9.335892578125,0.1002679392695427,-0.6111950278282166,-0.19534271955490112
1773048897629869300,9.345869384765624,0.07044056057929993,0.1993374526500702,0.14767217636108398
1773048897639846100,9.35584619140625,0.07363634556531906,0.4697812795639038,0.28069695830345154
1773048897649822700,9.36582275390625,0.23329274356365204,0.19507640600204468,0.15512901544570923
1773048897659799600,9.375799560546875,0.3536675274372101,-0.18508955836296082,0.010253162123262882
1773048897669776400,9.3857763671875,0.31212225556373596,-0.2287653684616089,-0.12823110818862915
1773048897679753200,9.395753173828124,0.29827383160591125,-0.11278478801250458,-0.0035952648613601923
1773048897689729800,9.405729736328125,0.2780338227748871,0.07470161467790604,0.07097318768501282
1773048897699706600,9.41570654296875,0.2258358895778656,0.34634384512901306,0.14341111481189728
1773048897709683500,9.425683349609375,0.20133483409881592,0.28136277198791504,0.16365112364292145
1773048897719660300,9.435660400390624,0.20559588074684143,0.04167843982577324,0.005992108024656773
1773048897739614000,9.455614013671875,0.21411798894405365,-0.280963271856308,-0.12397005409002304
1773048897749590500,9.465590576171875,0.22477063536643982,-0.10532794147729874,-0.03981423005461693
1773048897759567400,9.4755673828125,0.22264009714126587,0.2792322337627411,0.13169321417808533
1773048897769544200,9.485544189453124,0.19920429587364197,0.3772364854812622,0.17110797762870789
1773048897779521000,9.49552099609375,0.1970737725496292,0.1332911103963852,0.0954742506146431
1773048897789497900,9.505497802734375,0.18961693346500397,-0.004127896390855312,-0.04833633825182915
1773048897799474400,9.515474365234375,0.1736379712820053,-0.15845796465873718,-0.11225215345621109
1773048897809451300,9.525451171875,0.19600850343704224,-0.15845796465873718,-0.10266478359699249
1773048897819428000,9.535427978515624,0.38349491357803345,0.23768694698810577,0.031558435410261154
1773048897829405000,9.545405029296875,0.43036651611328125,0.3356912136077881,0.10293109714984894
1773048897839381800,9.5553818359375,0.37390753626823425,0.2078595608472824,0.013448953628540039
1773048897849358300,9.5653583984375,0.30253487825393677,-0.032890014350414276,-0.07922898232936859
1773048897859335200,9.575335205078124,0.19387798011302948,-0.15845796465873718,-0.15805849432945251
1773048897869351000,9.585350830078125,0.21518325805664062,-0.074435293674469,-0.09946899116039276
1773048897879331600,9.59533154296875,0.2492716908454895,0.1844237744808197,0.023036325350403786
1773048897889265700,9.605265625,0.253532737493515,0.23662169277668,0.04647212475538254
1773048897899241700,9.61524169921875,0.2631201148033142,0.1332911103963852,0.01664474420249462
1773048897909219000,9.625218994140624,0.25566327571868896,-0.007323687430471182,-0.03768370300531387
1773048897919195400,9.6351953125,0.25246748328208923,-0.10852373391389847,-0.09520793706178665
1773048897929172700,9.6451728515625,0.25246748328208923,-0.13302479684352875,-0.09094688296318054
1773048897939149000,9.655149169921875,0.2162485122680664,0.018242640420794487,-0.03768370300531387
1773048897949126100,9.665126220703126,0.2024000883102417,0.08002793043851852,0.009187898598611355
1773048897959102700,9.675102783203124,0.17576849460601807,0.07789740711450577,-0.0270310640335083
1773048897969079800,9.685079833984375,0.12689952552318573,-0.037151068449020386,-0.04727107286453247
1773048897979056400,9.695056396484375,0.13848426938056946,-0.09147951751947403,-0.14740586280822754
1773048897989033500,9.705033447265626,0.17789903283119202,-0.19680745899677277,-0.15486270189285278
1773048897999009800,9.715009765625,0.18002955615520477,-0.24154852330684662,-0.1399490088224411
1773048898008987000,9.72498681640625,0.1502021700143814,0.03209106624126434,-0.14847111701965332
1773048898018963500,9.73496337890625,0.17044217884540558,0.1705753356218338,0.052863709628582
1773048898028940500,9.7449404296875,0.15126743912696838,0.19188061356544495,-0.020639482885599136
1773048898038917000,9.754917236328126,0.16298533976078033,-0.08934898674488068,-0.12077426165342331
1773048898048894000,9.76489404296875,0.18216007947921753,-0.31079065799713135,-0.2059953510761261
1773048898058870800,9.774870849609375,0.19920429587364197,-0.2894853949546814,-0.2251701056957245
1773048898068847600,9.78484765625,0.24394537508487701,-0.013715269044041634,-0.0366184376180172
1773048898078824400,9.794824462890626,0.26418536901474,0.18335850536823273,0.013448953628540039
1773048898088801300,9.80480126953125,0.2822948694229126,0.048070020973682404,-0.004660528618842363
1773048898098777900,9.81477783203125,0.26525065302848816,-0.07550056278705597,-0.0504668653011322
1773048898108754700,9.824754638671875,0.2258358895778656,-0.1213068962097168,-0.12823110818862915
1773048898118731500,9.8347314453125,0.2961432933807373,-0.251135915517807,-0.12077426165342331
1773048898128708400,9.844708251953126,0.5912213325500488,-0.1478053331375122,-0.09733846783638
1773048898138685000,9.854684814453124,0.5773729085922241,0.0906805694103241,0.004926844500005245
1773048898148661800,9.864661865234375,0.3621896505355835,0.1663142889738083,0.06777740269899368
1773048898158638600,9.874638671875,0.2950780391693115,0.03848264738917351,-0.001464737462811172
1773048898168615400,9.884615478515625,0.26525065302848816,-0.1392832249403,-0.07816372066736221
1773048898178592300,9.89459228515625,0.20026956498622894,-0.2713759243488312,-0.12077426165342331
1773048898188569000,9.904569091796875,0.21731378138065338,-0.2095906287431717,-0.09733846783638
1773048898198545700,9.914545654296875,0.2396843135356903,0.08855003863573074,0.03688475489616394
1773048898208522500,9.9245224609375,0.2503369450569153,0.18122798204421997,0.09014793485403061
1773048898218499300,9.934499267578126,0.23755379021167755,0.06404897570610046,0.05712476372718811
1773048898228476200,9.94447607421875,0.21411798894405365,-0.008388951420783997,-0.0153131652623415
1773048898238452700,9.95445263671875,0.25566327571868896,-0.06378266215324402,-0.033422645181417465
1773048898248429600,9.9644296875,0.25566327571868896,-0.04034686088562012,0.009187898598611355
1773048898258406400,9.974406494140625,0.21305273473262787,0.12583427131175995,0.06032055243849754
1773048898268344300,9.98434423828125,0.22690115869045258,0.14500901103019714,0.06458161026239395
1773048898278317300,9.9943173828125,0.24288010597229004,0.09387636184692383,0.04647212475538254
1773048898288298000,10.004298095703126,0.245010644197464,0.02463422156870365,0.03688475489616394
1773048898298271500,10.014271484375,0.19920429587364197,-0.0009321057004854083,0.011318426579236984
1773048898308251400,10.02425146484375,0.25566327571868896,0.035286858677864075,0.012383690103888512
1773048898318225700,10.0342255859375,0.2972085475921631,0.051265813410282135,0.052863709628582
1773048898328205000,10.044205078125,0.2354232668876648,0.12903006374835968,0.07097318768501282
1773048898338179800,10.054179931640626,0.2503369450569153,0.12157320976257324,0.052863709628582
1773048898348158500,10.064158447265624,0.24074958264827728,0.02569948509335518,0.03368896245956421
1773048898358133800,10.0741337890625,0.22796641290187836,0.013981585390865803,0.012383690103888512
1773048898368073200,10.0840732421875,0.245010644197464,0.019307903945446014,0.008122635073959827
1773048898378045000,10.094044921875,0.20559588074684143,0.013981585390865803,0.014514217153191566
1773048898388065500,10.1040654296875,0.1981390416622162,0.0011984215816482902,0.027297381311655045
1773048898398042000,10.1140419921875,0.253532737493515,0.0576573945581913,0.03688475489616394
1773048898408019200,10.124019287109375,0.2918822467327118,0.03635212033987045,0.04540686309337616
1773048898417995500,10.13399560546875,0.28442537784576416,0.013981585390865803,0.03795001655817032
1773048898427972600,10.14397265625,0.30360013246536255,-0.0009321057004854083,0.027297381311655045
1773048898437949200,10.15394921875,0.40266966819763184,-0.009454214945435524,0.019840534776449203
1773048898447965200,10.163965087890626,0.37816858291625977,0.0033289489801973104,0.028362644836306572
1773048898457945600,10.173945556640625,0.42184439301490784,0.0342215932905674,0.035819489508867264
1773048898467841000,10.183841064453125,0.48789075016975403,0.019307903945446014,0.039015281945466995
1773048898477813000,10.19381298828125,0.47830337285995483,0.011851058341562748,0.034754227846860886
1773048898487833300,10.203833251953125,0.4942823350429535,-0.02756369672715664,0.023036325350403786
1773048898497810200,10.21381005859375,0.42077913880348206,-0.037151068449020386,0.014514217153191566
1773048898507748000,10.223748046875,0.3920170068740845,-0.03502054139971733,0.028362644836306572
1773048898517721000,10.23372119140625,0.3568633198738098,-0.020106852054595947,0.026232117787003517
1773048898527662800,10.243662841796874,0.24181485176086426,-0.025433169677853584,0.027297381311655045
1773048898537632500,10.253632568359375,0.2727074921131134,-0.04247738793492317,0.027297381311655045
1773048898547577300,10.263577392578124,0.25566327571868896,-0.05419528856873512,0.010253162123262882
1773048898557545000,10.273544921875,0.19387798011302948,-0.09361004084348679,-0.033422645181417465
1773048898567531000,10.283531005859375,0.29401275515556335,-0.08189214020967484,0.002796316985040903
1773048898577500200,10.293500244140626,0.20453062653541565,-0.02756369672715664,0.005992108024656773
1773048898587406800,10.30340673828125,0.12689952552318573,-0.04034686088562012,-0.017443692311644554
1773048898597369900,10.313369873046875,0.21944430470466614,-0.028628960251808167,0.009187898598611355
1773048898607321600,10.323321533203124,0.15765902400016785,-0.05099949613213539,-0.011052110232412815
1773048898617283300,10.333283447265625,0.1789642870426178,-0.01584579609334469,-0.0003994738799519837
1773048898627275000,10.34327490234375,0.18535587191581726,-0.037151068449020386,-0.0003994738799519837
1773048898637239800,10.35323974609375,0.1789642870426178,-0.10319741815328598,-0.05685844644904137
1773048898647112400,10.363112548828125,0.2077264040708542,-0.11704584211111069,-0.05259739235043526
1773048898657068000,10.373068115234375,0.12157320976257324,-0.10958899557590485,-0.07496792823076248
1773048898666950000,10.382949951171875,0.1459411233663559,0.03209106624126434,-0.016378428786993027
1773048898676898000,10.39289794921875,0.2545980215072632,0.10772478580474854,0.04434159770607948
1773048898686941400,10.40294140625,0.18961693346500397,-0.04673844203352928,-0.05153212696313858
1773048898696899300,10.4128994140625,0.13009531795978546,-0.048868969082832336,-0.06218476593494415
1773048898706894800,10.422894775390626,0.1736379712820053,0.03635212033987045,0.013448953628540039
1773048898716856300,10.432856201171875,0.17470324039459229,0.042743705213069916,0.013448953628540039
1773048898726771000,10.44277099609375,0.16298533976078033,-0.05952160432934761,-0.04620581120252609
1773048898736727800,10.452727783203125,0.16405059397220612,-0.07337003201246262,-0.04833633825182915
1773048898746647000,10.46264697265625,0.19387798011302948,0.048070020973682404,0.018775271251797676
1773048898756600000,10.47260009765625,0.1736379712820053,0.04487423226237297,0.015579480677843094
1773048898766480100,10.482480224609375,0.16192007064819336,-0.04354264959692955,-0.04407528415322304
1773048898776304000,10.49230419921875,0.19600850343704224,-0.017976323142647743,-0.00892158318310976
1773048898786484200,10.502484130859376,0.14807164669036865,-0.020106852054595947,-0.01850895583629608
1773048898796477200,10.512477294921876,0.15872427821159363,0.05339634045958519,-0.004660528618842363
1773048898806657000,10.522656982421875,0.20879167318344116,0.0715058222413063,0.04540686309337616
1773048898816837000,10.532837158203124,0.1322258561849594,-0.0318247526884079,-0.025965800508856773
1773048898827017200,10.543017333984375,0.1322258561849594,-0.03395527973771095,-0.021704746410250664
1773048898837081000,10.5530810546875,0.22796641290187836,0.0342215932905674,0.039015281945466995
1773048898847035400,10.563035400390625,0.13435637950897217,0.0033289489801973104,-0.009986846707761288
1773048898857030400,10.573030517578125,0.16085481643676758,0.06511423736810684,0.02516685426235199
1773048898866989000,10.582989013671876,0.19174745678901672,-0.07017423957586288,-0.016378428786993027
1773048898876980200,10.592980224609375,0.15659375488758087,-0.08508793264627457,-0.05153212696313858
1773048898886942700,10.602942626953125,0.18961693346500397,0.13648690283298492,0.06458161026239395
1773048898896931000,10.61293115234375,0.15659375488758087,-0.0318247526884079,-0.001464737462811172
1773048898906896400,10.622896484375,0.12050794810056686,-0.10745847225189209,-0.04407528415322304
1773048898916882400,10.63288232421875,0.18748639523983002,0.12476900219917297,0.07310371845960617
1773048898926849800,10.642849853515624,0.18748639523983002,0.11518163233995438,0.07736477255821228
1773048898936834000,10.652833984375,0.14700637757778168,-0.14034847915172577,-0.06431528925895691
1773048898946842400,10.66284228515625,0.1502021700143814,-0.09467530250549316,-0.025965800508856773
1773048898956829200,10.6728291015625,0.17044217884540558,0.1375521719455719,0.07203845679759979
1773048898966757000,10.682757080078124,0.1928127259016037,0.03635212033987045,0.039015281945466995
1773048898976737800,10.69273779296875,0.16618113219738007,-0.12237215787172318,-0.05579318478703499
1773048898986710800,10.702710693359375,0.16831165552139282,0.01078579481691122,0.02090579830110073
1773048898996690700,10.712690673828124,0.17150744795799255,0.03635212033987045,0.051798444241285324
1773048899006664200,10.722664306640626,0.16618113219738007,-0.0648479238152504,-0.006791055668145418
1773048899016643600,10.7326435546875,0.1651158630847931,-0.0009321057004854083,0.028362644836306572
1773048899026617900,10.742617919921875,0.13848426938056946,-0.0318247526884079,0.009187898598611355
1773048899036596700,10.7525966796875,0.17044217884540558,-0.057391077280044556,0.009187898598611355
1773048899046571300,10.7625712890625,0.1789642870426178,-0.08295740932226181,0.011318426579236984
1773048899056549600,10.772549560546874,0.1237037405371666,-0.04993423447012901,0.0006657897611148655
1773048899066525000,10.78252490234375,0.16192007064819336,0.02463422156870365,0.052863709628582
1773048899076503000,10.7925029296875,0.1597895473241806,-0.11491531878709793,-0.001464737462811172
1773048899086382800,10.8023828125,0.14807164669036865,-0.08295740932226181,-0.0025300011038780212
1773048899096200400,10.812200439453125,0.15446323156356812,0.0810931921005249,0.06564687192440033
1773048899106380500,10.822380615234374,0.1597895473241806,-0.01584579609334469,0.03368896245956421
1773048899116414500,10.83241455078125,0.15339796245098114,-0.10000162571668625,-0.009986846707761288
1773048899126385400,10.842385498046875,0.12689952552318573,-0.03502054139971733,0.005992108024656773
1773048899136366800,10.852366943359375,0.09707214683294296,-0.07337003201246262,-0.0025300011038780212
1773048899146339000,10.862339111328126,0.13528847694396973,-0.032890014350414276,0.018775271251797676
1773048899156319500,10.872319580078125,0.14381058514118195,0.05659212917089462,0.06032055243849754
1773048899166292500,10.88229248046875,0.1332911103963852,-0.025433169677853584,0.039015281945466995
1773048899176272400,10.8922724609375,0.13116058707237244,-0.09254477918148041,-0.02277000993490219
1773048899186246100,10.90224609375,0.13741901516914368,-0.07123950868844986,0.0017310534603893757
1773048899196225300,10.912225341796875,0.11624689400196075,-0.05632581561803818,0.002796316985040903
1773048899206105300,10.922105224609375,0.11198583990335464,-0.12024163454771042,-0.02383527345955372
1773048899215922700,10.931922607421875,0.1279647946357727,-0.02649843320250511,0.014514217153191566
1773048899226102500,10.9421025390625,0.0906805694103241,0.027830012142658234,0.039015281945466995
1773048899236136400,10.952136474609375,0.0715058222413063,-0.07230477035045624,-0.01318263728171587
1773048899246106600,10.962106689453124,0.1045289933681488,-0.08295740932226181,-0.006791055668145418
1773048899256088800,10.9720888671875,0.09281109273433685,-0.013715269044041634,0.023036325350403786
1773048899266060000,10.98206005859375,0.09281109273433685,-0.021172115579247475,0.02090579830110073
1773048899276041200,10.992041259765625,0.12050794810056686,-0.02330264262855053,0.01771000772714615
1773048899285921300,11.00192138671875,0.09281109273433685,-0.08934898674488068,-0.007856319658458233
1773048899295738000,11.011738037109374,0.11944268643856049,-0.05206476151943207,0.0017310534603893757
1773048899305734400,11.021734375,0.11837742477655411,-0.037151068449020386,0.01771000772714615
1773048899315695400,11.0316953125,0.07257108390331268,-0.08402267098426819,-0.01850895583629608
1773048899325875500,11.04187548828125,0.11731215566396713,-0.021172115579247475,0.009187898598611355
1773048899335908400,11.051908447265625,0.09174583107233047,-0.003062632866203785,0.01771000772714615
1773048899345874000,11.0618740234375,-0.003062632866203785,-0.12343742698431015,-0.028096329420804977
1773048899355859700,11.071859619140625,0.03848264738917351,-0.0786963477730751,-0.024900536984205246
1773048899365827600,11.08182763671875,0.09813741594552994,0.13435637950897217,0.08482161909341812
1773048899375811600,11.0918115234375,0.08961530029773712,0.07470161467790604,0.04540686309337616
1773048899385691400,11.10169140625,0.05446160212159157,-0.07230477035045624,-0.020639482885599136
1773048899395508000,11.111508056640625,0.18961693346500397,-0.1351553201675415,-0.0600542388856411
1773048899405687800,11.121687744140624,0.1363537460565567,-0.09574057161808014,-0.06325002759695053
1773048899415721200,11.13172119140625,0.026764748618006706,-0.03608580678701401,-0.030226856470108032
1773048899425688000,11.14168798828125,0.06085318699479103,0.03741738572716713,0.0006657897611148655
1773048899435672800,11.1516728515625,0.08855003863573074,0.1514005959033966,0.06351634114980698
1773048899445641700,11.161641845703125,0.06511423736810684,0.07789740711450577,0.02090579830110073
1773048899455624700,11.171624755859375,0.0672447681427002,-0.07656582444906235,-0.025965800508856773
1773048899465595400,11.181595458984376,0.09281109273433685,-0.12237215787172318,-0.08135951310396194
1773048899475577000,11.1915771484375,0.08215846121311188,-0.11065425723791122,-0.04407528415322304
1773048899485457200,11.20145703125,0.11837742477655411,0.042743705213069916,0.013448953628540039
1773048899495274000,11.21127392578125,0.13435637950897217,0.02996053919196129,0.019840534776449203
1773048899505453800,11.221453857421874,0.08322372287511826,0.009720530360937119,-0.0153131652623415
1773048899515487500,11.231487548828126,0.09707214683294296,-0.021172115579247475,-0.01957421936094761
1773048899525456000,11.241455810546874,0.0949416235089302,-0.07230477035045624,-0.03448791056871414
1773048899535439400,11.251439453125,0.06831002980470657,-0.04247738793492317,-0.012117373757064342
1773048899545409500,11.261409423828125,0.035286858677864075,-0.04460791498422623,-0.017443692311644554
1773048899555391500,11.2713916015625,0.06511423736810684,-0.010519478470087051,0.0017310534603893757
1773048899565363000,11.281363037109376,0.07683213800191879,0.042743705213069916,0.03368896245956421
1773048899575344000,11.29134423828125,0.08535424619913101,-0.011584741994738579,0.008122635073959827
1773048899585316600,11.301316650390625,0.15446323156356812,-0.05206476151943207,-0.004660528618842363
1773048899595296800,11.311296875,0.114116370677948,-0.10319741815328598,-0.030226856470108032
1773048899605176800,11.3211767578125,0.07576687633991241,-0.07976161688566208,-0.033422645181417465
1773048899614994000,11.330993896484374,0.12050794810056686,0.03209106624126434,0.03795001655817032
1773048899624990700,11.34099072265625,0.08428898453712463,0.02569948509335518,0.018775271251797676
1773048899634951200,11.350951171875,0.0672447681427002,-0.007323687430471182,0.0006657897611148655
1773048899645131300,11.36113134765625,0.0906805694103241,-0.07230477035045624,-0.007856319658458233
1773048899655164200,11.3711640625,0.07470161467790604,-0.10426267981529236,-0.05792371183633804
1773048899665130500,11.381130615234374,0.055526867508888245,-0.06378266215324402,-0.007856319658458233
1773048899675115500,11.391115478515625,0.07363634556531906,0.018242640420794487,0.015579480677843094
1773048899684995600,11.40099560546875,0.08215846121311188,-0.07550056278705597,-0.016378428786993027
1773048899694811600,11.410811767578124,0.02463422156870365,-0.025433169677853584,-0.02277000993490219
1773048899704991700,11.42099169921875,0.07363634556531906,0.055526867508888245,0.04647212475538254
1773048899715024600,11.431024658203125,0.19920429587364197,-0.032890014350414276,-0.024900536984205246
1773048899724991000,11.440990966796875,0.12476900219917297,-0.11278478801250458,-0.0504668653011322
1773048899734976300,11.450976318359375,0.06617950648069382,-0.04460791498422623,-0.029161592945456505
1773048899744944600,11.460944580078126,0.08322372287511826,-0.009454214945435524,0.0017310534603893757
1773048899754928000,11.47092822265625,0.0810931921005249,0.042743705213069916,0.027297381311655045
1773048899764898000,11.48089794921875,0.05233107507228851,0.03848264738917351,0.004926844500005245
1773048899774880300,11.49088037109375,0.05339634045958519,-0.04993423447012901,-0.007856319658458233
1773048899784760300,11.50076025390625,0.07363634556531906,-0.03928159549832344,-0.03235738351941109
1773048899794577200,11.5105771484375,0.059787921607494354,-0.02649843320250511,0.002796316985040903
1773048899804757000,11.520757080078125,0.0906805694103241,0.01078579481691122,0.014514217153191566
1773048899814790400,11.530790283203125,0.08215846121311188,-0.04354264959692955,-0.030226856470108032
1773048899824758800,11.5407587890625,0.07789740711450577,-0.10426267981529236,-0.021704746410250664
1773048899834742300,11.5507421875,0.07363634556531906,-0.06378266215324402,-0.0153131652623415
1773048899844712200,11.560712158203126,0.04167843982577324,-0.010519478470087051,0.010253162123262882
1773048899854694400,11.5706943359375,0.06404897570610046,0.031025802716612816,0.014514217153191566
1773048899864665600,11.58066552734375,0.07257108390331268,-0.02649843320250511,0.02090579830110073
1773048899874646800,11.590646728515624,0.07363634556531906,-0.014780532568693161,-0.0153131652623415
1773048899884619300,11.600619384765626,0.07789740711450577,-0.004127896390855312,0.008122635073959827
1773048899894599700,11.610599609375,0.07896266877651215,-0.04460791498422623,-0.004660528618842363
1773048899904572700,11.62057275390625,0.07896266877651215,-0.07656582444906235,-0.04727107286453247
1773048899914552300,11.63055224609375,0.0715058222413063,-0.11598058044910431,-0.0270310640335083
1773048899924526300,11.6405263671875,0.06937529146671295,-0.10106688737869263,-0.05579318478703499
1773048899934505500,11.65050537109375,0.0672447681427002,-0.03502054139971733,-0.0025300011038780212
1773048899944479700,11.660479736328124,0.059787921607494354,0.06404897570610046,0.035819489508867264
1773048899954458400,11.670458251953125,0.055526867508888245,0.051265813410282135,0.04540686309337616
1773048899964433400,11.680433349609375,0.051265813410282135,-0.032890014350414276,-0.00892158318310976
1773048899974411500,11.69041162109375,0.058722659945487976,-0.0882837250828743,-0.04407528415322304
1773048899984386800,11.70038671875,0.04061317816376686,-0.11385004967451096,-0.0504668653011322
1773048899994365000,11.710364990234375,0.031025802716612816,-0.10319741815328598,-0.05259739235043526
1773048900004340500,11.720340576171875,0.06191844865679741,-0.003062632866203785,-0.001464737462811172
1773048900014318000,11.730318115234375,0.04913528636097908,0.058722659945487976,0.031558435410261154
1773048900024198100,11.7401982421875,0.06085318699479103,0.03741738572716713,0.030493171885609627
1773048900034015700,11.750015625,-0.005193160381168127,-0.08508793264627457,-0.04301001876592636
1773048900044195800,11.76019580078125,0.007590003311634064,-0.16165375709533691,-0.07816372066736221
1773048900054229800,11.770229736328124,0.06511423736810684,-0.09574057161808014,-0.0270310640335083
1773048900064201000,11.780200927734375,0.05339634045958519,0.04167843982577324,0.015579480677843094
1773048900074182100,11.79018212890625,0.051265813410282135,0.08535424619913101,0.03368896245956421
1773048900084062200,11.800062255859375,0.05233107507228851,0.035286858677864075,0.03795001655817032
1773048900093879000,11.809879150390625,0.06298371404409409,0.012916321866214275,-0.0003994738799519837
1773048900104059100,11.82005908203125,0.06085318699479103,-0.11065425723791122,-0.0366184376180172
1773048900114092500,11.830092529296875,0.043808966875076294,-0.24474431574344635,-0.09520793706178665
1773048900124061400,11.8400615234375,0.042743705213069916,-0.08934898674488068,-0.03768370300531387
1773048900134044700,11.850044677734376,-0.010519478470087051,0.13542163372039795,0.08801741153001785
1773048900144014800,11.860014892578125,-0.04354264959692955,0.11092057824134827,0.06032055243849754
1773048900153996800,11.869996826171874,0.00013315795513335615,-0.061652131378650665,-0.0153131652623415
1773048900163968500,11.879968505859376,0.04913528636097908,-0.1351553201675415,-0.05259739235043526
1773048900173949400,11.889949462890625,0.0672447681427002,-0.05099949613213539,-0.00892158318310976
1773048900183829200,11.899829345703125,0.04487423226237297,-0.011584741994738579,-0.0025300011038780212
1773048900193646300,11.909646240234375,0.05339634045958519,0.01717737689614296,0.019840534776449203
1773048900203826200,11.919826171875,0.06085318699479103,0.04061317816376686,0.031558435410261154
1773048900213859800,11.92985986328125,0.042743705213069916,-0.08934898674488068,-0.0153131652623415
1773048900223829000,11.9398291015625,0.03315633162856102,-0.12450268864631653,-0.05153212696313858
1773048900233812000,11.94981201171875,0.03209106624126434,-0.020106852054595947,0.003861580742523074
1773048900243782400,11.959782470703125,0.03209106624126434,0.03635212033987045,0.035819489508867264
1773048900253764400,11.969764404296875,0.03209106624126434,0.031025802716612816,0.031558435410261154
1773048900263736000,11.979736083984376,0.02569948509335518,0.04913528636097908,0.004926844500005245
1773048900273716700,11.989716796875,0.035286858677864075,0.01504684891551733,0.043276336044073105
1773048900283596800,11.9995966796875,0.03848264738917351,-0.005193160381168127,-0.016378428786993027
1773048900293413600,12.00941357421875,0.03848264738917351,-0.13195952773094177,-0.04407528415322304
1773048900303593700,12.01959375,0.03635212033987045,-0.12982900440692902,-0.049401599913835526
1773048900313627400,12.02962744140625,0.018242640420794487,-0.025433169677853584,-0.012117373757064342
1773048900323507500,12.039507568359374,-0.032890014350414276,0.0033289489801973104,0.015579480677843094
1773048900333323500,12.049323486328126,-0.01584579609334469,0.08215846121311188,0.03688475489616394
1773048900343503600,12.059503662109375,0.0342215932905674,0.09174583107233047,0.04540686309337616
1773048900353536800,12.069536865234374,0.03635212033987045,-0.0456731803715229,-0.030226856470108032
1773048900363503400,12.07950341796875,0.04167843982577324,-0.12982900440692902,-0.05898897349834442
1773048900373488000,12.089488037109374,0.019307903945446014,-0.020106852054595947,-0.016378428786993027
1773048900383457000,12.09945703125,-0.03502054139971733,0.0342215932905674,0.0294279083609581
1773048900393440300,12.109440185546875,0.0033289489801973104,-0.003062632866203785,0.003861580742523074
1773048900403410400,12.119410400390626,0.020373167470097542,-0.07123950868844986,-0.020639482885599136
1773048900413392400,12.129392333984375,0.018242640420794487,-0.15419691801071167,-0.05472791939973831
1773048900423364000,12.139364013671875,0.01504684891551733,-0.12237215787172318,-0.05153212696313858
1773048900433345000,12.149344970703124,0.0011984215816482902,-0.008388951420783997,0.0017310534603893757
1773048900443317500,12.1593173828125,-0.0019973693415522575,0.12263847887516022,0.056059498339891434
1773048900453297700,12.169297607421875,0.01504684891551733,0.14820480346679688,0.05712476372718811
1773048900463271200,12.179271240234375,0.01078579481691122,-0.025433169677853584,-0.00892158318310976
1773048900473250600,12.18925048828125,0.007590003311634064,-0.14460954070091248,-0.10799109935760498
1773048900483130400,12.19913037109375,0.0011984215816482902,-0.17337165772914886,-0.08881635963916779
1773048900492947700,12.20894775390625,-0.0019973693415522575,-0.0648479238152504,-0.040879491716623306
1773048900503127800,12.2191279296875,-0.0318247526884079,0.08215846121311188,0.026232117787003517
1773048900513161700,12.22916162109375,-0.05419528856873512,0.15033532679080963,0.06138581782579422
1773048900523041500,12.23904150390625,-0.03821633383631706,0.055526867508888245,0.02090579830110073
1773048900532857900,12.24885791015625,-0.053130023181438446,-0.08721846342086792,-0.03981423005461693
1773048900543038000,12.259037841796875,-0.004127896390855312,-0.11704584211111069,-0.07496792823076248
1773048900553071000,12.269071044921875,0.007590003311634064,-0.053130023181438446,-0.05579318478703499
1773048900563038500,12.27903857421875,0.01078579481691122,0.018242640420794487,0.010253162123262882
